"trial_type","trial_index","time_elapsed","internal_node_id","task_version","subject_id","interactions","blur_events","focus_events","fullscreenenter_events","fullscreenexit_events","success","view_history","rt","responses","num_errors","age","subject","participantId","rune","rune_set","hex","correct","choice","accuracy","outcome","keys","total_keys","block","practice","value","sub","trial","stimulus","robot","valence","action","sham"
"pavlovia","0","22","0.0-0.0","battery-v0.2","","""event"",""trial"",""time""
""fullscreenenter"",""1"",""1729""
","
","
","""event"",""trial"",""time""
""fullscreenenter"",""1"",""1729""
","
","","","","","","","","","","","","","","","","","","","","","","","","","","",""
"fullscreen","1","2705","0.0-1.0","battery-v0.2","","""event"",""trial"",""time""
""fullscreenenter"",""1"",""1729""
","
","
","""event"",""trial"",""time""
""fullscreenenter"",""1"",""1729""
","
","true","","","","","","","","","","","","","","","","","","","","","","","","","",""
"pit-instructions","2","8655","0.0-2.0-0.0","battery-v0.2","","""event"",""trial"",""time""
""fullscreenenter"",""1"",""1729""
","
","
","""event"",""trial"",""time""
""fullscreenenter"",""1"",""1729""
","
","","[{""page_index"":0,""viewing_time"":5945.20000000298}]","5945.5","","","","","","","","","","","","","","","","","","","","","","","",""
"pit-comprehension","3","11720","0.0-2.0-1.0-0.0","battery-v0.2","","""event"",""trial"",""time""
""fullscreenenter"",""1"",""1729""
","
","
","""event"",""trial"",""time""
""fullscreenenter"",""1"",""1729""
","
","","","3061.7000000029802","[""shark""]","0","22","13622","1454","","","","","","","","","","","","","","","","","","",""
"pit-instructions","4","12955","0.0-2.0-1.0-1.0","battery-v0.2","","""event"",""trial"",""time""
""fullscreenenter"",""1"",""1729""
","
","
","""event"",""trial"",""time""
""fullscreenenter"",""1"",""1729""
","
","","[{""page_index"":0,""viewing_time"":1227.9000000059605}]","1228.3000000044703","","","","","","","","","","","","","","","","","","","","","","","",""
"pit-comprehension","5","15555","0.0-2.0-2.0-0.0","battery-v0.2","","""event"",""trial"",""time""
""fullscreenenter"",""1"",""1729""
","
","
","""event"",""trial"",""time""
""fullscreenenter"",""1"",""1729""
","
","","","2594.3000000044703","[""tiger""]","0","22","13622","1454","","","","","","","","","","","","","","","","","","",""
"pit-instructions","6","16741","0.0-2.0-2.0-1.0","battery-v0.2","","""event"",""trial"",""time""
""fullscreenenter"",""1"",""1729""
","
","
","""event"",""trial"",""time""
""fullscreenenter"",""1"",""1729""
","
","","[{""page_index"":0,""viewing_time"":1182.8999999985099}]","1183.1999999955297","","","","","","","","","","","","","","","","","","","","","","","",""
"pit-instructions","7","113985","0.0-2.0-3.0","battery-v0.2","","""event"",""trial"",""time""
""fullscreenenter"",""1"",""1729""
","
","
","""event"",""trial"",""time""
""fullscreenenter"",""1"",""1729""
","
","","[{""page_index"":0,""viewing_time"":9347.80000000447},{""page_index"":1,""viewing_time"":5098.69999999553},{""page_index"":2,""viewing_time"":7934.9000000059605},{""page_index"":3,""viewing_time"":7062.89999999851},{""page_index"":4,""viewing_time"":5318.60000000149},{""page_index"":5,""viewing_time"":5934.5},{""page_index"":6,""viewing_time"":7298.69999999553},{""page_index"":7,""viewing_time"":6866.70000000298},{""page_index"":8,""viewing_time"":6586.10000000149},{""page_index"":9,""viewing_time"":7702.39999999851},{""page_index"":10,""viewing_time"":7798.89999999851},{""page_index"":11,""viewing_time"":7933.70000000298},{""page_index"":12,""viewing_time"":6050.89999999851},{""page_index"":13,""viewing_time"":6301.19999999553}]","97236.40000000596","","","","","","","","","","","","","","","","","","","","","","","",""
"pit-trial","8","117514","0.0-2.0-4.0-0.0","battery-v0.2","","""event"",""trial"",""time""
""fullscreenenter"",""1"",""1729""
","
","
","""event"",""trial"",""time""
""fullscreenenter"",""1"",""1729""
","
","","","670.1000000014901","","","22","13622","1454","&#9784;","elianto","#FFFFF080"," "," ","1","&#10004","[1524.1000000014901]","1","0","0","","","","","","","",""
"pit-trial","9","121069","0.0-2.0-4.1-0.1","battery-v0.2","","""event"",""trial"",""time""
""fullscreenenter"",""1"",""1729""
","
","
","""event"",""trial"",""time""
""fullscreenenter"",""1"",""1729""
","
","","","697.3999999985099","","","22","13622","1454","&#9784;","elianto","#FFFFF080"," "," ","1","&#10004","[1548.5]","1","0","0","","","","","","","",""
"pit-trial","10","124626","0.0-2.0-4.2-0.2","battery-v0.2","","""event"",""trial"",""time""
""fullscreenenter"",""1"",""1729""
","
","
","""event"",""trial"",""time""
""fullscreenenter"",""1"",""1729""
","
","","","703.1000000014901","","","22","13622","1454","&#9784;","elianto","#FFFFF080"," "," ","1","&#10004","[1553.2999999970198]","1","0","0","","","","","","","",""
"pit-trial","11","128082","0.0-2.0-4.3-0.3","battery-v0.2","","""event"",""trial"",""time""
""fullscreenenter"",""1"",""1729""
","
","
","""event"",""trial"",""time""
""fullscreenenter"",""1"",""1729""
","
","","","601","","","22","13622","1454","&#9784;","elianto","#FFFFF080"," "," ","1","&#10004","[1451.1000000014901]","1","0","0","","","","","","","",""
"pit-trial","12","131658","0.0-2.0-4.4-0.4","battery-v0.2","","""event"",""trial"",""time""
""fullscreenenter"",""1"",""1729""
","
","
","""event"",""trial"",""time""
""fullscreenenter"",""1"",""1729""
","
","","","719.5","","","22","13622","1454","&#9784;","elianto","#FFFFF080"," "," ","1","&#10004","[1570.2000000029802]","1","0","0","","","","","","","",""
"pit-instructions","13","153619","0.0-2.0-5.0","battery-v0.2","","""event"",""trial"",""time""
""fullscreenenter"",""1"",""1729""
","
","
","""event"",""trial"",""time""
""fullscreenenter"",""1"",""1729""
","
","","[{""page_index"":0,""viewing_time"":5574.10000000149},{""page_index"":1,""viewing_time"":5698.60000000149},{""page_index"":2,""viewing_time"":5182.10000000149},{""page_index"":3,""viewing_time"":5501}]","21956.20000000298","","","","","","","","","","","","","","","","","","","","","","","",""
"pit-trial","14","158474","0.0-2.0-6.0-0.0","battery-v0.2","","""event"",""trial"",""time""
""fullscreenenter"",""1"",""1729""
","
","
","""event"",""trial"",""time""
""fullscreenenter"",""1"",""1729""
","
","","","-1","","","22","13622","1454","&#9854;","elianto","#FFFFF080","-1","-1","1","&#10004","[]","0","0","1","","","","","","","",""
"pit-trial","15","163331","0.0-2.0-6.1-0.1","battery-v0.2","","""event"",""trial"",""time""
""fullscreenenter"",""1"",""1729""
","
","
","""event"",""trial"",""time""
""fullscreenenter"",""1"",""1729""
","
","","","-1","","","22","13622","1454","&#9854;","elianto","#FFFFF080","-1","-1","1","&#10004","[]","0","0","1","","","","","","","",""
"pit-trial","16","168185","0.0-2.0-6.2-0.2","battery-v0.2","","""event"",""trial"",""time""
""fullscreenenter"",""1"",""1729""
","
","
","""event"",""trial"",""time""
""fullscreenenter"",""1"",""1729""
","
","","","-1","","","22","13622","1454","&#9854;","elianto","#FFFFF080","-1","-1","1","&#10004","[]","0","0","1","","","","","","","",""
"pit-trial","17","173042","0.0-2.0-6.3-0.3","battery-v0.2","","""event"",""trial"",""time""
""fullscreenenter"",""1"",""1729""
","
","
","""event"",""trial"",""time""
""fullscreenenter"",""1"",""1729""
","
","","","-1","","","22","13622","1454","&#9854;","elianto","#FFFFF080","-1","-1","1","&#10004","[]","0","0","1","","","","","","","",""
"pit-trial","18","177897","0.0-2.0-6.4-0.4","battery-v0.2","","""event"",""trial"",""time""
""fullscreenenter"",""1"",""1729""
","
","
","""event"",""trial"",""time""
""fullscreenenter"",""1"",""1729""
","
","","","-1","","","22","13622","1454","&#9854;","elianto","#FFFFF080","-1","-1","1","&#10004","[]","0","0","1","","","","","","","",""
"pit-instructions","19","293853","0.0-2.0-7.0","battery-v0.2","","""event"",""trial"",""time""
""fullscreenenter"",""1"",""1729""
","
","
","""event"",""trial"",""time""
""fullscreenenter"",""1"",""1729""
","
","","[{""page_index"":0,""viewing_time"":6092.0999999940395},{""page_index"":1,""viewing_time"":9232.70000000298},{""page_index"":2,""viewing_time"":8132.89999999851},{""page_index"":3,""viewing_time"":5916.39999999851},{""page_index"":4,""viewing_time"":6214.80000000447},{""page_index"":5,""viewing_time"":5470.79999999702},{""page_index"":6,""viewing_time"":5599.60000000149},{""page_index"":7,""viewing_time"":7681.10000000149},{""page_index"":8,""viewing_time"":6584.29999999702},{""page_index"":9,""viewing_time"":5266.39999999851},{""page_index"":10,""viewing_time"":6305},{""page_index"":11,""viewing_time"":4047.9000000059605},{""page_index"":12,""viewing_time"":6217.79999999702},{""page_index"":13,""viewing_time"":7283.20000000298},{""page_index"":14,""viewing_time"":6247.89999999851},{""page_index"":15,""viewing_time"":6284.29999999702},{""page_index"":16,""viewing_time"":6120},{""page_index"":17,""viewing_time"":7251.30000000447}]","115948.89999999851","","","","","","","","","","","","","","","","","","","","","","","",""
"pit-trial","20","297277","0.0-2.0-8.0-0.0","battery-v0.2","","""event"",""trial"",""time""
""fullscreenenter"",""1"",""1729""
","
","
","""event"",""trial"",""time""
""fullscreenenter"",""1"",""1729""
","
","","","567.8999999985099","","","22","13622","1454","&#9776;","elianto","#3366ff99"," "," ","1","+10","[1420.0999999940395]","1","0","1","","","","","","","",""
"pit-trial","21","300672","0.0-2.0-8.0-1.0","battery-v0.2","","""event"",""trial"",""time""
""fullscreenenter"",""1"",""1729""
","
","
","""event"",""trial"",""time""
""fullscreenenter"",""1"",""1729""
","
","","","539.8999999985099","","","22","13622","1454","&#9776;","elianto","#3366ff99"," "," ","1","+10","[1391.1999999955297]","1","0","1","","","","","","","",""
"pit-trial","22","304315","0.0-2.0-8.0-2.0","battery-v0.2","","""event"",""trial"",""time""
""fullscreenenter"",""1"",""1729""
","
","
","""event"",""trial"",""time""
""fullscreenenter"",""1"",""1729""
","
","","","787.7000000029802","","","22","13622","1454","&#9776;","elianto","#3366ff99"," "," ","1","+10","[1638.2999999970198]","1","0","1","","","","","","","",""
"pit-trial","23","307754","0.0-2.0-8.0-3.0","battery-v0.2","","""event"",""trial"",""time""
""fullscreenenter"",""1"",""1729""
","
","
","""event"",""trial"",""time""
""fullscreenenter"",""1"",""1729""
","
","","","584.1000000014901","","","22","13622","1454","&#9776;","elianto","#3366ff99"," "," ","1","0","[1435.3999999985099]","1","0","1","","","","","","","",""
"pit-trial","24","311180","0.0-2.0-8.0-4.0","battery-v0.2","","""event"",""trial"",""time""
""fullscreenenter"",""1"",""1729""
","
","
","""event"",""trial"",""time""
""fullscreenenter"",""1"",""1729""
","
","","","570.7000000029802","","","22","13622","1454","&#9776;","elianto","#3366ff99"," "," ","1","+10","[1422.1000000014901]","1","0","1","","","","","","","",""
"pit-trial","25","314593","0.0-2.0-8.1-0.1","battery-v0.2","","""event"",""trial"",""time""
""fullscreenenter"",""1"",""1729""
","
","
","""event"",""trial"",""time""
""fullscreenenter"",""1"",""1729""
","
","","","557.8000000044703","","","22","13622","1454","&#9776;","elianto","#3366ff99"," "," ","1","+10","[1408.6000000014901]","1","0","1","","","","","","","",""
"pit-trial","26","317963","0.0-2.0-8.1-1.1","battery-v0.2","","""event"",""trial"",""time""
""fullscreenenter"",""1"",""1729""
","
","
","""event"",""trial"",""time""
""fullscreenenter"",""1"",""1729""
","
","","","514.7999999970198","","","22","13622","1454","&#9776;","elianto","#3366ff99"," "," ","1","+10","[1364.8999999985099]","1","0","1","","","","","","","",""
"pit-trial","27","321426","0.0-2.0-8.1-2.1","battery-v0.2","","""event"",""trial"",""time""
""fullscreenenter"",""1"",""1729""
","
","
","""event"",""trial"",""time""
""fullscreenenter"",""1"",""1729""
","
","","","609.0999999940395","","","22","13622","1454","&#9776;","elianto","#3366ff99"," "," ","1","+10","[1459.3999999985099]","1","0","1","","","","","","","",""
"pit-trial","28","324964","0.0-2.0-8.1-3.1","battery-v0.2","","""event"",""trial"",""time""
""fullscreenenter"",""1"",""1729""
","
","
","""event"",""trial"",""time""
""fullscreenenter"",""1"",""1729""
","
","","","681","","","22","13622","1454","&#9776;","elianto","#3366ff99"," "," ","1","0","[1534.1000000014901]","1","0","1","","","","","","","",""
"pit-trial","29","328508","0.0-2.0-8.1-4.1","battery-v0.2","","""event"",""trial"",""time""
""fullscreenenter"",""1"",""1729""
","
","
","""event"",""trial"",""time""
""fullscreenenter"",""1"",""1729""
","
","","","688.1000000014901","","","22","13622","1454","&#9776;","elianto","#3366ff99"," "," ","1","+10","[1540]","1","0","1","","","","","","","",""
"pit-trial","30","331950","0.0-2.0-8.2-0.2","battery-v0.2","","""event"",""trial"",""time""
""fullscreenenter"",""1"",""1729""
","
","
","""event"",""trial"",""time""
""fullscreenenter"",""1"",""1729""
","
","","","587.6000000014901","","","22","13622","1454","&#9776;","elianto","#3366ff99"," "," ","1","+10","[1438.1999999955297]","1","0","1","","","","","","","",""
"pit-trial","31","335416","0.0-2.0-8.2-1.2","battery-v0.2","","""event"",""trial"",""time""
""fullscreenenter"",""1"",""1729""
","
","
","""event"",""trial"",""time""
""fullscreenenter"",""1"",""1729""
","
","","","611","","","22","13622","1454","&#9776;","elianto","#3366ff99"," "," ","1","+10","[1462.4000000059605]","1","0","1","","","","","","","",""
"pit-trial","32","338836","0.0-2.0-8.2-2.2","battery-v0.2","","""event"",""trial"",""time""
""fullscreenenter"",""1"",""1729""
","
","
","""event"",""trial"",""time""
""fullscreenenter"",""1"",""1729""
","
","","","563.1000000014901","","","22","13622","1454","&#9776;","elianto","#3366ff99"," "," ","1","+10","[1414.6000000014901]","1","0","1","","","","","","","",""
"pit-trial","33","342242","0.0-2.0-8.2-3.2","battery-v0.2","","""event"",""trial"",""time""
""fullscreenenter"",""1"",""1729""
","
","
","""event"",""trial"",""time""
""fullscreenenter"",""1"",""1729""
","
","","","552.7000000029802","","","22","13622","1454","&#9776;","elianto","#3366ff99"," "," ","1","0","[1402.7999999970198]","1","0","1","","","","","","","",""
"pit-trial","34","345602","0.0-2.0-8.2-4.2","battery-v0.2","","""event"",""trial"",""time""
""fullscreenenter"",""1"",""1729""
","
","
","""event"",""trial"",""time""
""fullscreenenter"",""1"",""1729""
","
","","","503.30000000447035","","","22","13622","1454","&#9776;","elianto","#3366ff99"," "," ","1","+10","[1355.6000000014901]","1","0","1","","","","","","","",""
"call-function","35","345604","0.0-2.0-9.0","battery-v0.2","","""event"",""trial"",""time""
""fullscreenenter"",""1"",""1729""
","
","
","""event"",""trial"",""time""
""fullscreenenter"",""1"",""1729""
","
","","","","","","","","","","","","","","","","","","","","","","","","","","",""
"pit-instructions","36","386244","0.0-2.0-10.0","battery-v0.2","","""event"",""trial"",""time""
""fullscreenenter"",""1"",""1729""
","
","
","""event"",""trial"",""time""
""fullscreenenter"",""1"",""1729""
","
","","[{""page_index"":0,""viewing_time"":6052.20000000298},{""page_index"":1,""viewing_time"":7463.79999999702},{""page_index"":2,""viewing_time"":9787.40000000596},{""page_index"":3,""viewing_time"":9534.19999999553},{""page_index"":4,""viewing_time"":7799.60000000149}]","40637.60000000149","","","","","","","","","","","","","","","","","","","","","","","",""
"pit-trial","37","391100","0.0-2.0-11.0-0.0","battery-v0.2","","""event"",""trial"",""time""
""fullscreenenter"",""1"",""1729""
","
","
","""event"",""trial"",""time""
""fullscreenenter"",""1"",""1729""
","
","","","-1","","","22","13622","1454","&#9761;","elianto","#3366ff99","-1","-1","1","+10","[]","0","0","2","","","","","","","",""
"pit-trial","38","395955","0.0-2.0-11.0-1.0","battery-v0.2","","""event"",""trial"",""time""
""fullscreenenter"",""1"",""1729""
","
","
","""event"",""trial"",""time""
""fullscreenenter"",""1"",""1729""
","
","","","-1","","","22","13622","1454","&#9761;","elianto","#3366ff99","-1","-1","1","+10","[]","0","0","2","","","","","","","",""
"pit-trial","39","400809","0.0-2.0-11.0-2.0","battery-v0.2","","""event"",""trial"",""time""
""fullscreenenter"",""1"",""1729""
","
","
","""event"",""trial"",""time""
""fullscreenenter"",""1"",""1729""
","
","","","-1","","","22","13622","1454","&#9761;","elianto","#3366ff99","-1","-1","1","+10","[]","0","0","2","","","","","","","",""
"pit-trial","40","405665","0.0-2.0-11.0-3.0","battery-v0.2","","""event"",""trial"",""time""
""fullscreenenter"",""1"",""1729""
","
","
","""event"",""trial"",""time""
""fullscreenenter"",""1"",""1729""
","
","","","-1","","","22","13622","1454","&#9761;","elianto","#3366ff99","-1","-1","1","0","[]","0","0","2","","","","","","","",""
"pit-trial","41","410521","0.0-2.0-11.0-4.0","battery-v0.2","","""event"",""trial"",""time""
""fullscreenenter"",""1"",""1729""
","
","
","""event"",""trial"",""time""
""fullscreenenter"",""1"",""1729""
","
","","","-1","","","22","13622","1454","&#9761;","elianto","#3366ff99","-1","-1","1","+10","[]","0","0","2","","","","","","","",""
"pit-trial","42","415378","0.0-2.0-11.1-0.1","battery-v0.2","","""event"",""trial"",""time""
""fullscreenenter"",""1"",""1729""
","
","
","""event"",""trial"",""time""
""fullscreenenter"",""1"",""1729""
","
","","","-1","","","22","13622","1454","&#9761;","elianto","#3366ff99","-1","-1","1","+10","[]","0","0","2","","","","","","","",""
"pit-trial","43","420234","0.0-2.0-11.1-1.1","battery-v0.2","","""event"",""trial"",""time""
""fullscreenenter"",""1"",""1729""
","
","
","""event"",""trial"",""time""
""fullscreenenter"",""1"",""1729""
","
","","","-1","","","22","13622","1454","&#9761;","elianto","#3366ff99","-1","-1","1","+10","[]","0","0","2","","","","","","","",""
"pit-trial","44","425089","0.0-2.0-11.1-2.1","battery-v0.2","","""event"",""trial"",""time""
""fullscreenenter"",""1"",""1729""
","
","
","""event"",""trial"",""time""
""fullscreenenter"",""1"",""1729""
","
","","","-1","","","22","13622","1454","&#9761;","elianto","#3366ff99","-1","-1","1","+10","[]","0","0","2","","","","","","","",""
"pit-trial","45","429944","0.0-2.0-11.1-3.1","battery-v0.2","","""event"",""trial"",""time""
""fullscreenenter"",""1"",""1729""
","
","
","""event"",""trial"",""time""
""fullscreenenter"",""1"",""1729""
","
","","","-1","","","22","13622","1454","&#9761;","elianto","#3366ff99","-1","-1","1","0","[]","0","0","2","","","","","","","",""
"pit-trial","46","434800","0.0-2.0-11.1-4.1","battery-v0.2","","""event"",""trial"",""time""
""fullscreenenter"",""1"",""1729""
","
","
","""event"",""trial"",""time""
""fullscreenenter"",""1"",""1729""
","
","","","-1","","","22","13622","1454","&#9761;","elianto","#3366ff99","-1","-1","1","+10","[]","0","0","2","","","","","","","",""
"pit-trial","47","439656","0.0-2.0-11.2-0.2","battery-v0.2","","""event"",""trial"",""time""
""fullscreenenter"",""1"",""1729""
","
","
","""event"",""trial"",""time""
""fullscreenenter"",""1"",""1729""
","
","","","-1","","","22","13622","1454","&#9761;","elianto","#3366ff99","-1","-1","1","+10","[]","0","0","2","","","","","","","",""
"pit-trial","48","444512","0.0-2.0-11.2-1.2","battery-v0.2","","""event"",""trial"",""time""
""fullscreenenter"",""1"",""1729""
","
","
","""event"",""trial"",""time""
""fullscreenenter"",""1"",""1729""
","
","","","-1","","","22","13622","1454","&#9761;","elianto","#3366ff99","-1","-1","1","+10","[]","0","0","2","","","","","","","",""
"pit-trial","49","449366","0.0-2.0-11.2-2.2","battery-v0.2","","""event"",""trial"",""time""
""fullscreenenter"",""1"",""1729""
","
","
","""event"",""trial"",""time""
""fullscreenenter"",""1"",""1729""
","
","","","-1","","","22","13622","1454","&#9761;","elianto","#3366ff99","-1","-1","1","+10","[]","0","0","2","","","","","","","",""
"pit-trial","50","454220","0.0-2.0-11.2-3.2","battery-v0.2","","""event"",""trial"",""time""
""fullscreenenter"",""1"",""1729""
","
","
","""event"",""trial"",""time""
""fullscreenenter"",""1"",""1729""
","
","","","-1","","","22","13622","1454","&#9761;","elianto","#3366ff99","-1","-1","1","0","[]","0","0","2","","","","","","","",""
"pit-trial","51","459076","0.0-2.0-11.2-4.2","battery-v0.2","","""event"",""trial"",""time""
""fullscreenenter"",""1"",""1729""
","
","
","""event"",""trial"",""time""
""fullscreenenter"",""1"",""1729""
","
","","","-1","","","22","13622","1454","&#9761;","elianto","#3366ff99","-1","-1","1","+10","[]","0","0","2","","","","","","","",""
"pit-trial","52","463931","0.0-2.0-11.3-0.3","battery-v0.2","","""event"",""trial"",""time""
""fullscreenenter"",""1"",""1729""
","
","
","""event"",""trial"",""time""
""fullscreenenter"",""1"",""1729""
","
","","","-1","","","22","13622","1454","&#9761;","elianto","#3366ff99","-1","-1","1","+10","[]","0","0","2","","","","","","","",""
"pit-trial","53","468785","0.0-2.0-11.3-1.3","battery-v0.2","","""event"",""trial"",""time""
""fullscreenenter"",""1"",""1729""
","
","
","""event"",""trial"",""time""
""fullscreenenter"",""1"",""1729""
","
","","","-1","","","22","13622","1454","&#9761;","elianto","#3366ff99","-1","-1","1","+10","[]","0","0","2","","","","","","","",""
"pit-trial","54","473641","0.0-2.0-11.3-2.3","battery-v0.2","","""event"",""trial"",""time""
""fullscreenenter"",""1"",""1729""
","
","
","""event"",""trial"",""time""
""fullscreenenter"",""1"",""1729""
","
","","","-1","","","22","13622","1454","&#9761;","elianto","#3366ff99","-1","-1","1","+10","[]","0","0","2","","","","","","","",""
"pit-trial","55","478496","0.0-2.0-11.3-3.3","battery-v0.2","","""event"",""trial"",""time""
""fullscreenenter"",""1"",""1729""
","
","
","""event"",""trial"",""time""
""fullscreenenter"",""1"",""1729""
","
","","","-1","","","22","13622","1454","&#9761;","elianto","#3366ff99","-1","-1","1","0","[]","0","0","2","","","","","","","",""
"pit-trial","56","483349","0.0-2.0-11.3-4.3","battery-v0.2","","""event"",""trial"",""time""
""fullscreenenter"",""1"",""1729""
","
","
","""event"",""trial"",""time""
""fullscreenenter"",""1"",""1729""
","
","","","-1","","","22","13622","1454","&#9761;","elianto","#3366ff99","-1","-1","1","+10","[]","0","0","2","","","","","","","",""
"call-function","57","483352","0.0-2.0-12.0","battery-v0.2","","""event"",""trial"",""time""
""fullscreenenter"",""1"",""1729""
","
","
","""event"",""trial"",""time""
""fullscreenenter"",""1"",""1729""
","
","","","","","","","","","","","","","","","","","","","","","","","","","","",""
"pit-instructions","58","522142","0.0-2.0-13.0","battery-v0.2","","""event"",""trial"",""time""
""fullscreenenter"",""1"",""1729""
","
","
","""event"",""trial"",""time""
""fullscreenenter"",""1"",""1729""
","
","","[{""page_index"":0,""viewing_time"":8632.19999999553},{""page_index"":1,""viewing_time"":8584.5},{""page_index"":2,""viewing_time"":4533.10000000149},{""page_index"":3,""viewing_time"":11353.79999999702},{""page_index"":4,""viewing_time"":5684.10000000149}]","38788.19999999553","","","","","","","","","","","","","","","","","","","","","","","",""
"pit-trial","59","526995","0.0-2.0-14.0-0.0","battery-v0.2","","""event"",""trial"",""time""
""fullscreenenter"",""1"",""1729""
","
","
","""event"",""trial"",""time""
""fullscreenenter"",""1"",""1729""
","
","","","-1","","","22","13622","1454","&#9826;","elianto","#f73b6a7A","-1","-1","1","0","[]","0","0","3","","","","","","","",""
"pit-trial","60","531849","0.0-2.0-14.0-1.0","battery-v0.2","","""event"",""trial"",""time""
""fullscreenenter"",""1"",""1729""
","
","
","""event"",""trial"",""time""
""fullscreenenter"",""1"",""1729""
","
","","","-1","","","22","13622","1454","&#9826;","elianto","#f73b6a7A","-1","-1","1","0","[]","0","0","3","","","","","","","",""
"pit-trial","61","536704","0.0-2.0-14.0-2.0","battery-v0.2","","""event"",""trial"",""time""
""fullscreenenter"",""1"",""1729""
","
","
","""event"",""trial"",""time""
""fullscreenenter"",""1"",""1729""
","
","","","-1","","","22","13622","1454","&#9826;","elianto","#f73b6a7A","-1","-1","1","0","[]","0","0","3","","","","","","","",""
"pit-trial","62","541560","0.0-2.0-14.0-3.0","battery-v0.2","","""event"",""trial"",""time""
""fullscreenenter"",""1"",""1729""
","
","
","""event"",""trial"",""time""
""fullscreenenter"",""1"",""1729""
","
","","","-1","","","22","13622","1454","&#9826;","elianto","#f73b6a7A","-1","-1","1","-10","[]","0","0","3","","","","","","","",""
"pit-trial","63","546416","0.0-2.0-14.0-4.0","battery-v0.2","","""event"",""trial"",""time""
""fullscreenenter"",""1"",""1729""
","
","
","""event"",""trial"",""time""
""fullscreenenter"",""1"",""1729""
","
","","","-1","","","22","13622","1454","&#9826;","elianto","#f73b6a7A","-1","-1","1","0","[]","0","0","3","","","","","","","",""
"pit-trial","64","551273","0.0-2.0-14.1-0.1","battery-v0.2","","""event"",""trial"",""time""
""fullscreenenter"",""1"",""1729""
","
","
","""event"",""trial"",""time""
""fullscreenenter"",""1"",""1729""
","
","","","-1","","","22","13622","1454","&#9826;","elianto","#f73b6a7A","-1","-1","1","0","[]","0","0","3","","","","","","","",""
"pit-trial","65","556127","0.0-2.0-14.1-1.1","battery-v0.2","","""event"",""trial"",""time""
""fullscreenenter"",""1"",""1729""
","
","
","""event"",""trial"",""time""
""fullscreenenter"",""1"",""1729""
","
","","","-1","","","22","13622","1454","&#9826;","elianto","#f73b6a7A","-1","-1","1","0","[]","0","0","3","","","","","","","",""
"pit-trial","66","560983","0.0-2.0-14.1-2.1","battery-v0.2","","""event"",""trial"",""time""
""fullscreenenter"",""1"",""1729""
","
","
","""event"",""trial"",""time""
""fullscreenenter"",""1"",""1729""
","
","","","-1","","","22","13622","1454","&#9826;","elianto","#f73b6a7A","-1","-1","1","0","[]","0","0","3","","","","","","","",""
"pit-trial","67","565838","0.0-2.0-14.1-3.1","battery-v0.2","","""event"",""trial"",""time""
""fullscreenenter"",""1"",""1729""
","
","
","""event"",""trial"",""time""
""fullscreenenter"",""1"",""1729""
","
","","","-1","","","22","13622","1454","&#9826;","elianto","#f73b6a7A","-1","-1","1","-10","[]","0","0","3","","","","","","","",""
"pit-trial","68","570693","0.0-2.0-14.1-4.1","battery-v0.2","","""event"",""trial"",""time""
""fullscreenenter"",""1"",""1729""
","
","
","""event"",""trial"",""time""
""fullscreenenter"",""1"",""1729""
","
","","","-1","","","22","13622","1454","&#9826;","elianto","#f73b6a7A","-1","-1","1","0","[]","0","0","3","","","","","","","",""
"pit-trial","69","575550","0.0-2.0-14.2-0.2","battery-v0.2","","""event"",""trial"",""time""
""fullscreenenter"",""1"",""1729""
","
","
","""event"",""trial"",""time""
""fullscreenenter"",""1"",""1729""
","
","","","-1","","","22","13622","1454","&#9826;","elianto","#f73b6a7A","-1","-1","1","0","[]","0","0","3","","","","","","","",""
"pit-trial","70","580405","0.0-2.0-14.2-1.2","battery-v0.2","","""event"",""trial"",""time""
""fullscreenenter"",""1"",""1729""
","
","
","""event"",""trial"",""time""
""fullscreenenter"",""1"",""1729""
","
","","","-1","","","22","13622","1454","&#9826;","elianto","#f73b6a7A","-1","-1","1","0","[]","0","0","3","","","","","","","",""
"pit-trial","71","585260","0.0-2.0-14.2-2.2","battery-v0.2","","""event"",""trial"",""time""
""fullscreenenter"",""1"",""1729""
","
","
","""event"",""trial"",""time""
""fullscreenenter"",""1"",""1729""
","
","","","-1","","","22","13622","1454","&#9826;","elianto","#f73b6a7A","-1","-1","1","0","[]","0","0","3","","","","","","","",""
"pit-trial","72","590117","0.0-2.0-14.2-3.2","battery-v0.2","","""event"",""trial"",""time""
""fullscreenenter"",""1"",""1729""
","
","
","""event"",""trial"",""time""
""fullscreenenter"",""1"",""1729""
","
","","","-1","","","22","13622","1454","&#9826;","elianto","#f73b6a7A","-1","-1","1","-10","[]","0","0","3","","","","","","","",""
"pit-trial","73","594971","0.0-2.0-14.2-4.2","battery-v0.2","","""event"",""trial"",""time""
""fullscreenenter"",""1"",""1729""
","
","
","""event"",""trial"",""time""
""fullscreenenter"",""1"",""1729""
","
","","","-1","","","22","13622","1454","&#9826;","elianto","#f73b6a7A","-1","-1","1","0","[]","0","0","3","","","","","","","",""
"pit-trial","74","599827","0.0-2.0-14.3-0.3","battery-v0.2","","""event"",""trial"",""time""
""fullscreenenter"",""1"",""1729""
","
","
","""event"",""trial"",""time""
""fullscreenenter"",""1"",""1729""
","
","","","-1","","","22","13622","1454","&#9826;","elianto","#f73b6a7A","-1","-1","1","0","[]","0","0","3","","","","","","","",""
"pit-trial","75","604682","0.0-2.0-14.3-1.3","battery-v0.2","","""event"",""trial"",""time""
""fullscreenenter"",""1"",""1729""
","
","
","""event"",""trial"",""time""
""fullscreenenter"",""1"",""1729""
","
","","","-1","","","22","13622","1454","&#9826;","elianto","#f73b6a7A","-1","-1","1","0","[]","0","0","3","","","","","","","",""
"pit-trial","76","609538","0.0-2.0-14.3-2.3","battery-v0.2","","""event"",""trial"",""time""
""fullscreenenter"",""1"",""1729""
","
","
","""event"",""trial"",""time""
""fullscreenenter"",""1"",""1729""
","
","","","-1","","","22","13622","1454","&#9826;","elianto","#f73b6a7A","-1","-1","1","0","[]","0","0","3","","","","","","","",""
"pit-trial","77","614394","0.0-2.0-14.3-3.3","battery-v0.2","","""event"",""trial"",""time""
""fullscreenenter"",""1"",""1729""
","
","
","""event"",""trial"",""time""
""fullscreenenter"",""1"",""1729""
","
","","","-1","","","22","13622","1454","&#9826;","elianto","#f73b6a7A","-1","-1","1","-10","[]","0","0","3","","","","","","","",""
"pit-trial","78","619250","0.0-2.0-14.3-4.3","battery-v0.2","","""event"",""trial"",""time""
""fullscreenenter"",""1"",""1729""
","
","
","""event"",""trial"",""time""
""fullscreenenter"",""1"",""1729""
","
","","","-1","","","22","13622","1454","&#9826;","elianto","#f73b6a7A","-1","-1","1","0","[]","0","0","3","","","","","","","",""
"call-function","79","619252","0.0-2.0-15.0","battery-v0.2","","""event"",""trial"",""time""
""fullscreenenter"",""1"",""1729""
","
","
","""event"",""trial"",""time""
""fullscreenenter"",""1"",""1729""
","
","","","","","","","","","","","","","","","","","","","","","","","","","","",""
"pit-instructions","80","650154","0.0-2.0-16.0","battery-v0.2","","""event"",""trial"",""time""
""fullscreenenter"",""1"",""1729""
","
","
","""event"",""trial"",""time""
""fullscreenenter"",""1"",""1729""
","
","","[{""page_index"":0,""viewing_time"":10694.79999999702},{""page_index"":1,""viewing_time"":8721.60000000149},{""page_index"":2,""viewing_time"":5299.70000000298},{""page_index"":3,""viewing_time"":6183.89999999851}]","30900.39999999851","","","","","","","","","","","","","","","","","","","","","","","",""
"pit-trial","81","653413","0.0-2.0-17.0-0.0","battery-v0.2","","""event"",""trial"",""time""
""fullscreenenter"",""1"",""1729""
","
","
","""event"",""trial"",""time""
""fullscreenenter"",""1"",""1729""
","
","","","398.30000000447035","","","22","13622","1454","&#9789;","elianto","#f73b6a7A"," "," ","1","0","[1253.9000000059605]","1","0","4","","","","","","","",""
"pit-trial","82","656734","0.0-2.0-17.0-1.0","battery-v0.2","","""event"",""trial"",""time""
""fullscreenenter"",""1"",""1729""
","
","
","""event"",""trial"",""time""
""fullscreenenter"",""1"",""1729""
","
","","","466.3999999985099","","","22","13622","1454","&#9789;","elianto","#f73b6a7A"," "," ","1","0","[1317.2000000029802]","1","0","4","","","","","","","",""
"pit-trial","83","660011","0.0-2.0-17.0-2.0","battery-v0.2","","""event"",""trial"",""time""
""fullscreenenter"",""1"",""1729""
","
","
","""event"",""trial"",""time""
""fullscreenenter"",""1"",""1729""
","
","","","420.90000000596046","","","22","13622","1454","&#9789;","elianto","#f73b6a7A"," "," ","1","0","[1272.6000000014901]","1","0","4","","","","","","","",""
"pit-trial","84","663346","0.0-2.0-17.0-3.0","battery-v0.2","","""event"",""trial"",""time""
""fullscreenenter"",""1"",""1729""
","
","
","""event"",""trial"",""time""
""fullscreenenter"",""1"",""1729""
","
","","","480.3999999985099","","","22","13622","1454","&#9789;","elianto","#f73b6a7A"," "," ","1","-10","[1331.8999999985099]","1","0","4","","","","","","","",""
"pit-trial","85","666634","0.0-2.0-17.0-4.0","battery-v0.2","","""event"",""trial"",""time""
""fullscreenenter"",""1"",""1729""
","
","
","""event"",""trial"",""time""
""fullscreenenter"",""1"",""1729""
","
","","","432.79999999701977","","","22","13622","1454","&#9789;","elianto","#f73b6a7A"," "," ","1","0","[1284.1999999955297]","1","0","4","","","","","","","",""
"pit-trial","86","669949","0.0-2.0-17.1-0.1","battery-v0.2","","""event"",""trial"",""time""
""fullscreenenter"",""1"",""1729""
","
","
","""event"",""trial"",""time""
""fullscreenenter"",""1"",""1729""
","
","","","458.29999999701977","","","22","13622","1454","&#9789;","elianto","#f73b6a7A"," "," ","1","0","[1309.6999999955297]","1","0","4","","","","","","","",""
"pit-trial","87","673287","0.0-2.0-17.1-1.1","battery-v0.2","","""event"",""trial"",""time""
""fullscreenenter"",""1"",""1729""
","
","
","""event"",""trial"",""time""
""fullscreenenter"",""1"",""1729""
","
","","","481.6000000014901","","","22","13622","1454","&#9789;","elianto","#f73b6a7A"," "," ","1","0","[1333.7999999970198]","1","0","4","","","","","","","",""
"pit-trial","88","676582","0.0-2.0-17.1-2.1","battery-v0.2","","""event"",""trial"",""time""
""fullscreenenter"",""1"",""1729""
","
","
","""event"",""trial"",""time""
""fullscreenenter"",""1"",""1729""
","
","","","439.1000000014901","","","22","13622","1454","&#9789;","elianto","#f73b6a7A"," "," ","1","0","[1291]","1","0","4","","","","","","","",""
"pit-trial","89","679902","0.0-2.0-17.1-3.1","battery-v0.2","","""event"",""trial"",""time""
""fullscreenenter"",""1"",""1729""
","
","
","""event"",""trial"",""time""
""fullscreenenter"",""1"",""1729""
","
","","","464.80000000447035","","","22","13622","1454","&#9789;","elianto","#f73b6a7A"," "," ","1","-10","[1315.6000000014901]","1","0","4","","","","","","","",""
"pit-trial","90","683285","0.0-2.0-17.1-4.1","battery-v0.2","","""event"",""trial"",""time""
""fullscreenenter"",""1"",""1729""
","
","
","""event"",""trial"",""time""
""fullscreenenter"",""1"",""1729""
","
","","","527.2000000029802","","","22","13622","1454","&#9789;","elianto","#f73b6a7A"," "," ","1","0","[1378.7999999970198]","1","0","4","","","","","","","",""
"pit-trial","91","686611","0.0-2.0-17.2-0.2","battery-v0.2","","""event"",""trial"",""time""
""fullscreenenter"",""1"",""1729""
","
","
","""event"",""trial"",""time""
""fullscreenenter"",""1"",""1729""
","
","","","470.80000000447035","","","22","13622","1454","&#9789;","elianto","#f73b6a7A"," "," ","1","0","[1322]","1","0","4","","","","","","","",""
"pit-trial","92","689849","0.0-2.0-17.2-1.2","battery-v0.2","","""event"",""trial"",""time""
""fullscreenenter"",""1"",""1729""
","
","
","""event"",""trial"",""time""
""fullscreenenter"",""1"",""1729""
","
","","","382.70000000298023","","","22","13622","1454","&#9789;","elianto","#f73b6a7A"," "," ","1","0","[1234.4000000059605]","1","0","4","","","","","","","",""
"pit-trial","93","693158","0.0-2.0-17.2-2.2","battery-v0.2","","""event"",""trial"",""time""
""fullscreenenter"",""1"",""1729""
","
","
","""event"",""trial"",""time""
""fullscreenenter"",""1"",""1729""
","
","","","454.70000000298023","","","22","13622","1454","&#9789;","elianto","#f73b6a7A"," "," ","1","0","[1305.8000000044703]","1","0","4","","","","","","","",""
"pit-trial","94","696445","0.0-2.0-17.2-3.2","battery-v0.2","","""event"",""trial"",""time""
""fullscreenenter"",""1"",""1729""
","
","
","""event"",""trial"",""time""
""fullscreenenter"",""1"",""1729""
","
","","","433.19999999552965","","","22","13622","1454","&#9789;","elianto","#f73b6a7A"," "," ","1","-10","[1283.8999999985099]","1","0","4","","","","","","","",""
"pit-trial","95","699736","0.0-2.0-17.2-4.2","battery-v0.2","","""event"",""trial"",""time""
""fullscreenenter"",""1"",""1729""
","
","
","""event"",""trial"",""time""
""fullscreenenter"",""1"",""1729""
","
","","","436","","","22","13622","1454","&#9789;","elianto","#f73b6a7A"," "," ","1","0","[1287.2000000029802]","1","0","4","","","","","","","",""
"pit-trial","96","703105","0.0-2.0-17.3-0.3","battery-v0.2","","""event"",""trial"",""time""
""fullscreenenter"",""1"",""1729""
","
","
","""event"",""trial"",""time""
""fullscreenenter"",""1"",""1729""
","
","","","512.8000000044703","","","22","13622","1454","&#9789;","elianto","#f73b6a7A"," "," ","1","0","[1365]","1","0","4","","","","","","","",""
"pit-trial","97","706446","0.0-2.0-17.3-1.3","battery-v0.2","","""event"",""trial"",""time""
""fullscreenenter"",""1"",""1729""
","
","
","""event"",""trial"",""time""
""fullscreenenter"",""1"",""1729""
","
","","","485.6000000014901","","","22","13622","1454","&#9789;","elianto","#f73b6a7A"," "," ","1","0","[1337]","1","0","4","","","","","","","",""
"pit-trial","98","709746","0.0-2.0-17.3-2.3","battery-v0.2","","""event"",""trial"",""time""
""fullscreenenter"",""1"",""1729""
","
","
","""event"",""trial"",""time""
""fullscreenenter"",""1"",""1729""
","
","","","446.29999999701977","","","22","13622","1454","&#9789;","elianto","#f73b6a7A"," "," ","1","0","[1297.0999999940395]","1","0","4","","","","","","","",""
"pit-trial","99","713025","0.0-2.0-17.3-3.3","battery-v0.2","","""event"",""trial"",""time""
""fullscreenenter"",""1"",""1729""
","
","
","""event"",""trial"",""time""
""fullscreenenter"",""1"",""1729""
","
","","","423.5","","","22","13622","1454","&#9789;","elianto","#f73b6a7A"," "," ","1","-10","[1274.7999999970198]","1","0","4","","","","","","","",""
"pit-trial","100","716523","0.0-2.0-17.3-4.3","battery-v0.2","","""event"",""trial"",""time""
""fullscreenenter"",""1"",""1729""
","
","
","""event"",""trial"",""time""
""fullscreenenter"",""1"",""1729""
","
","","","644.7000000029802","","","22","13622","1454","&#9789;","elianto","#f73b6a7A"," "," ","1","0","[1494.8000000044703]","1","0","4","","","","","","","",""
"call-function","101","716526","0.0-2.0-18.0","battery-v0.2","","""event"",""trial"",""time""
""fullscreenenter"",""1"",""1729""
","
","
","""event"",""trial"",""time""
""fullscreenenter"",""1"",""1729""
","
","","","","","","","","","","","","","","","","","","","","","","","","","","",""
"pit-instructions","102","778080","0.0-2.0-19.0","battery-v0.2","","""event"",""trial"",""time""
""fullscreenenter"",""1"",""1729""
","
","
","""event"",""trial"",""time""
""fullscreenenter"",""1"",""1729""
","
","","[{""page_index"":0,""viewing_time"":8280.30000000447},{""page_index"":1,""viewing_time"":5737},{""page_index"":2,""viewing_time"":15265.69999999553},{""page_index"":3,""viewing_time"":4535.70000000298},{""page_index"":4,""viewing_time"":6351.29999999702},{""page_index"":5,""viewing_time"":8147.30000000447},{""page_index"":6,""viewing_time"":4886.10000000149},{""page_index"":7,""viewing_time"":4551.0999999940395},{""page_index"":8,""viewing_time"":3797}]","61552","","","","","","","","","","","","","","","","","","","","","","","",""
"pit-comprehension","103","782419","0.0-2.0-20.0-0.0","battery-v0.2","","""event"",""trial"",""time""
""fullscreenenter"",""1"",""1729""
","
","
","""event"",""trial"",""time""
""fullscreenenter"",""1"",""1729""
","
","","","4332.80000000447","[""SPACE""]","0","22","13622","1454","","","","","","","","","","","","","","","","","","",""
"pit-instructions","104","785285","0.0-2.0-20.0-1.0","battery-v0.2","","""event"",""trial"",""time""
""fullscreenenter"",""1"",""1729""
","
","
","""event"",""trial"",""time""
""fullscreenenter"",""1"",""1729""
","
","","[{""page_index"":0,""viewing_time"":2830.39999999851}]","2830.7000000029802","","","","","","","","","","","","","","","","","","","","","","","",""
"pit-comprehension","105","790583","0.0-2.0-21.0-0.0","battery-v0.2","","""event"",""trial"",""time""
""fullscreenenter"",""1"",""1729""
","
","
","""event"",""trial"",""time""
""fullscreenenter"",""1"",""1729""
","
","","","5293.79999999702","[""10""]","0","22","13622","1454","","","","","","","","","","","","","","","","","","",""
"pit-instructions","106","792734","0.0-2.0-21.0-1.0","battery-v0.2","","""event"",""trial"",""time""
""fullscreenenter"",""1"",""1729""
","
","
","""event"",""trial"",""time""
""fullscreenenter"",""1"",""1729""
","
","","[{""page_index"":0,""viewing_time"":2114.10000000149}]","2114.5","","","","","","","","","","","","","","","","","","","","","","","",""
"pit-comprehension","107","799136","0.0-2.0-22.0-0.0","battery-v0.2","","""event"",""trial"",""time""
""fullscreenenter"",""1"",""1729""
","
","
","""event"",""trial"",""time""
""fullscreenenter"",""1"",""1729""
","
","","","6397.0999999940395","[""0""]","0","22","13622","1454","","","","","","","","","","","","","","","","","","",""
"pit-instructions","108","800952","0.0-2.0-22.0-1.0","battery-v0.2","","""event"",""trial"",""time""
""fullscreenenter"",""1"",""1729""
","
","
","""event"",""trial"",""time""
""fullscreenenter"",""1"",""1729""
","
","","[{""page_index"":0,""viewing_time"":1780.1000000014901}]","1780.5","","","","","","","","","","","","","","","","","","","","","","","",""
"pit-comprehension","109","809588","0.0-2.0-23.0-0.0","battery-v0.2","","""event"",""trial"",""time""
""fullscreenenter"",""1"",""1729""
","
","
","""event"",""trial"",""time""
""fullscreenenter"",""1"",""1729""
","
","","","8631.30000000447","[""True""]","0","22","13622","1454","","","","","","","","","","","","","","","","","","",""
"pit-instructions","110","813066","0.0-2.0-23.0-1.0","battery-v0.2","","""event"",""trial"",""time""
""fullscreenenter"",""1"",""1729""
","
","
","""event"",""trial"",""time""
""fullscreenenter"",""1"",""1729""
","
","","[{""page_index"":0,""viewing_time"":3443.10000000149}]","3443.39999999851","","","","","","","","","","","","","","","","","","","","","","","",""
"pit-comprehension","111","820384","0.0-2.0-24.0-0.0","battery-v0.2","","""event"",""trial"",""time""
""fullscreenenter"",""1"",""1729""
","
","
","""event"",""trial"",""time""
""fullscreenenter"",""1"",""1729""
","
","","","7314.5","[""True""]","0","22","13622","1454","","","","","","","","","","","","","","","","","","",""
"pit-instructions","112","821838","0.0-2.0-24.0-1.0","battery-v0.2","","""event"",""trial"",""time""
""fullscreenenter"",""1"",""1729""
","
","
","""event"",""trial"",""time""
""fullscreenenter"",""1"",""1729""
","
","","[{""page_index"":0,""viewing_time"":1420}]","1420.2999999970198","","","","","","","","","","","","","","","","","","","","","","","",""
"pit-comprehension","113","828405","0.0-2.0-25.0-0.0","battery-v0.2","","""event"",""trial"",""time""
""fullscreenenter"",""1"",""1729""
","
","
","""event"",""trial"",""time""
""fullscreenenter"",""1"",""1729""
","
","","","6563.39999999851","[""True""]","0","22","13622","1454","","","","","","","","","","","","","","","","","","",""
"pit-instructions","114","830456","0.0-2.0-25.0-1.0","battery-v0.2","","""event"",""trial"",""time""
""fullscreenenter"",""1"",""1729""
","
","
","""event"",""trial"",""time""
""fullscreenenter"",""1"",""1729""
","
","","[{""page_index"":0,""viewing_time"":2013.8999999985099}]","2014.3000000044703","","","","","","","","","","","","","","","","","","","","","","","",""
"pit-comprehension","115","834938","0.0-2.0-26.0-0.0","battery-v0.2","","""event"",""trial"",""time""
""fullscreenenter"",""1"",""1729""
","
","
","""event"",""trial"",""time""
""fullscreenenter"",""1"",""1729""
","
","","","4478.5","[""False""]","0","22","13622","1454","","","","","","","","","","","","","","","","","","",""
"pit-instructions","116","837436","0.0-2.0-26.0-1.0","battery-v0.2","","""event"",""trial"",""time""
""fullscreenenter"",""1"",""1729""
","
","
","""event"",""trial"",""time""
""fullscreenenter"",""1"",""1729""
","
","","[{""page_index"":0,""viewing_time"":2463}]","2463.10000000149","","","","","","","","","","","","","","","","","","","","","","","",""
"pit-instructions","117","854304","0.0-3.0","battery-v0.2","","""event"",""trial"",""time""
""fullscreenenter"",""1"",""1729""
","
","
","""event"",""trial"",""time""
""fullscreenenter"",""1"",""1729""
","
","","[{""page_index"":0,""viewing_time"":3531.39999999851},{""page_index"":1,""viewing_time"":5383.60000000149},{""page_index"":2,""viewing_time"":7950.5999999940395}]","16865.89999999851","","","","","","","","","","","","","","","","","","","","","","","",""
"pit-trial","118","858014","0.0-4.0","battery-v0.2","","""event"",""trial"",""time""
""fullscreenenter"",""1"",""1729""
","
","
","""event"",""trial"",""time""
""fullscreenenter"",""1"",""1729""
","
","","","848.8999999985099","","","22","13622","1454","&#9752;","elianto","#f73b6a7A"," "," ","1","0","[1700.1999999955297]","1","1","","","13622","1","3","3","lose","go","0"
"pit-trial","119","861840","0.0-5.0","battery-v0.2","","""event"",""trial"",""time""
""fullscreenenter"",""1"",""1729""
","
","
","""event"",""trial"",""time""
""fullscreenenter"",""1"",""1729""
","
","","","969.3999999985099","","","22","13622","1454","&#9730;","elianto","#3366ff99"," "," ","1","+10","[1821.2999999970198]","1","1","","","13622","2","1","1","win","go","0"
"pit-trial","120","866696","0.0-6.0","battery-v0.2","","""event"",""trial"",""time""
""fullscreenenter"",""1"",""1729""
","
","
","""event"",""trial"",""time""
""fullscreenenter"",""1"",""1729""
","
","","","-1","","","22","13622","1454","&#9733;","elianto","#3366ff99","-1","-1","1","+10","[]","0","1","","","13622","3","2","2","win","no-go","0"
"pit-trial","121","870247","0.0-7.0","battery-v0.2","","""event"",""trial"",""time""
""fullscreenenter"",""1"",""1729""
","
","
","""event"",""trial"",""time""
""fullscreenenter"",""1"",""1729""
","
","","","695.5","","","22","13622","1454","&#9728;","elianto","#f73b6a7A","-1"," ","0","-10","[1547]","1","1","","","13622","4","0","4","lose","no-go","0"
"pit-trial","122","875102","0.0-8.0","battery-v0.2","","""event"",""trial"",""time""
""fullscreenenter"",""1"",""1729""
","
","
","""event"",""trial"",""time""
""fullscreenenter"",""1"",""1729""
","
","","","-1","","","22","13622","1454","&#9733;","elianto","#3366ff99","-1","-1","1","+10","[]","0","1","","","13622","5","2","2","win","no-go","0"
"pit-trial","123","878542","0.0-9.0","battery-v0.2","","""event"",""trial"",""time""
""fullscreenenter"",""1"",""1729""
","
","
","""event"",""trial"",""time""
""fullscreenenter"",""1"",""1729""
","
","","","584.5","","","22","13622","1454","&#9752;","elianto","#f73b6a7A"," "," ","1","0","[1435.7999999970198]","1","1","","","13622","6","3","3","lose","go","0"
"pit-trial","124","882073","0.0-10.0","battery-v0.2","","""event"",""trial"",""time""
""fullscreenenter"",""1"",""1729""
","
","
","""event"",""trial"",""time""
""fullscreenenter"",""1"",""1729""
","
","","","676.4000000059605","","","22","13622","1454","&#9730;","elianto","#3366ff99"," "," ","1","+10","[1526.5]","1","1","","","13622","7","1","1","win","go","0"
"pit-trial","125","886134","0.0-11.0","battery-v0.2","","""event"",""trial"",""time""
""fullscreenenter"",""1"",""1729""
","
","
","""event"",""trial"",""time""
""fullscreenenter"",""1"",""1729""
","
","","","1206.5","","","22","13622","1454","&#9728;","elianto","#f73b6a7A","-1"," ","0","-10","[2057.7999999970198]","1","1","","","13622","8","0","4","lose","no-go","0"
"pit-trial","126","889640","0.0-12.0","battery-v0.2","","""event"",""trial"",""time""
""fullscreenenter"",""1"",""1729""
","
","
","""event"",""trial"",""time""
""fullscreenenter"",""1"",""1729""
","
","","","649.2000000029802","","","22","13622","1454","&#9752;","elianto","#f73b6a7A"," "," ","1","-10","[1500.7999999970198]","1","1","","","13622","9","3","3","lose","go","1"
"pit-trial","127","894494","0.0-13.0","battery-v0.2","","""event"",""trial"",""time""
""fullscreenenter"",""1"",""1729""
","
","
","""event"",""trial"",""time""
""fullscreenenter"",""1"",""1729""
","
","","","-1","","","22","13622","1454","&#9733;","elianto","#3366ff99","-1","-1","1","+10","[]","0","1","","","13622","10","2","2","win","no-go","0"
"pit-trial","128","899350","0.0-14.0","battery-v0.2","","""event"",""trial"",""time""
""fullscreenenter"",""1"",""1729""
","
","
","""event"",""trial"",""time""
""fullscreenenter"",""1"",""1729""
","
","","","-1","","","22","13622","1454","&#9728;","elianto","#f73b6a7A","-1","-1","1","-10","[]","0","1","","","13622","11","0","4","lose","no-go","1"
"pit-trial","129","902917","0.0-15.0","battery-v0.2","","""event"",""trial"",""time""
""fullscreenenter"",""1"",""1729""
","
","
","""event"",""trial"",""time""
""fullscreenenter"",""1"",""1729""
","
","","","712.6000000014901","","","22","13622","1454","&#9730;","elianto","#3366ff99"," "," ","1","0","[1563.7000000029802]","1","1","","","13622","12","1","1","win","go","1"
"pit-trial","130","907774","0.0-16.0","battery-v0.2","","""event"",""trial"",""time""
""fullscreenenter"",""1"",""1729""
","
","
","""event"",""trial"",""time""
""fullscreenenter"",""1"",""1729""
","
","","","-1","","","22","13622","1454","&#9733;","elianto","#3366ff99","-1","-1","1","+10","[]","0","1","","","13622","13","2","2","win","no-go","0"
"pit-trial","131","911593","0.0-17.0","battery-v0.2","","""event"",""trial"",""time""
""fullscreenenter"",""1"",""1729""
","
","
","""event"",""trial"",""time""
""fullscreenenter"",""1"",""1729""
","
","","","964.3999999985099","","","22","13622","1454","&#9752;","elianto","#f73b6a7A"," "," ","1","0","[1815.3000000044703]","1","1","","","13622","14","3","3","lose","go","0"
"pit-trial","132","915343","0.0-18.0","battery-v0.2","","""event"",""trial"",""time""
""fullscreenenter"",""1"",""1729""
","
","
","""event"",""trial"",""time""
""fullscreenenter"",""1"",""1729""
","
","","","894.6999999955297","","","22","13622","1454","&#9730;","elianto","#3366ff99"," "," ","1","+10","[1745.3999999985099]","1","1","","","13622","15","1","1","win","go","0"
"pit-trial","133","920198","0.0-19.0","battery-v0.2","","""event"",""trial"",""time""
""fullscreenenter"",""1"",""1729""
","
","
","""event"",""trial"",""time""
""fullscreenenter"",""1"",""1729""
","
","","","-1","","","22","13622","1454","&#9728;","elianto","#f73b6a7A","-1","-1","1","-10","[]","0","1","","","13622","16","0","4","lose","no-go","1"
"pit-trial","134","923905","0.0-20.0","battery-v0.2","","""event"",""trial"",""time""
""fullscreenenter"",""1"",""1729""
","
","
","""event"",""trial"",""time""
""fullscreenenter"",""1"",""1729""
","
","","","852.7000000029802","","","22","13622","1454","&#9730;","elianto","#3366ff99"," "," ","1","+10","[1704.1000000014901]","1","1","","","13622","17","1","1","win","go","0"
"pit-trial","135","928761","0.0-21.0","battery-v0.2","","""event"",""trial"",""time""
""fullscreenenter"",""1"",""1729""
","
","
","""event"",""trial"",""time""
""fullscreenenter"",""1"",""1729""
","
","","","-1","","","22","13622","1454","&#9733;","elianto","#3366ff99","-1","-1","1","+10","[]","0","1","","","13622","18","2","2","win","no-go","0"
"pit-trial","136","932383","0.0-22.0","battery-v0.2","","""event"",""trial"",""time""
""fullscreenenter"",""1"",""1729""
","
","
","""event"",""trial"",""time""
""fullscreenenter"",""1"",""1729""
","
","","","767.1000000014901","","","22","13622","1454","&#9752;","elianto","#f73b6a7A"," "," ","1","0","[1618.7999999970198]","1","1","","","13622","19","3","3","lose","go","0"
"pit-trial","137","936136","0.0-23.0","battery-v0.2","","""event"",""trial"",""time""
""fullscreenenter"",""1"",""1729""
","
","
","""event"",""trial"",""time""
""fullscreenenter"",""1"",""1729""
","
","","","898.4000000059605","","","22","13622","1454","&#9728;","elianto","#f73b6a7A","-1"," ","0","-10","[1748.8000000044703]","1","1","","","13622","20","0","4","lose","no-go","0"
"pit-instructions","138","949631","0.0-24.0","battery-v0.2","","""event"",""trial"",""time""
""fullscreenenter"",""1"",""1729""
","
","
","""event"",""trial"",""time""
""fullscreenenter"",""1"",""1729""
","
","","[{""page_index"":0,""viewing_time"":5860.5},{""page_index"":1,""viewing_time"":7631.0999999940395}]","13491.89999999851","","","","","","","","","","","","","","","","","","","","","","","",""
"pit-trial","139","953380","0.0-25.0","battery-v0.2","","""event"",""trial"",""time""
""fullscreenenter"",""1"",""1729""
","
","
","""event"",""trial"",""time""
""fullscreenenter"",""1"",""1729""
","
","","","891.3999999985099","","","22","13622","1454","y","elianto","#f73b6a7A","-1"," ","0","0","[1743.1000000014901]","1","2","","","13622","21","2","4","lose","no-go","1"
"pit-trial","140","957764","0.0-26.0","battery-v0.2","","""event"",""trial"",""time""
""fullscreenenter"",""1"",""1729""
","
","
","""event"",""trial"",""time""
""fullscreenenter"",""1"",""1729""
","
","","","1529.2000000029802","","","22","13622","1454","r","elianto","#3366ff99"," "," ","1","+10","[2380.4000000059605]","1","2","","","13622","22","1","1","win","go","0"
"pit-trial","141","962619","0.0-27.0","battery-v0.2","","""event"",""trial"",""time""
""fullscreenenter"",""1"",""1729""
","
","
","""event"",""trial"",""time""
""fullscreenenter"",""1"",""1729""
","
","","","-1","","","22","13622","1454","h","elianto","#f73b6a7A"," ","-1","0","0","[]","0","2","","","13622","23","3","3","lose","go","1"
"pit-trial","142","966424","0.0-28.0","battery-v0.2","","""event"",""trial"",""time""
""fullscreenenter"",""1"",""1729""
","
","
","""event"",""trial"",""time""
""fullscreenenter"",""1"",""1729""
","
","","","949.2999999970198","","","22","13622","1454","m","elianto","#f73b6a7A","-1"," ","0","-10","[1799.8999999985099]","1","2","","","13622","24","0","4","lose","no-go","0"
"pit-trial","143","970019","0.0-29.0","battery-v0.2","","""event"",""trial"",""time""
""fullscreenenter"",""1"",""1729""
","
","
","""event"",""trial"",""time""
""fullscreenenter"",""1"",""1729""
","
","","","738.7999999970198","","","22","13622","1454","y","elianto","#f73b6a7A","-1"," ","0","-10","[1590.9000000059605]","1","2","","","13622","25","2","4","lose","no-go","0"
"pit-trial","144","974874","0.0-30.0","battery-v0.2","","""event"",""trial"",""time""
""fullscreenenter"",""1"",""1729""
","
","
","""event"",""trial"",""time""
""fullscreenenter"",""1"",""1729""
","
","","","-1","","","22","13622","1454","m","elianto","#f73b6a7A","-1","-1","1","0","[]","0","2","","","13622","26","0","4","lose","no-go","0"
"pit-trial","145","978536","0.0-31.0","battery-v0.2","","""event"",""trial"",""time""
""fullscreenenter"",""1"",""1729""
","
","
","""event"",""trial"",""time""
""fullscreenenter"",""1"",""1729""
","
","","","807.0999999940395","","","22","13622","1454","r","elianto","#3366ff99"," "," ","1","+10","[1657.8999999985099]","1","2","","","13622","27","1","1","win","go","0"
"pit-trial","146","983392","0.0-32.0","battery-v0.2","","""event"",""trial"",""time""
""fullscreenenter"",""1"",""1729""
","
","
","""event"",""trial"",""time""
""fullscreenenter"",""1"",""1729""
","
","","","-1","","","22","13622","1454","h","elianto","#f73b6a7A"," ","-1","0","-10","[]","0","2","","","13622","28","3","3","lose","go","0"
"pit-trial","147","986951","0.0-33.0","battery-v0.2","","""event"",""trial"",""time""
""fullscreenenter"",""1"",""1729""
","
","
","""event"",""trial"",""time""
""fullscreenenter"",""1"",""1729""
","
","","","703.8000000044703","","","22","13622","1454","y","elianto","#f73b6a7A","-1"," ","0","-10","[1554.6000000014901]","1","2","","","13622","29","2","4","lose","no-go","0"
"pit-trial","148","991808","0.0-34.0","battery-v0.2","","""event"",""trial"",""time""
""fullscreenenter"",""1"",""1729""
","
","
","""event"",""trial"",""time""
""fullscreenenter"",""1"",""1729""
","
","","","-1","","","22","13622","1454","m","elianto","#f73b6a7A","-1","-1","1","0","[]","0","2","","","13622","30","0","4","lose","no-go","0"
"pit-trial","149","995533","0.0-35.0","battery-v0.2","","""event"",""trial"",""time""
""fullscreenenter"",""1"",""1729""
","
","
","""event"",""trial"",""time""
""fullscreenenter"",""1"",""1729""
","
","","","870.6000000014901","","","22","13622","1454","r","elianto","#3366ff99"," "," ","1","+10","[1721.3000000044703]","1","2","","","13622","31","1","1","win","go","0"
"pit-trial","150","1000389","0.0-36.0","battery-v0.2","","""event"",""trial"",""time""
""fullscreenenter"",""1"",""1729""
","
","
","""event"",""trial"",""time""
""fullscreenenter"",""1"",""1729""
","
","","","-1","","","22","13622","1454","h","elianto","#f73b6a7A"," ","-1","0","-10","[]","0","2","","","13622","32","3","3","lose","go","0"
"pit-trial","151","1004632","0.0-37.0","battery-v0.2","","""event"",""trial"",""time""
""fullscreenenter"",""1"",""1729""
","
","
","""event"",""trial"",""time""
""fullscreenenter"",""1"",""1729""
","
","","","1389.1000000014901","","","22","13622","1454","y","elianto","#f73b6a7A","-1"," ","0","-10","[2239.8000000044703]","1","2","","","13622","33","2","4","lose","no-go","0"
"pit-trial","152","1009487","0.0-38.0","battery-v0.2","","""event"",""trial"",""time""
""fullscreenenter"",""1"",""1729""
","
","
","""event"",""trial"",""time""
""fullscreenenter"",""1"",""1729""
","
","","","-1","","","22","13622","1454","m","elianto","#f73b6a7A","-1","-1","1","0","[]","0","2","","","13622","34","0","4","lose","no-go","0"
"pit-trial","153","1013259","0.0-39.0","battery-v0.2","","""event"",""trial"",""time""
""fullscreenenter"",""1"",""1729""
","
","
","""event"",""trial"",""time""
""fullscreenenter"",""1"",""1729""
","
","","","915.5","","","22","13622","1454","h","elianto","#f73b6a7A"," "," ","1","-10","[1767.1000000014901]","1","2","","","13622","35","3","3","lose","go","1"
"pit-trial","154","1016711","0.0-40.0","battery-v0.2","","""event"",""trial"",""time""
""fullscreenenter"",""1"",""1729""
","
","
","""event"",""trial"",""time""
""fullscreenenter"",""1"",""1729""
","
","","","596.2999999970198","","","22","13622","1454","r","elianto","#3366ff99"," "," ","1","0","[1447.1999999955297]","1","2","","","13622","36","1","1","win","go","1"
"pit-trial","155","1020237","0.0-41.0","battery-v0.2","","""event"",""trial"",""time""
""fullscreenenter"",""1"",""1729""
","
","
","""event"",""trial"",""time""
""fullscreenenter"",""1"",""1729""
","
","","","670.8000000044703","","","22","13622","1454","r","elianto","#3366ff99"," "," ","1","+10","[1521.3999999985099]","1","2","","","13622","37","1","1","win","go","0"
"pit-trial","156","1025091","0.0-42.0","battery-v0.2","","""event"",""trial"",""time""
""fullscreenenter"",""1"",""1729""
","
","
","""event"",""trial"",""time""
""fullscreenenter"",""1"",""1729""
","
","","","-1","","","22","13622","1454","m","elianto","#f73b6a7A","-1","-1","1","0","[]","0","2","","","13622","38","0","4","lose","no-go","0"
"pit-trial","157","1029947","0.0-43.0","battery-v0.2","","""event"",""trial"",""time""
""fullscreenenter"",""1"",""1729""
","
","
","""event"",""trial"",""time""
""fullscreenenter"",""1"",""1729""
","
","","","-1","","","22","13622","1454","y","elianto","#f73b6a7A","-1","-1","1","0","[]","0","2","","","13622","39","2","4","lose","no-go","0"
"pit-trial","158","1033547","0.0-44.0","battery-v0.2","","""event"",""trial"",""time""
""fullscreenenter"",""1"",""1729""
","
","
","""event"",""trial"",""time""
""fullscreenenter"",""1"",""1729""
","
","","","744","","","22","13622","1454","h","elianto","#f73b6a7A"," "," ","1","-10","[1595.3999999985099]","1","2","","","13622","40","3","3","lose","go","1"
"pit-trial","159","1038404","0.0-45.0","battery-v0.2","","""event"",""trial"",""time""
""fullscreenenter"",""1"",""1729""
","
","
","""event"",""trial"",""time""
""fullscreenenter"",""1"",""1729""
","
","","","-1","","","22","13622","1454","h","elianto","#f73b6a7A"," ","-1","0","-10","[]","0","2","","","13622","41","3","3","lose","go","0"
"pit-trial","160","1042371","0.0-46.0","battery-v0.2","","""event"",""trial"",""time""
""fullscreenenter"",""1"",""1729""
","
","
","""event"",""trial"",""time""
""fullscreenenter"",""1"",""1729""
","
","","","1111.3999999985099","","","22","13622","1454","r","elianto","#3366ff99"," "," ","1","+10","[1962.6000000014901]","1","2","","","13622","42","1","1","win","go","0"
"pit-trial","161","1047225","0.0-47.0","battery-v0.2","","""event"",""trial"",""time""
""fullscreenenter"",""1"",""1729""
","
","
","""event"",""trial"",""time""
""fullscreenenter"",""1"",""1729""
","
","","","-1","","","22","13622","1454","m","elianto","#f73b6a7A","-1","-1","1","0","[]","0","2","","","13622","43","0","4","lose","no-go","0"
"pit-trial","162","1052080","0.0-48.0","battery-v0.2","","""event"",""trial"",""time""
""fullscreenenter"",""1"",""1729""
","
","
","""event"",""trial"",""time""
""fullscreenenter"",""1"",""1729""
","
","","","-1","","","22","13622","1454","y","elianto","#f73b6a7A","-1","-1","1","0","[]","0","2","","","13622","44","2","4","lose","no-go","0"
"pit-trial","163","1056015","0.0-49.0","battery-v0.2","","""event"",""trial"",""time""
""fullscreenenter"",""1"",""1729""
","
","
","""event"",""trial"",""time""
""fullscreenenter"",""1"",""1729""
","
","","","1080.6000000014901","","","22","13622","1454","z","elianto","#3366ff99","-1"," ","0","0","[1931]","1","2","","","13622","45","4","2","win","no-go","0"
"pit-trial","164","1060870","0.0-50.0","battery-v0.2","","""event"",""trial"",""time""
""fullscreenenter"",""1"",""1729""
","
","
","""event"",""trial"",""time""
""fullscreenenter"",""1"",""1729""
","
","","","-1","","","22","13622","1454","m","elianto","#f73b6a7A","-1","-1","1","0","[]","0","2","","","13622","46","0","4","lose","no-go","0"
"pit-trial","165","1065726","0.0-51.0","battery-v0.2","","""event"",""trial"",""time""
""fullscreenenter"",""1"",""1729""
","
","
","""event"",""trial"",""time""
""fullscreenenter"",""1"",""1729""
","
","","","-1","","","22","13622","1454","y","elianto","#f73b6a7A","-1","-1","1","0","[]","0","2","","","13622","47","2","4","lose","no-go","0"
"pit-trial","166","1069365","0.0-52.0","battery-v0.2","","""event"",""trial"",""time""
""fullscreenenter"",""1"",""1729""
","
","
","""event"",""trial"",""time""
""fullscreenenter"",""1"",""1729""
","
","","","784.1000000014901","","","22","13622","1454","h","elianto","#f73b6a7A"," "," ","1","0","[1634.7000000029802]","1","2","","","13622","48","3","3","lose","go","0"
"pit-trial","167","1072909","0.0-53.0","battery-v0.2","","""event"",""trial"",""time""
""fullscreenenter"",""1"",""1729""
","
","
","""event"",""trial"",""time""
""fullscreenenter"",""1"",""1729""
","
","","","689.7000000029802","","","22","13622","1454","r","elianto","#3366ff99"," "," ","1","+10","[1540.3999999985099]","1","2","","","13622","49","1","1","win","go","0"
"pit-trial","168","1076547","0.0-54.0","battery-v0.2","","""event"",""trial"",""time""
""fullscreenenter"",""1"",""1729""
","
","
","""event"",""trial"",""time""
""fullscreenenter"",""1"",""1729""
","
","","","781.5","","","22","13622","1454","z","elianto","#3366ff99","-1"," ","0","0","[1633]","1","2","","","13622","50","4","2","win","no-go","0"
"pit-trial","169","1080961","0.0-55.0","battery-v0.2","","""event"",""trial"",""time""
""fullscreenenter"",""1"",""1729""
","
","
","""event"",""trial"",""time""
""fullscreenenter"",""1"",""1729""
","
","","","1559","","","22","13622","1454","h","elianto","#f73b6a7A"," "," ","1","-10","[2409.5]","1","2","","","13622","51","3","3","lose","go","1"
"pit-trial","170","1085815","0.0-56.0","battery-v0.2","","""event"",""trial"",""time""
""fullscreenenter"",""1"",""1729""
","
","
","""event"",""trial"",""time""
""fullscreenenter"",""1"",""1729""
","
","","","-1","","","22","13622","1454","m","elianto","#f73b6a7A","-1","-1","1","0","[]","0","2","","","13622","52","0","4","lose","no-go","0"
"pit-trial","171","1089333","0.0-57.0","battery-v0.2","","""event"",""trial"",""time""
""fullscreenenter"",""1"",""1729""
","
","
","""event"",""trial"",""time""
""fullscreenenter"",""1"",""1729""
","
","","","663.5","","","22","13622","1454","r","elianto","#3366ff99"," "," ","1","+10","[1514.5]","1","2","","","13622","53","1","1","win","go","0"
"pit-trial","172","1093065","0.0-58.0","battery-v0.2","","""event"",""trial"",""time""
""fullscreenenter"",""1"",""1729""
","
","
","""event"",""trial"",""time""
""fullscreenenter"",""1"",""1729""
","
","","","877.5","","","22","13622","1454","z","elianto","#3366ff99","-1"," ","0","0","[1727.8999999985099]","1","2","","","13622","54","4","2","win","no-go","0"
"pit-trial","173","1097920","0.0-59.0","battery-v0.2","","""event"",""trial"",""time""
""fullscreenenter"",""1"",""1729""
","
","
","""event"",""trial"",""time""
""fullscreenenter"",""1"",""1729""
","
","","","-1","","","22","13622","1454","m","elianto","#f73b6a7A","-1","-1","1","0","[]","0","2","","","13622","55","0","4","lose","no-go","0"
"pit-trial","174","1102779","0.0-60.0","battery-v0.2","","""event"",""trial"",""time""
""fullscreenenter"",""1"",""1729""
","
","
","""event"",""trial"",""time""
""fullscreenenter"",""1"",""1729""
","
","","","-1","","","22","13622","1454","y","elianto","#f73b6a7A","-1","-1","1","0","[]","0","2","","","13622","56","2","4","lose","no-go","0"
"pit-trial","175","1106403","0.0-61.0","battery-v0.2","","""event"",""trial"",""time""
""fullscreenenter"",""1"",""1729""
","
","
","""event"",""trial"",""time""
""fullscreenenter"",""1"",""1729""
","
","","","762.3000000044703","","","22","13622","1454","r","elianto","#3366ff99"," "," ","1","+10","[1614]","1","2","","","13622","57","1","1","win","go","0"
"pit-trial","176","1111263","0.0-62.0","battery-v0.2","","""event"",""trial"",""time""
""fullscreenenter"",""1"",""1729""
","
","
","""event"",""trial"",""time""
""fullscreenenter"",""1"",""1729""
","
","","","-1","","","22","13622","1454","m","elianto","#f73b6a7A","-1","-1","1","0","[]","0","2","","","13622","58","0","4","lose","no-go","0"
"pit-trial","177","1116120","0.0-63.0","battery-v0.2","","""event"",""trial"",""time""
""fullscreenenter"",""1"",""1729""
","
","
","""event"",""trial"",""time""
""fullscreenenter"",""1"",""1729""
","
","","","-1","","","22","13622","1454","z","elianto","#3366ff99","-1","-1","1","+10","[]","0","2","","","13622","59","4","2","win","no-go","0"
"pit-trial","178","1120210","0.0-64.0","battery-v0.2","","""event"",""trial"",""time""
""fullscreenenter"",""1"",""1729""
","
","
","""event"",""trial"",""time""
""fullscreenenter"",""1"",""1729""
","
","","","1232.6000000014901","","","22","13622","1454","h","elianto","#f73b6a7A"," "," ","1","-10","[2083.39999999851]","1","2","","","13622","60","3","3","lose","go","1"
"pit-trial","179","1125068","0.0-65.0","battery-v0.2","","""event"",""trial"",""time""
""fullscreenenter"",""1"",""1729""
","
","
","""event"",""trial"",""time""
""fullscreenenter"",""1"",""1729""
","
","","","-1","","","22","13622","1454","y","elianto","#f73b6a7A","-1","-1","1","-10","[]","0","2","","","13622","61","2","4","lose","no-go","1"
"pit-trial","180","1129925","0.0-66.0","battery-v0.2","","""event"",""trial"",""time""
""fullscreenenter"",""1"",""1729""
","
","
","""event"",""trial"",""time""
""fullscreenenter"",""1"",""1729""
","
","","","-1","","","22","13622","1454","z","elianto","#3366ff99","-1","-1","1","+10","[]","0","2","","","13622","62","4","2","win","no-go","0"
"pit-trial","181","1133331","0.0-67.0","battery-v0.2","","""event"",""trial"",""time""
""fullscreenenter"",""1"",""1729""
","
","
","""event"",""trial"",""time""
""fullscreenenter"",""1"",""1729""
","
","","","549.6000000014901","","","22","13622","1454","r","elianto","#3366ff99"," "," ","1","+10","[1400.1999999955297]","1","2","","","13622","63","1","1","win","go","0"
"pit-trial","182","1136938","0.0-68.0","battery-v0.2","","""event"",""trial"",""time""
""fullscreenenter"",""1"",""1729""
","
","
","""event"",""trial"",""time""
""fullscreenenter"",""1"",""1729""
","
","","","751.4000000059605","","","22","13622","1454","h","elianto","#f73b6a7A"," "," ","1","0","[1602.2000000029802]","1","2","","","13622","64","3","3","lose","go","0"
"pit-trial","183","1141793","0.0-69.0","battery-v0.2","","""event"",""trial"",""time""
""fullscreenenter"",""1"",""1729""
","
","
","""event"",""trial"",""time""
""fullscreenenter"",""1"",""1729""
","
","","","-1","","","22","13622","1454","z","elianto","#3366ff99","-1","-1","1","+10","[]","0","2","","","13622","65","4","2","win","no-go","0"
"pit-trial","184","1145523","0.0-70.0","battery-v0.2","","""event"",""trial"",""time""
""fullscreenenter"",""1"",""1729""
","
","
","""event"",""trial"",""time""
""fullscreenenter"",""1"",""1729""
","
","","","875.1999999955297","","","22","13622","1454","r","elianto","#3366ff99"," "," ","1","+10","[1725]","1","2","","","13622","66","1","1","win","go","0"
"pit-trial","185","1150142","0.0-71.0","battery-v0.2","","""event"",""trial"",""time""
""fullscreenenter"",""1"",""1729""
","
","
","""event"",""trial"",""time""
""fullscreenenter"",""1"",""1729""
","
","","","1762.8000000044703","","","22","13622","1454","h","elianto","#f73b6a7A"," "," ","1","0","[2614]","1","2","","","13622","67","3","3","lose","go","0"
"pit-trial","186","1154999","0.0-72.0","battery-v0.2","","""event"",""trial"",""time""
""fullscreenenter"",""1"",""1729""
","
","
","""event"",""trial"",""time""
""fullscreenenter"",""1"",""1729""
","
","","","-1","","","22","13622","1454","y","elianto","#f73b6a7A","-1","-1","1","0","[]","0","2","","","13622","68","2","4","lose","no-go","0"
"pit-trial","187","1158866","0.0-73.0","battery-v0.2","","""event"",""trial"",""time""
""fullscreenenter"",""1"",""1729""
","
","
","""event"",""trial"",""time""
""fullscreenenter"",""1"",""1729""
","
","","","1011.8999999985099","","","22","13622","1454","c","elianto","#3366ff99"," "," ","1","+10","[1862.5]","1","2","","","13622","69","5","1","win","go","0"
"pit-trial","188","1162679","0.0-74.0","battery-v0.2","","""event"",""trial"",""time""
""fullscreenenter"",""1"",""1729""
","
","
","""event"",""trial"",""time""
""fullscreenenter"",""1"",""1729""
","
","","","958.2000000029802","","","22","13622","1454","r","elianto","#3366ff99"," "," ","1","+10","[1808.8999999985099]","1","2","","","13622","70","1","1","win","go","0"
"pit-trial","189","1166748","0.0-75.0","battery-v0.2","","""event"",""trial"",""time""
""fullscreenenter"",""1"",""1729""
","
","
","""event"",""trial"",""time""
""fullscreenenter"",""1"",""1729""
","
","","","1213.7999999970198","","","22","13622","1454","h","elianto","#f73b6a7A"," "," ","1","-10","[2064.39999999851]","1","2","","","13622","71","3","3","lose","go","1"
"pit-trial","190","1171602","0.0-76.0","battery-v0.2","","""event"",""trial"",""time""
""fullscreenenter"",""1"",""1729""
","
","
","""event"",""trial"",""time""
""fullscreenenter"",""1"",""1729""
","
","","","-1","","","22","13622","1454","z","elianto","#3366ff99","-1","-1","1","0","[]","0","2","","","13622","72","4","2","win","no-go","1"
"pit-trial","191","1175741","0.0-77.0","battery-v0.2","","""event"",""trial"",""time""
""fullscreenenter"",""1"",""1729""
","
","
","""event"",""trial"",""time""
""fullscreenenter"",""1"",""1729""
","
","","","1283.6000000014901","","","22","13622","1454","h","elianto","#f73b6a7A"," "," ","1","0","[2134.39999999851]","1","2","","","13622","73","3","3","lose","go","0"
"pit-trial","192","1179344","0.0-78.0","battery-v0.2","","""event"",""trial"",""time""
""fullscreenenter"",""1"",""1729""
","
","
","""event"",""trial"",""time""
""fullscreenenter"",""1"",""1729""
","
","","","747.8999999985099","","","22","13622","1454","c","elianto","#3366ff99"," "," ","1","+10","[1599.1999999955297]","1","2","","","13622","74","5","1","win","go","0"
"pit-trial","193","1184200","0.0-79.0","battery-v0.2","","""event"",""trial"",""time""
""fullscreenenter"",""1"",""1729""
","
","
","""event"",""trial"",""time""
""fullscreenenter"",""1"",""1729""
","
","","","-1","","","22","13622","1454","z","elianto","#3366ff99","-1","-1","1","0","[]","0","2","","","13622","75","4","2","win","no-go","1"
"pit-trial","194","1187672","0.0-80.0","battery-v0.2","","""event"",""trial"",""time""
""fullscreenenter"",""1"",""1729""
","
","
","""event"",""trial"",""time""
""fullscreenenter"",""1"",""1729""
","
","","","616.2999999970198","","","22","13622","1454","r","elianto","#3366ff99"," "," ","1","+10","[1468.6000000014901]","1","2","","","13622","76","1","1","win","go","0"
"pit-trial","195","1192527","0.0-81.0","battery-v0.2","","""event"",""trial"",""time""
""fullscreenenter"",""1"",""1729""
","
","
","""event"",""trial"",""time""
""fullscreenenter"",""1"",""1729""
","
","","","-1","","","22","13622","1454","z","elianto","#3366ff99","-1","-1","1","+10","[]","0","2","","","13622","77","4","2","win","no-go","0"
"pit-trial","196","1196490","0.0-82.0","battery-v0.2","","""event"",""trial"",""time""
""fullscreenenter"",""1"",""1729""
","
","
","""event"",""trial"",""time""
""fullscreenenter"",""1"",""1729""
","
","","","1108.3000000044703","","","22","13622","1454","h","elianto","#f73b6a7A"," "," ","1","0","[1959.6000000014901]","1","2","","","13622","78","3","3","lose","go","0"
"pit-trial","197","1200439","0.0-83.0","battery-v0.2","","""event"",""trial"",""time""
""fullscreenenter"",""1"",""1729""
","
","
","""event"",""trial"",""time""
""fullscreenenter"",""1"",""1729""
","
","","","1093.8000000044703","","","22","13622","1454","b","elianto","#f73b6a7A","-1"," ","0","-10","[1944.5]","1","2","","","13622","79","6","4","lose","no-go","0"
"pit-trial","198","1204236","0.0-84.0","battery-v0.2","","""event"",""trial"",""time""
""fullscreenenter"",""1"",""1729""
","
","
","""event"",""trial"",""time""
""fullscreenenter"",""1"",""1729""
","
","","","941.7000000029802","","","22","13622","1454","c","elianto","#3366ff99"," "," ","1","+10","[1793.1000000014901]","1","2","","","13622","80","5","1","win","go","0"
"pit-trial","199","1207731","0.0-85.0","battery-v0.2","","""event"",""trial"",""time""
""fullscreenenter"",""1"",""1729""
","
","
","""event"",""trial"",""time""
""fullscreenenter"",""1"",""1729""
","
","","","637.7999999970198","","","22","13622","1454","c","elianto","#3366ff99"," "," ","1","0","[1492]","1","2","","","13622","81","5","1","win","go","1"
"pit-trial","200","1212587","0.0-86.0","battery-v0.2","","""event"",""trial"",""time""
""fullscreenenter"",""1"",""1729""
","
","
","""event"",""trial"",""time""
""fullscreenenter"",""1"",""1729""
","
","","","-1","","","22","13622","1454","z","elianto","#3366ff99","-1","-1","1","+10","[]","0","2","","","13622","82","4","2","win","no-go","0"
"pit-trial","201","1217442","0.0-87.0","battery-v0.2","","""event"",""trial"",""time""
""fullscreenenter"",""1"",""1729""
","
","
","""event"",""trial"",""time""
""fullscreenenter"",""1"",""1729""
","
","","","-1","","","22","13622","1454","b","elianto","#f73b6a7A","-1","-1","1","0","[]","0","2","","","13622","83","6","4","lose","no-go","0"
"pit-trial","202","1221877","0.0-88.0","battery-v0.2","","""event"",""trial"",""time""
""fullscreenenter"",""1"",""1729""
","
","
","""event"",""trial"",""time""
""fullscreenenter"",""1"",""1729""
","
","","","1580.8000000044703","","","22","13622","1454","t","elianto","#f73b6a7A"," "," ","1","0","[2431.8000000044703]","1","2","","","13622","84","7","3","lose","go","0"
"pit-trial","203","1226733","0.0-89.0","battery-v0.2","","""event"",""trial"",""time""
""fullscreenenter"",""1"",""1729""
","
","
","""event"",""trial"",""time""
""fullscreenenter"",""1"",""1729""
","
","","","-1","","","22","13622","1454","z","elianto","#3366ff99","-1","-1","1","+10","[]","0","2","","","13622","85","4","2","win","no-go","0"
"pit-trial","204","1230221","0.0-90.0","battery-v0.2","","""event"",""trial"",""time""
""fullscreenenter"",""1"",""1729""
","
","
","""event"",""trial"",""time""
""fullscreenenter"",""1"",""1729""
","
","","","632.1999999955297","","","22","13622","1454","c","elianto","#3366ff99"," "," ","1","+10","[1483.2999999970198]","1","2","","","13622","86","5","1","win","go","0"
"pit-trial","205","1233939","0.0-91.0","battery-v0.2","","""event"",""trial"",""time""
""fullscreenenter"",""1"",""1729""
","
","
","""event"",""trial"",""time""
""fullscreenenter"",""1"",""1729""
","
","","","863.2000000029802","","","22","13622","1454","t","elianto","#f73b6a7A"," "," ","1","0","[1714.2000000029802]","1","2","","","13622","87","7","3","lose","go","0"
"pit-trial","206","1238795","0.0-92.0","battery-v0.2","","""event"",""trial"",""time""
""fullscreenenter"",""1"",""1729""
","
","
","""event"",""trial"",""time""
""fullscreenenter"",""1"",""1729""
","
","","","-1","","","22","13622","1454","b","elianto","#f73b6a7A","-1","-1","1","-10","[]","0","2","","","13622","88","6","4","lose","no-go","1"
"pit-trial","207","1243650","0.0-93.0","battery-v0.2","","""event"",""trial"",""time""
""fullscreenenter"",""1"",""1729""
","
","
","""event"",""trial"",""time""
""fullscreenenter"",""1"",""1729""
","
","","","-1","","","22","13622","1454","z","elianto","#3366ff99","-1","-1","1","+10","[]","0","2","","","13622","89","4","2","win","no-go","0"
"pit-trial","208","1247357","0.0-94.0","battery-v0.2","","""event"",""trial"",""time""
""fullscreenenter"",""1"",""1729""
","
","
","""event"",""trial"",""time""
""fullscreenenter"",""1"",""1729""
","
","","","851.7999999970198","","","22","13622","1454","b","elianto","#f73b6a7A","-1"," ","0","-10","[1703.1000000014901]","1","2","","","13622","90","6","4","lose","no-go","0"
"pit-trial","209","1250962","0.0-95.0","battery-v0.2","","""event"",""trial"",""time""
""fullscreenenter"",""1"",""1729""
","
","
","""event"",""trial"",""time""
""fullscreenenter"",""1"",""1729""
","
","","","749","","","22","13622","1454","t","elianto","#f73b6a7A"," "," ","1","0","[1600.4000000059605]","1","2","","","13622","91","7","3","lose","go","0"
"pit-trial","210","1254356","0.0-96.0","battery-v0.2","","""event"",""trial"",""time""
""fullscreenenter"",""1"",""1729""
","
","
","""event"",""trial"",""time""
""fullscreenenter"",""1"",""1729""
","
","","","539.3000000044703","","","22","13622","1454","c","elianto","#3366ff99"," "," ","1","0","[1389.7999999970198]","1","2","","","13622","92","5","1","win","go","1"
"pit-trial","211","1257870","0.0-97.0","battery-v0.2","","""event"",""trial"",""time""
""fullscreenenter"",""1"",""1729""
","
","
","""event"",""trial"",""time""
""fullscreenenter"",""1"",""1729""
","
","","","659.8999999985099","","","22","13622","1454","b","elianto","#f73b6a7A","-1"," ","0","-10","[1510.1000000014901]","1","2","","","13622","93","6","4","lose","no-go","0"
"pit-trial","212","1261237","0.0-98.0","battery-v0.2","","""event"",""trial"",""time""
""fullscreenenter"",""1"",""1729""
","
","
","""event"",""trial"",""time""
""fullscreenenter"",""1"",""1729""
","
","","","512","","","22","13622","1454","c","elianto","#3366ff99"," "," ","1","+10","[1363]","1","2","","","13622","94","5","1","win","go","0"
"pit-trial","213","1264752","0.0-99.0","battery-v0.2","","""event"",""trial"",""time""
""fullscreenenter"",""1"",""1729""
","
","
","""event"",""trial"",""time""
""fullscreenenter"",""1"",""1729""
","
","","","659.8000000044703","","","22","13622","1454","t","elianto","#f73b6a7A"," "," ","1","0","[1511.5]","1","2","","","13622","95","7","3","lose","go","0"
"pit-trial","214","1268722","0.0-100.0","battery-v0.2","","""event"",""trial"",""time""
""fullscreenenter"",""1"",""1729""
","
","
","""event"",""trial"",""time""
""fullscreenenter"",""1"",""1729""
","
","","","1114.3000000044703","","","22","13622","1454","f","elianto","#3366ff99","-1"," ","0","0","[1965.8000000044703]","1","2","","","13622","96","8","2","win","no-go","0"
"pit-trial","215","1272478","0.0-101.0","battery-v0.2","","""event"",""trial"",""time""
""fullscreenenter"",""1"",""1729""
","
","
","""event"",""trial"",""time""
""fullscreenenter"",""1"",""1729""
","
","","","901.3999999985099","","","22","13622","1454","b","elianto","#f73b6a7A","-1"," ","0","-10","[1752]","1","2","","","13622","97","6","4","lose","no-go","0"
"pit-trial","216","1276585","0.0-102.0","battery-v0.2","","""event"",""trial"",""time""
""fullscreenenter"",""1"",""1729""
","
","
","""event"",""trial"",""time""
""fullscreenenter"",""1"",""1729""
","
","","","1253.5","","","22","13622","1454","t","elianto","#f73b6a7A"," "," ","1","0","[2103.7000000029802]","1","2","","","13622","98","7","3","lose","go","0"
"pit-trial","217","1280329","0.0-103.0","battery-v0.2","","""event"",""trial"",""time""
""fullscreenenter"",""1"",""1729""
","
","
","""event"",""trial"",""time""
""fullscreenenter"",""1"",""1729""
","
","","","889","","","22","13622","1454","c","elianto","#3366ff99"," "," ","1","+10","[1739.8000000044703]","1","2","","","13622","99","5","1","win","go","0"
"pit-trial","218","1285186","0.0-104.0","battery-v0.2","","""event"",""trial"",""time""
""fullscreenenter"",""1"",""1729""
","
","
","""event"",""trial"",""time""
""fullscreenenter"",""1"",""1729""
","
","","","-1","","","22","13622","1454","f","elianto","#3366ff99","-1","-1","1","+10","[]","0","2","","","13622","100","8","2","win","no-go","0"
"pit-trial","219","1289541","0.0-105.0","battery-v0.2","","""event"",""trial"",""time""
""fullscreenenter"",""1"",""1729""
","
","
","""event"",""trial"",""time""
""fullscreenenter"",""1"",""1729""
","
","","","1499.7000000029802","","","22","13622","1454","n","elianto","#3366ff99","-1"," ","0","0","[2351.5]","1","2","","","13622","101","9","2","win","no-go","0"
"pit-trial","220","1293066","0.0-106.0","battery-v0.2","","""event"",""trial"",""time""
""fullscreenenter"",""1"",""1729""
","
","
","""event"",""trial"",""time""
""fullscreenenter"",""1"",""1729""
","
","","","669.2999999970198","","","22","13622","1454","c","elianto","#3366ff99"," "," ","1","+10","[1520.3999999985099]","1","2","","","13622","102","5","1","win","go","0"
"pit-trial","221","1297922","0.0-107.0","battery-v0.2","","""event"",""trial"",""time""
""fullscreenenter"",""1"",""1729""
","
","
","""event"",""trial"",""time""
""fullscreenenter"",""1"",""1729""
","
","","","-1","","","22","13622","1454","b","elianto","#f73b6a7A","-1","-1","1","0","[]","0","2","","","13622","103","6","4","lose","no-go","0"
"pit-trial","222","1302077","0.0-108.0","battery-v0.2","","""event"",""trial"",""time""
""fullscreenenter"",""1"",""1729""
","
","
","""event"",""trial"",""time""
""fullscreenenter"",""1"",""1729""
","
","","","1302.1000000014901","","","22","13622","1454","f","elianto","#3366ff99","-1"," ","0","+10","[2152.60000000149]","1","2","","","13622","104","8","2","win","no-go","1"
"pit-trial","223","1306932","0.0-109.0","battery-v0.2","","""event"",""trial"",""time""
""fullscreenenter"",""1"",""1729""
","
","
","""event"",""trial"",""time""
""fullscreenenter"",""1"",""1729""
","
","","","-1","","","22","13622","1454","n","elianto","#3366ff99","-1","-1","1","+10","[]","0","2","","","13622","105","9","2","win","no-go","0"
"pit-trial","224","1310375","0.0-110.0","battery-v0.2","","""event"",""trial"",""time""
""fullscreenenter"",""1"",""1729""
","
","
","""event"",""trial"",""time""
""fullscreenenter"",""1"",""1729""
","
","","","588.3999999985099","","","22","13622","1454","c","elianto","#3366ff99"," "," ","1","+10","[1440.1000000014901]","1","2","","","13622","106","5","1","win","go","0"
"pit-trial","225","1315231","0.0-111.0","battery-v0.2","","""event"",""trial"",""time""
""fullscreenenter"",""1"",""1729""
","
","
","""event"",""trial"",""time""
""fullscreenenter"",""1"",""1729""
","
","","","-1","","","22","13622","1454","b","elianto","#f73b6a7A","-1","-1","1","0","[]","0","2","","","13622","107","6","4","lose","no-go","0"
"pit-trial","226","1318753","0.0-112.0","battery-v0.2","","""event"",""trial"",""time""
""fullscreenenter"",""1"",""1729""
","
","
","""event"",""trial"",""time""
""fullscreenenter"",""1"",""1729""
","
","","","667","","","22","13622","1454","f","elianto","#3366ff99","-1"," ","0","0","[1517.7000000029802]","1","2","","","13622","108","8","2","win","no-go","0"
"pit-trial","227","1322112","0.0-113.0","battery-v0.2","","""event"",""trial"",""time""
""fullscreenenter"",""1"",""1729""
","
","
","""event"",""trial"",""time""
""fullscreenenter"",""1"",""1729""
","
","","","504.5","","","22","13622","1454","c","elianto","#3366ff99"," "," ","1","+10","[1355.2999999970198]","1","2","","","13622","109","5","1","win","go","0"
"pit-trial","228","1325811","0.0-114.0","battery-v0.2","","""event"",""trial"",""time""
""fullscreenenter"",""1"",""1729""
","
","
","""event"",""trial"",""time""
""fullscreenenter"",""1"",""1729""
","
","","","845.6000000014901","","","22","13622","1454","f","elianto","#3366ff99","-1"," ","0","+10","[1696.1000000014901]","1","2","","","13622","110","8","2","win","no-go","1"
"pit-trial","229","1330667","0.0-115.0","battery-v0.2","","""event"",""trial"",""time""
""fullscreenenter"",""1"",""1729""
","
","
","""event"",""trial"",""time""
""fullscreenenter"",""1"",""1729""
","
","","","-1","","","22","13622","1454","n","elianto","#3366ff99","-1","-1","1","0","[]","0","2","","","13622","111","9","2","win","no-go","1"
"pit-trial","230","1335522","0.0-116.0","battery-v0.2","","""event"",""trial"",""time""
""fullscreenenter"",""1"",""1729""
","
","
","""event"",""trial"",""time""
""fullscreenenter"",""1"",""1729""
","
","","","-1","","","22","13622","1454","b","elianto","#f73b6a7A","-1","-1","1","0","[]","0","2","","","13622","112","6","4","lose","no-go","0"
"pit-trial","231","1338937","0.0-117.0","battery-v0.2","","""event"",""trial"",""time""
""fullscreenenter"",""1"",""1729""
","
","
","""event"",""trial"",""time""
""fullscreenenter"",""1"",""1729""
","
","","","560.3000000044703","","","22","13622","1454","c","elianto","#3366ff99"," "," ","1","+10","[1411.6000000014901]","1","2","","","13622","113","5","1","win","go","0"
"pit-trial","232","1343366","0.0-118.0","battery-v0.2","","""event"",""trial"",""time""
""fullscreenenter"",""1"",""1729""
","
","
","""event"",""trial"",""time""
""fullscreenenter"",""1"",""1729""
","
","","","1574.3999999985099","","","22","13622","1454","f","elianto","#3366ff99","-1"," ","0","0","[2426.2999999970198]","1","2","","","13622","114","8","2","win","no-go","0"
"pit-trial","233","1348222","0.0-119.0","battery-v0.2","","""event"",""trial"",""time""
""fullscreenenter"",""1"",""1729""
","
","
","""event"",""trial"",""time""
""fullscreenenter"",""1"",""1729""
","
","","","-1","","","22","13622","1454","n","elianto","#3366ff99","-1","-1","1","+10","[]","0","2","","","13622","115","9","2","win","no-go","0"
"pit-trial","234","1352348","0.0-120.0","battery-v0.2","","""event"",""trial"",""time""
""fullscreenenter"",""1"",""1729""
","
","
","""event"",""trial"",""time""
""fullscreenenter"",""1"",""1729""
","
","","","1271.8999999985099","","","22","13622","1454","t","elianto","#f73b6a7A"," "," ","1","-10","[2122.60000000149]","1","2","","","13622","116","7","3","lose","go","1"
"pit-trial","235","1357203","0.0-121.0","battery-v0.2","","""event"",""trial"",""time""
""fullscreenenter"",""1"",""1729""
","
","
","""event"",""trial"",""time""
""fullscreenenter"",""1"",""1729""
","
","","","-1","","","22","13622","1454","b","elianto","#f73b6a7A","-1","-1","1","-10","[]","0","2","","","13622","117","6","4","lose","no-go","1"
"pit-trial","236","1362058","0.0-122.0","battery-v0.2","","""event"",""trial"",""time""
""fullscreenenter"",""1"",""1729""
","
","
","""event"",""trial"",""time""
""fullscreenenter"",""1"",""1729""
","
","","","-1","","","22","13622","1454","n","elianto","#3366ff99","-1","-1","1","+10","[]","0","2","","","13622","118","9","2","win","no-go","0"
"pit-trial","237","1365870","0.0-123.0","battery-v0.2","","""event"",""trial"",""time""
""fullscreenenter"",""1"",""1729""
","
","
","""event"",""trial"",""time""
""fullscreenenter"",""1"",""1729""
","
","","","958.2999999970198","","","22","13622","1454","f","elianto","#3366ff99","-1"," ","0","0","[1808.6999999955297]","1","2","","","13622","119","8","2","win","no-go","0"
"pit-trial","238","1369386","0.0-124.0","battery-v0.2","","""event"",""trial"",""time""
""fullscreenenter"",""1"",""1729""
","
","
","""event"",""trial"",""time""
""fullscreenenter"",""1"",""1729""
","
","","","660.6000000014901","","","22","13622","1454","c","elianto","#3366ff99"," "," ","1","+10","[1511.6000000014901]","1","2","","","13622","120","5","1","win","go","0"
"pit-trial","239","1373336","0.0-125.0","battery-v0.2","","""event"",""trial"",""time""
""fullscreenenter"",""1"",""1729""
","
","
","""event"",""trial"",""time""
""fullscreenenter"",""1"",""1729""
","
","","","1093.8000000044703","","","22","13622","1454","t","elianto","#f73b6a7A"," "," ","1","0","[1945.9000000059605]","1","2","","","13622","121","7","3","lose","go","0"
"pit-trial","240","1376821","0.0-126.0","battery-v0.2","","""event"",""trial"",""time""
""fullscreenenter"",""1"",""1729""
","
","
","""event"",""trial"",""time""
""fullscreenenter"",""1"",""1729""
","
","","","629.8999999985099","","","22","13622","1454","c","elianto","#3366ff99"," "," ","1","+10","[1480.1999999955297]","1","2","","","13622","122","5","1","win","go","0"
"pit-trial","241","1381676","0.0-127.0","battery-v0.2","","""event"",""trial"",""time""
""fullscreenenter"",""1"",""1729""
","
","
","""event"",""trial"",""time""
""fullscreenenter"",""1"",""1729""
","
","","","-1","","","22","13622","1454","n","elianto","#3366ff99","-1","-1","1","+10","[]","0","2","","","13622","123","9","2","win","no-go","0"
"pit-trial","242","1385684","0.0-128.0","battery-v0.2","","""event"",""trial"",""time""
""fullscreenenter"",""1"",""1729""
","
","
","""event"",""trial"",""time""
""fullscreenenter"",""1"",""1729""
","
","","","1152.1000000014901","","","22","13622","1454","f","elianto","#3366ff99","-1"," ","0","0","[2003.0999999940395]","1","2","","","13622","124","8","2","win","no-go","0"
"pit-trial","243","1389509","0.0-129.0","battery-v0.2","","""event"",""trial"",""time""
""fullscreenenter"",""1"",""1729""
","
","
","""event"",""trial"",""time""
""fullscreenenter"",""1"",""1729""
","
","","","971","","","22","13622","1454","t","elianto","#f73b6a7A"," "," ","1","0","[1821.2000000029802]","1","2","","","13622","125","7","3","lose","go","0"
"pit-trial","244","1394363","0.0-130.0","battery-v0.2","","""event"",""trial"",""time""
""fullscreenenter"",""1"",""1729""
","
","
","""event"",""trial"",""time""
""fullscreenenter"",""1"",""1729""
","
","","","-1","","","22","13622","1454","n","elianto","#3366ff99","-1","-1","1","+10","[]","0","2","","","13622","126","9","2","win","no-go","0"
"pit-trial","245","1399218","0.0-131.0","battery-v0.2","","""event"",""trial"",""time""
""fullscreenenter"",""1"",""1729""
","
","
","""event"",""trial"",""time""
""fullscreenenter"",""1"",""1729""
","
","","","-1","","","22","13622","1454","f","elianto","#3366ff99","-1","-1","1","0","[]","0","2","","","13622","127","8","2","win","no-go","1"
"pit-trial","246","1404074","0.0-132.0","battery-v0.2","","""event"",""trial"",""time""
""fullscreenenter"",""1"",""1729""
","
","
","""event"",""trial"",""time""
""fullscreenenter"",""1"",""1729""
","
","","","-1","","","22","13622","1454","b","elianto","#f73b6a7A","-1","-1","1","0","[]","0","2","","","13622","128","6","4","lose","no-go","0"
"pit-trial","247","1408928","0.0-133.0","battery-v0.2","","""event"",""trial"",""time""
""fullscreenenter"",""1"",""1729""
","
","
","""event"",""trial"",""time""
""fullscreenenter"",""1"",""1729""
","
","","","-1","","","22","13622","1454","f","elianto","#3366ff99","-1","-1","1","+10","[]","0","2","","","13622","129","8","2","win","no-go","0"
"pit-trial","248","1413782","0.0-134.0","battery-v0.2","","""event"",""trial"",""time""
""fullscreenenter"",""1"",""1729""
","
","
","""event"",""trial"",""time""
""fullscreenenter"",""1"",""1729""
","
","","","-1","","","22","13622","1454","n","elianto","#3366ff99","-1","-1","1","+10","[]","0","2","","","13622","130","9","2","win","no-go","0"
"pit-trial","249","1418637","0.0-135.0","battery-v0.2","","""event"",""trial"",""time""
""fullscreenenter"",""1"",""1729""
","
","
","""event"",""trial"",""time""
""fullscreenenter"",""1"",""1729""
","
","","","-1","","","22","13622","1454","t","elianto","#f73b6a7A"," ","-1","0","-10","[]","0","2","","","13622","131","7","3","lose","go","0"
"pit-trial","250","1423493","0.0-136.0","battery-v0.2","","""event"",""trial"",""time""
""fullscreenenter"",""1"",""1729""
","
","
","""event"",""trial"",""time""
""fullscreenenter"",""1"",""1729""
","
","","","-1","","","22","13622","1454","b","elianto","#f73b6a7A","-1","-1","1","0","[]","0","2","","","13622","132","6","4","lose","no-go","0"
"pit-trial","251","1427036","0.0-137.0","battery-v0.2","","""event"",""trial"",""time""
""fullscreenenter"",""1"",""1729""
","
","
","""event"",""trial"",""time""
""fullscreenenter"",""1"",""1729""
","
","","","689.1999999955297","","","22","13622","1454","t","elianto","#f73b6a7A"," "," ","1","0","[1540.0999999940395]","1","2","","","13622","133","7","3","lose","go","0"
"pit-trial","252","1431892","0.0-138.0","battery-v0.2","","""event"",""trial"",""time""
""fullscreenenter"",""1"",""1729""
","
","
","""event"",""trial"",""time""
""fullscreenenter"",""1"",""1729""
","
","","","-1","","","22","13622","1454","n","elianto","#3366ff99","-1","-1","1","+10","[]","0","2","","","13622","134","9","2","win","no-go","0"
"pit-trial","253","1436747","0.0-139.0","battery-v0.2","","""event"",""trial"",""time""
""fullscreenenter"",""1"",""1729""
","
","
","""event"",""trial"",""time""
""fullscreenenter"",""1"",""1729""
","
","","","-1","","","22","13622","1454","f","elianto","#3366ff99","-1","-1","1","+10","[]","0","2","","","13622","135","8","2","win","no-go","0"
"pit-trial","254","1441601","0.0-140.0","battery-v0.2","","""event"",""trial"",""time""
""fullscreenenter"",""1"",""1729""
","
","
","""event"",""trial"",""time""
""fullscreenenter"",""1"",""1729""
","
","","","-1","","","22","13622","1454","b","elianto","#f73b6a7A","-1","-1","1","0","[]","0","2","","","13622","136","6","4","lose","no-go","0"
"pit-trial","255","1446457","0.0-141.0","battery-v0.2","","""event"",""trial"",""time""
""fullscreenenter"",""1"",""1729""
","
","
","""event"",""trial"",""time""
""fullscreenenter"",""1"",""1729""
","
","","","-1","","","22","13622","1454","f","elianto","#3366ff99","-1","-1","1","+10","[]","0","2","","","13622","137","8","2","win","no-go","0"
"pit-trial","256","1450270","0.0-142.0","battery-v0.2","","""event"",""trial"",""time""
""fullscreenenter"",""1"",""1729""
","
","
","""event"",""trial"",""time""
""fullscreenenter"",""1"",""1729""
","
","","","958.1000000014901","","","22","13622","1454","t","elianto","#f73b6a7A"," "," ","1","0","[1809]","1","2","","","13622","138","7","3","lose","go","0"
"pit-trial","257","1455125","0.0-143.0","battery-v0.2","","""event"",""trial"",""time""
""fullscreenenter"",""1"",""1729""
","
","
","""event"",""trial"",""time""
""fullscreenenter"",""1"",""1729""
","
","","","-1","","","22","13622","1454","n","elianto","#3366ff99","-1","-1","1","0","[]","0","2","","","13622","139","9","2","win","no-go","1"
"pit-trial","258","1459980","0.0-144.0","battery-v0.2","","""event"",""trial"",""time""
""fullscreenenter"",""1"",""1729""
","
","
","""event"",""trial"",""time""
""fullscreenenter"",""1"",""1729""
","
","","","-1","","","22","13622","1454","b","elianto","#f73b6a7A","-1","-1","1","0","[]","0","2","","","13622","140","6","4","lose","no-go","0"
"pit-instructions","259","1474197","0.0-145.0","battery-v0.2","","""event"",""trial"",""time""
""fullscreenenter"",""1"",""1729""
","
","
","""event"",""trial"",""time""
""fullscreenenter"",""1"",""1729""
","
","","[{""page_index"":0,""viewing_time"":5595.39999999851},{""page_index"":1,""viewing_time"":8618.29999999702}]","14214.19999999553","","","","","","","","","","","","","","","","","","","","","","","",""
"pit-trial","260","1477831","0.0-146.0","battery-v0.2","","""event"",""trial"",""time""
""fullscreenenter"",""1"",""1729""
","
","
","""event"",""trial"",""time""
""fullscreenenter"",""1"",""1729""
","
","","","773.6999999955297","","","22","13622","1454","a","elianto","#f73b6a7A"," "," ","1","-10","[1624.6999999955297]","1","3","","","13622","141","2","3","lose","go","1"
"pit-trial","261","1481620","0.0-147.0","battery-v0.2","","""event"",""trial"",""time""
""fullscreenenter"",""1"",""1729""
","
","
","""event"",""trial"",""time""
""fullscreenenter"",""1"",""1729""
","
","","","935.1000000014901","","","22","13622","1454","l","elianto","#3366ff99","-1"," ","0","0","[1785.7999999970198]","1","3","","","13622","142","1","2","win","no-go","0"
"pit-trial","262","1485039","0.0-148.0","battery-v0.2","","""event"",""trial"",""time""
""fullscreenenter"",""1"",""1729""
","
","
","""event"",""trial"",""time""
""fullscreenenter"",""1"",""1729""
","
","","","563.5","","","22","13622","1454","g","elianto","#f73b6a7A","-1"," ","0","0","[1414.6000000014901]","1","3","","","13622","143","3","4","lose","no-go","1"
"pit-trial","263","1488654","0.0-149.0","battery-v0.2","","""event"",""trial"",""time""
""fullscreenenter"",""1"",""1729""
","
","
","""event"",""trial"",""time""
""fullscreenenter"",""1"",""1729""
","
","","","759.1000000014901","","","22","13622","1454","u","elianto","#f73b6a7A"," "," ","1","0","[1610.2999999970198]","1","3","","","13622","144","0","3","lose","go","0"
"pit-trial","264","1492063","0.0-150.0","battery-v0.2","","""event"",""trial"",""time""
""fullscreenenter"",""1"",""1729""
","
","
","""event"",""trial"",""time""
""fullscreenenter"",""1"",""1729""
","
","","","554.8999999985099","","","22","13622","1454","a","elianto","#f73b6a7A"," "," ","1","0","[1406.0999999940395]","1","3","","","13622","145","2","3","lose","go","0"
"pit-trial","265","1496919","0.0-151.0","battery-v0.2","","""event"",""trial"",""time""
""fullscreenenter"",""1"",""1729""
","
","
","""event"",""trial"",""time""
""fullscreenenter"",""1"",""1729""
","
","","","-1","","","22","13622","1454","l","elianto","#3366ff99","-1","-1","1","+10","[]","0","3","","","13622","146","1","2","win","no-go","0"
"pit-trial","266","1500553","0.0-152.0","battery-v0.2","","""event"",""trial"",""time""
""fullscreenenter"",""1"",""1729""
","
","
","""event"",""trial"",""time""
""fullscreenenter"",""1"",""1729""
","
