"trial_type","trial_index","time_elapsed","internal_node_id","task_version","subject_id","interactions","blur_events","focus_events","fullscreenenter_events","fullscreenexit_events","success","view_history","rt","responses","num_errors","age","subject","participantId","rune","rune_set","hex","correct","choice","accuracy","outcome","keys","total_keys","block","practice","value","sub","trial","stimulus","robot","valence","action","sham"
"pavlovia","0","8","0.0-0.0","battery-v0.2","","""event"",""trial"",""time""
""fullscreenenter"",""1"",""1434""
","
","
","""event"",""trial"",""time""
""fullscreenenter"",""1"",""1434""
","
","","","","","","","","","","","","","","","","","","","","","","","","","","",""
"fullscreen","1","2428","0.0-1.0","battery-v0.2","","""event"",""trial"",""time""
""fullscreenenter"",""1"",""1434""
","
","
","""event"",""trial"",""time""
""fullscreenenter"",""1"",""1434""
","
","true","","","","","","","","","","","","","","","","","","","","","","","","","",""
"pit-instructions","2","7062","0.0-2.0-0.0","battery-v0.2","","""event"",""trial"",""time""
""fullscreenenter"",""1"",""1434""
","
","
","""event"",""trial"",""time""
""fullscreenenter"",""1"",""1434""
","
","","[{""page_index"":0,""viewing_time"":4629.10000000149}]","4629.39999999851","","","","","","","","","","","","","","","","","","","","","","","",""
"pit-comprehension","3","9679","0.0-2.0-1.0-0.0","battery-v0.2","","""event"",""trial"",""time""
""fullscreenenter"",""1"",""1434""
","
","
","""event"",""trial"",""time""
""fullscreenenter"",""1"",""1434""
","
","","","2612.39999999851","[""shark""]","0","22","5219","465","","","","","","","","","","","","","","","","","","",""
"pit-instructions","4","11226","0.0-2.0-1.0-1.0","battery-v0.2","","""event"",""trial"",""time""
""fullscreenenter"",""1"",""1434""
","
","
","""event"",""trial"",""time""
""fullscreenenter"",""1"",""1434""
","
","","[{""page_index"":0,""viewing_time"":1528}]","1528.2999999970198","","","","","","","","","","","","","","","","","","","","","","","",""
"pit-comprehension","5","13509","0.0-2.0-2.0-0.0","battery-v0.2","","""event"",""trial"",""time""
""fullscreenenter"",""1"",""1434""
""blur"",""6"",""13764""
""focus"",""6"",""14629""
","""event"",""trial"",""time""
""blur"",""6"",""13764""
","""event"",""trial"",""time""
""focus"",""6"",""14629""
","""event"",""trial"",""time""
""fullscreenenter"",""1"",""1434""
","
","","","2277.60000000149","[""tiger""]","0","22","5219","465","","","","","","","","","","","","","","","","","","",""
"pit-instructions","6","16147","0.0-2.0-2.0-1.0","battery-v0.2","","""event"",""trial"",""time""
""fullscreenenter"",""1"",""1434""
""blur"",""6"",""13764""
""focus"",""6"",""14629""
","""event"",""trial"",""time""
""blur"",""6"",""13764""
","""event"",""trial"",""time""
""focus"",""6"",""14629""
","""event"",""trial"",""time""
""fullscreenenter"",""1"",""1434""
","
","","[{""page_index"":0,""viewing_time"":2633.89999999851}]","2634.1999999955297","","","","","","","","","","","","","","","","","","","","","","","",""
"pit-instructions","7","123103","0.0-2.0-3.0","battery-v0.2","","""event"",""trial"",""time""
""fullscreenenter"",""1"",""1434""
""blur"",""6"",""13764""
""focus"",""6"",""14629""
","""event"",""trial"",""time""
""blur"",""6"",""13764""
","""event"",""trial"",""time""
""focus"",""6"",""14629""
","""event"",""trial"",""time""
""fullscreenenter"",""1"",""1434""
","
","","[{""page_index"":0,""viewing_time"":8005.30000000447},{""page_index"":1,""viewing_time"":5996.5},{""page_index"":2,""viewing_time"":7087.79999999702},{""page_index"":3,""viewing_time"":5156},{""page_index"":4,""viewing_time"":6352.29999999702},{""page_index"":5,""viewing_time"":5967.20000000298},{""page_index"":6,""viewing_time"":7313.29999999702},{""page_index"":7,""viewing_time"":8575.10000000149},{""page_index"":8,""viewing_time"":8512},{""page_index"":9,""viewing_time"":14773.20000000298},{""page_index"":10,""viewing_time"":8027.60000000149},{""page_index"":11,""viewing_time"":8934.59999999404},{""page_index"":12,""viewing_time"":6718.10000000149},{""page_index"":13,""viewing_time"":5532}]","106951.39999999851","","","","","","","","","","","","","","","","","","","","","","","",""
"pit-trial","8","126540","0.0-2.0-4.0-0.0","battery-v0.2","","""event"",""trial"",""time""
""fullscreenenter"",""1"",""1434""
""blur"",""6"",""13764""
""focus"",""6"",""14629""
","""event"",""trial"",""time""
""blur"",""6"",""13764""
","""event"",""trial"",""time""
""focus"",""6"",""14629""
","""event"",""trial"",""time""
""fullscreenenter"",""1"",""1434""
","
","","","572.2999999970198","","","22","5219","465","&#9784;","elianto","#FFFFF080"," "," ","1","&#10004","[1423.6000000014901]","1","0","0","","","","","","","",""
"pit-trial","9","129981","0.0-2.0-4.1-0.1","battery-v0.2","","""event"",""trial"",""time""
""fullscreenenter"",""1"",""1434""
""blur"",""6"",""13764""
""focus"",""6"",""14629""
","""event"",""trial"",""time""
""blur"",""6"",""13764""
","""event"",""trial"",""time""
""focus"",""6"",""14629""
","""event"",""trial"",""time""
""fullscreenenter"",""1"",""1434""
","
","","","574.5999999940395","","","22","5219","465","&#9784;","elianto","#FFFFF080"," "," ","1","&#10004","[1428]","1","0","0","","","","","","","",""
"pit-trial","10","133647","0.0-2.0-4.2-0.2","battery-v0.2","","""event"",""trial"",""time""
""fullscreenenter"",""1"",""1434""
""blur"",""6"",""13764""
""focus"",""6"",""14629""
","""event"",""trial"",""time""
""blur"",""6"",""13764""
","""event"",""trial"",""time""
""focus"",""6"",""14629""
","""event"",""trial"",""time""
""fullscreenenter"",""1"",""1434""
","
","","","802.7000000029802","","","22","5219","465","&#9784;","elianto","#FFFFF080"," "," ","1","&#10004","[1652.8999999985099]","1","0","0","","","","","","","",""
"pit-trial","11","136998","0.0-2.0-4.3-0.3","battery-v0.2","","""event"",""trial"",""time""
""fullscreenenter"",""1"",""1434""
""blur"",""6"",""13764""
""focus"",""6"",""14629""
","""event"",""trial"",""time""
""blur"",""6"",""13764""
","""event"",""trial"",""time""
""focus"",""6"",""14629""
","""event"",""trial"",""time""
""fullscreenenter"",""1"",""1434""
","
","","","472.79999999701977","","","22","5219","465","&#9784;","elianto","#FFFFF080"," "," ","1","&#10004","[1327]","1","0","0","","","","","","","",""
"pit-trial","12","140303","0.0-2.0-4.4-0.4","battery-v0.2","","""event"",""trial"",""time""
""fullscreenenter"",""1"",""1434""
""blur"",""6"",""13764""
""focus"",""6"",""14629""
","""event"",""trial"",""time""
""blur"",""6"",""13764""
","""event"",""trial"",""time""
""focus"",""6"",""14629""
","""event"",""trial"",""time""
""fullscreenenter"",""1"",""1434""
","
","","","437.30000000447035","","","22","5219","465","&#9784;","elianto","#FFFFF080"," "," ","1","&#10004","[1293]","1","0","0","","","","","","","",""
"pit-instructions","13","170696","0.0-2.0-5.0","battery-v0.2","","""event"",""trial"",""time""
""fullscreenenter"",""1"",""1434""
""blur"",""6"",""13764""
""focus"",""6"",""14629""
","""event"",""trial"",""time""
""blur"",""6"",""13764""
","""event"",""trial"",""time""
""focus"",""6"",""14629""
","""event"",""trial"",""time""
""fullscreenenter"",""1"",""1434""
","
","","[{""page_index"":0,""viewing_time"":8289.19999999553},{""page_index"":1,""viewing_time"":5673.60000000149},{""page_index"":2,""viewing_time"":4871.80000000447},{""page_index"":3,""viewing_time"":11553.39999999851}]","30388.39999999851","","","","","","","","","","","","","","","","","","","","","","","",""
"pit-trial","14","175570","0.0-2.0-6.0-0.0","battery-v0.2","","""event"",""trial"",""time""
""fullscreenenter"",""1"",""1434""
""blur"",""6"",""13764""
""focus"",""6"",""14629""
","""event"",""trial"",""time""
""blur"",""6"",""13764""
","""event"",""trial"",""time""
""focus"",""6"",""14629""
","""event"",""trial"",""time""
""fullscreenenter"",""1"",""1434""
","
","","","-1","","","22","5219","465","&#9854;","elianto","#FFFFF080","-1","-1","1","&#10004","[]","0","0","1","","","","","","","",""
"pit-trial","15","180436","0.0-2.0-6.1-0.1","battery-v0.2","","""event"",""trial"",""time""
""fullscreenenter"",""1"",""1434""
""blur"",""6"",""13764""
""focus"",""6"",""14629""
","""event"",""trial"",""time""
""blur"",""6"",""13764""
","""event"",""trial"",""time""
""focus"",""6"",""14629""
","""event"",""trial"",""time""
""fullscreenenter"",""1"",""1434""
","
","","","-1","","","22","5219","465","&#9854;","elianto","#FFFFF080","-1","-1","1","&#10004","[]","0","0","1","","","","","","","",""
"pit-trial","16","185310","0.0-2.0-6.2-0.2","battery-v0.2","","""event"",""trial"",""time""
""fullscreenenter"",""1"",""1434""
""blur"",""6"",""13764""
""focus"",""6"",""14629""
","""event"",""trial"",""time""
""blur"",""6"",""13764""
","""event"",""trial"",""time""
""focus"",""6"",""14629""
","""event"",""trial"",""time""
""fullscreenenter"",""1"",""1434""
","
","","","-1","","","22","5219","465","&#9854;","elianto","#FFFFF080","-1","-1","1","&#10004","[]","0","0","1","","","","","","","",""
"pit-trial","17","190192","0.0-2.0-6.3-0.3","battery-v0.2","","""event"",""trial"",""time""
""fullscreenenter"",""1"",""1434""
""blur"",""6"",""13764""
""focus"",""6"",""14629""
","""event"",""trial"",""time""
""blur"",""6"",""13764""
","""event"",""trial"",""time""
""focus"",""6"",""14629""
","""event"",""trial"",""time""
""fullscreenenter"",""1"",""1434""
","
","","","-1","","","22","5219","465","&#9854;","elianto","#FFFFF080","-1","-1","1","&#10004","[]","0","0","1","","","","","","","",""
"pit-trial","18","195071","0.0-2.0-6.4-0.4","battery-v0.2","","""event"",""trial"",""time""
""fullscreenenter"",""1"",""1434""
""blur"",""6"",""13764""
""focus"",""6"",""14629""
","""event"",""trial"",""time""
""blur"",""6"",""13764""
","""event"",""trial"",""time""
""focus"",""6"",""14629""
","""event"",""trial"",""time""
""fullscreenenter"",""1"",""1434""
","
","","","-1","","","22","5219","465","&#9854;","elianto","#FFFFF080","-1","-1","1","&#10004","[]","0","0","1","","","","","","","",""
"pit-instructions","19","325909","0.0-2.0-7.0","battery-v0.2","","""event"",""trial"",""time""
""fullscreenenter"",""1"",""1434""
""blur"",""6"",""13764""
""focus"",""6"",""14629""
","""event"",""trial"",""time""
""blur"",""6"",""13764""
","""event"",""trial"",""time""
""focus"",""6"",""14629""
","""event"",""trial"",""time""
""fullscreenenter"",""1"",""1434""
","
","","[{""page_index"":0,""viewing_time"":6339.5999999940395},{""page_index"":1,""viewing_time"":9556.30000000447},{""page_index"":2,""viewing_time"":6855.60000000149},{""page_index"":3,""viewing_time"":7491.5},{""page_index"":4,""viewing_time"":7225.69999999553},{""page_index"":5,""viewing_time"":5725.89999999851},{""page_index"":6,""viewing_time"":4497.10000000149},{""page_index"":7,""viewing_time"":8532.70000000298},{""page_index"":8,""viewing_time"":7676.29999999702},{""page_index"":9,""viewing_time"":10500.10000000149},{""page_index"":10,""viewing_time"":6438.39999999851},{""page_index"":11,""viewing_time"":4687.5},{""page_index"":12,""viewing_time"":7390.10000000149},{""page_index"":13,""viewing_time"":8349.79999999702},{""page_index"":14,""viewing_time"":9000.30000000447},{""page_index"":15,""viewing_time"":6745.5},{""page_index"":16,""viewing_time"":6369.39999999851},{""page_index"":17,""viewing_time"":7450.79999999702}]","130833","","","","","","","","","","","","","","","","","","","","","","","",""
"pit-trial","20","329321","0.0-2.0-8.0-0.0","battery-v0.2","","""event"",""trial"",""time""
""fullscreenenter"",""1"",""1434""
""blur"",""6"",""13764""
""focus"",""6"",""14629""
","""event"",""trial"",""time""
""blur"",""6"",""13764""
","""event"",""trial"",""time""
""focus"",""6"",""14629""
","""event"",""trial"",""time""
""fullscreenenter"",""1"",""1434""
","
","","","533.2999999970198","","","22","5219","465","&#9776;","elianto","#3366ff99"," "," ","1","+10","[1391.3999999985099]","1","0","1","","","","","","","",""
"pit-trial","21","332738","0.0-2.0-8.0-1.0","battery-v0.2","","""event"",""trial"",""time""
""fullscreenenter"",""1"",""1434""
""blur"",""6"",""13764""
""focus"",""6"",""14629""
","""event"",""trial"",""time""
""blur"",""6"",""13764""
","""event"",""trial"",""time""
""focus"",""6"",""14629""
","""event"",""trial"",""time""
""fullscreenenter"",""1"",""1434""
","
","","","545.7999999970198","","","22","5219","465","&#9776;","elianto","#3366ff99"," "," ","1","+10","[1400.2999999970198]","1","0","1","","","","","","","",""
"pit-trial","22","336121","0.0-2.0-8.0-2.0","battery-v0.2","","""event"",""trial"",""time""
""fullscreenenter"",""1"",""1434""
""blur"",""6"",""13764""
""focus"",""6"",""14629""
","""event"",""trial"",""time""
""blur"",""6"",""13764""
","""event"",""trial"",""time""
""focus"",""6"",""14629""
","""event"",""trial"",""time""
""fullscreenenter"",""1"",""1434""
","
","","","512.2000000029802","","","22","5219","465","&#9776;","elianto","#3366ff99"," "," ","1","+10","[1364.1000000014901]","1","0","1","","","","","","","",""
"pit-trial","23","339490","0.0-2.0-8.0-3.0","battery-v0.2","","""event"",""trial"",""time""
""fullscreenenter"",""1"",""1434""
""blur"",""6"",""13764""
""focus"",""6"",""14629""
","""event"",""trial"",""time""
""blur"",""6"",""13764""
","""event"",""trial"",""time""
""focus"",""6"",""14629""
","""event"",""trial"",""time""
""fullscreenenter"",""1"",""1434""
","
","","","490.20000000298023","","","22","5219","465","&#9776;","elianto","#3366ff99"," "," ","1","0","[1344.3999999985099]","1","0","1","","","","","","","",""
"pit-trial","24","342984","0.0-2.0-8.0-4.0","battery-v0.2","","""event"",""trial"",""time""
""fullscreenenter"",""1"",""1434""
""blur"",""6"",""13764""
""focus"",""6"",""14629""
","""event"",""trial"",""time""
""blur"",""6"",""13764""
","""event"",""trial"",""time""
""focus"",""6"",""14629""
","""event"",""trial"",""time""
""fullscreenenter"",""1"",""1434""
","
","","","620","","","22","5219","465","&#9776;","elianto","#3366ff99"," "," ","1","+10","[1470]","1","0","1","","","","","","","",""
"pit-trial","25","346428","0.0-2.0-8.1-0.1","battery-v0.2","","""event"",""trial"",""time""
""fullscreenenter"",""1"",""1434""
""blur"",""6"",""13764""
""focus"",""6"",""14629""
","""event"",""trial"",""time""
""blur"",""6"",""13764""
","""event"",""trial"",""time""
""focus"",""6"",""14629""
","""event"",""trial"",""time""
""fullscreenenter"",""1"",""1434""
","
","","","572.8999999985099","","","22","5219","465","&#9776;","elianto","#3366ff99"," "," ","1","+10","[1427.3999999985099]","1","0","1","","","","","","","",""
"pit-trial","26","349753","0.0-2.0-8.1-1.1","battery-v0.2","","""event"",""trial"",""time""
""fullscreenenter"",""1"",""1434""
""blur"",""6"",""13764""
""focus"",""6"",""14629""
","""event"",""trial"",""time""
""blur"",""6"",""13764""
","""event"",""trial"",""time""
""focus"",""6"",""14629""
","""event"",""trial"",""time""
""fullscreenenter"",""1"",""1434""
","
","","","450.1000000014901","","","22","5219","465","&#9776;","elianto","#3366ff99"," "," ","1","+10","[1305.6999999955297]","1","0","1","","","","","","","",""
"pit-trial","27","353070","0.0-2.0-8.1-2.1","battery-v0.2","","""event"",""trial"",""time""
""fullscreenenter"",""1"",""1434""
""blur"",""6"",""13764""
""focus"",""6"",""14629""
","""event"",""trial"",""time""
""blur"",""6"",""13764""
","""event"",""trial"",""time""
""focus"",""6"",""14629""
","""event"",""trial"",""time""
""fullscreenenter"",""1"",""1434""
","
","","","452.3999999985099","","","22","5219","465","&#9776;","elianto","#3366ff99"," "," ","1","+10","[1305.3000000044703]","1","0","1","","","","","","","",""
"pit-trial","28","356387","0.0-2.0-8.1-3.1","battery-v0.2","","""event"",""trial"",""time""
""fullscreenenter"",""1"",""1434""
""blur"",""6"",""13764""
""focus"",""6"",""14629""
","""event"",""trial"",""time""
""blur"",""6"",""13764""
","""event"",""trial"",""time""
""focus"",""6"",""14629""
","""event"",""trial"",""time""
""fullscreenenter"",""1"",""1434""
","
","","","447.8999999985099","","","22","5219","465","&#9776;","elianto","#3366ff99"," "," ","1","0","[1304.6000000014901]","1","0","1","","","","","","","",""
"pit-trial","29","359611","0.0-2.0-8.1-4.1","battery-v0.2","","""event"",""trial"",""time""
""fullscreenenter"",""1"",""1434""
""blur"",""6"",""13764""
""focus"",""6"",""14629""
","""event"",""trial"",""time""
""blur"",""6"",""13764""
","""event"",""trial"",""time""
""focus"",""6"",""14629""
","""event"",""trial"",""time""
""fullscreenenter"",""1"",""1434""
","
","","","363.6000000014901","","","22","5219","465","&#9776;","elianto","#3366ff99"," "," ","1","+10","[1214.6000000014901]","1","0","1","","","","","","","",""
"pit-trial","30","362962","0.0-2.0-8.2-0.2","battery-v0.2","","""event"",""trial"",""time""
""fullscreenenter"",""1"",""1434""
""blur"",""6"",""13764""
""focus"",""6"",""14629""
","""event"",""trial"",""time""
""blur"",""6"",""13764""
","""event"",""trial"",""time""
""focus"",""6"",""14629""
","""event"",""trial"",""time""
""fullscreenenter"",""1"",""1434""
","
","","","493.79999999701977","","","22","5219","465","&#9776;","elianto","#3366ff99"," "," ","1","+10","[1345.8999999985099]","1","0","1","","","","","","","",""
"pit-trial","31","366428","0.0-2.0-8.2-1.2","battery-v0.2","","""event"",""trial"",""time""
""fullscreenenter"",""1"",""1434""
""blur"",""6"",""13764""
""focus"",""6"",""14629""
","""event"",""trial"",""time""
""blur"",""6"",""13764""
","""event"",""trial"",""time""
""focus"",""6"",""14629""
","""event"",""trial"",""time""
""fullscreenenter"",""1"",""1434""
","
","","","604.5","","","22","5219","465","&#9776;","elianto","#3366ff99"," "," ","1","+10","[1456.6000000014901]","1","0","1","","","","","","","",""
"pit-trial","32","369930","0.0-2.0-8.2-2.2","battery-v0.2","","""event"",""trial"",""time""
""fullscreenenter"",""1"",""1434""
""blur"",""6"",""13764""
""focus"",""6"",""14629""
","""event"",""trial"",""time""
""blur"",""6"",""13764""
","""event"",""trial"",""time""
""focus"",""6"",""14629""
","""event"",""trial"",""time""
""fullscreenenter"",""1"",""1434""
","
","","","643.3999999985099","","","22","5219","465","&#9776;","elianto","#3366ff99"," "," ","1","+10","[1498.1999999955297]","1","0","1","","","","","","","",""
"pit-trial","33","373219","0.0-2.0-8.2-3.2","battery-v0.2","","""event"",""trial"",""time""
""fullscreenenter"",""1"",""1434""
""blur"",""6"",""13764""
""focus"",""6"",""14629""
","""event"",""trial"",""time""
""blur"",""6"",""13764""
","""event"",""trial"",""time""
""focus"",""6"",""14629""
","""event"",""trial"",""time""
""fullscreenenter"",""1"",""1434""
","
","","","431.19999999552965","","","22","5219","465","&#9776;","elianto","#3366ff99"," "," ","1","0","[1284.5]","1","0","1","","","","","","","",""
"pit-trial","34","376243","0.0-2.0-8.2-4.2","battery-v0.2","","""event"",""trial"",""time""
""fullscreenenter"",""1"",""1434""
""blur"",""6"",""13764""
""focus"",""6"",""14629""
","""event"",""trial"",""time""
""blur"",""6"",""13764""
","""event"",""trial"",""time""
""focus"",""6"",""14629""
","""event"",""trial"",""time""
""fullscreenenter"",""1"",""1434""
","
","","","162.70000000298023","","","22","5219","465","&#9776;","elianto","#3366ff99"," "," ","1","+10","[1015.5]","1","0","1","","","","","","","",""
"call-function","35","376247","0.0-2.0-9.0","battery-v0.2","","""event"",""trial"",""time""
""fullscreenenter"",""1"",""1434""
""blur"",""6"",""13764""
""focus"",""6"",""14629""
","""event"",""trial"",""time""
""blur"",""6"",""13764""
","""event"",""trial"",""time""
""focus"",""6"",""14629""
","""event"",""trial"",""time""
""fullscreenenter"",""1"",""1434""
","
","","","","","","","","","","","","","","","","","","","","","","","","","","",""
"pit-instructions","36","418843","0.0-2.0-10.0","battery-v0.2","","""event"",""trial"",""time""
""fullscreenenter"",""1"",""1434""
""blur"",""6"",""13764""
""focus"",""6"",""14629""
","""event"",""trial"",""time""
""blur"",""6"",""13764""
","""event"",""trial"",""time""
""focus"",""6"",""14629""
","""event"",""trial"",""time""
""fullscreenenter"",""1"",""1434""
","
","","[{""page_index"":0,""viewing_time"":6338.29999999702},{""page_index"":1,""viewing_time"":7678.70000000298},{""page_index"":2,""viewing_time"":11258.70000000298},{""page_index"":3,""viewing_time"":9542.59999999404},{""page_index"":4,""viewing_time"":7777.60000000149}]","42596.20000000298","","","","","","","","","","","","","","","","","","","","","","","",""
"pit-trial","37","422275","0.0-2.0-11.0-0.0","battery-v0.2","","""event"",""trial"",""time""
""fullscreenenter"",""1"",""1434""
""blur"",""6"",""13764""
""focus"",""6"",""14629""
","""event"",""trial"",""time""
""blur"",""6"",""13764""
","""event"",""trial"",""time""
""focus"",""6"",""14629""
","""event"",""trial"",""time""
""fullscreenenter"",""1"",""1434""
","
","","","571.1000000014901","","","22","5219","465","&#9761;","elianto","#3366ff99","-1"," ","0","0","[1422.6000000014901]","1","0","2","","","","","","","",""
"pit-trial","38","427149","0.0-2.0-11.0-1.0","battery-v0.2","","""event"",""trial"",""time""
""fullscreenenter"",""1"",""1434""
""blur"",""6"",""13764""
""focus"",""6"",""14629""
","""event"",""trial"",""time""
""blur"",""6"",""13764""
","""event"",""trial"",""time""
""focus"",""6"",""14629""
","""event"",""trial"",""time""
""fullscreenenter"",""1"",""1434""
","
","","","-1","","","22","5219","465","&#9761;","elianto","#3366ff99","-1","-1","1","+10","[]","0","0","2","","","","","","","",""
"pit-trial","39","432013","0.0-2.0-11.0-2.0","battery-v0.2","","""event"",""trial"",""time""
""fullscreenenter"",""1"",""1434""
""blur"",""6"",""13764""
""focus"",""6"",""14629""
","""event"",""trial"",""time""
""blur"",""6"",""13764""
","""event"",""trial"",""time""
""focus"",""6"",""14629""
","""event"",""trial"",""time""
""fullscreenenter"",""1"",""1434""
","
","","","-1","","","22","5219","465","&#9761;","elianto","#3366ff99","-1","-1","1","+10","[]","0","0","2","","","","","","","",""
"pit-trial","40","436896","0.0-2.0-11.0-3.0","battery-v0.2","","""event"",""trial"",""time""
""fullscreenenter"",""1"",""1434""
""blur"",""6"",""13764""
""focus"",""6"",""14629""
","""event"",""trial"",""time""
""blur"",""6"",""13764""
","""event"",""trial"",""time""
""focus"",""6"",""14629""
","""event"",""trial"",""time""
""fullscreenenter"",""1"",""1434""
","
","","","-1","","","22","5219","465","&#9761;","elianto","#3366ff99","-1","-1","1","0","[]","0","0","2","","","","","","","",""
"pit-trial","41","441775","0.0-2.0-11.0-4.0","battery-v0.2","","""event"",""trial"",""time""
""fullscreenenter"",""1"",""1434""
""blur"",""6"",""13764""
""focus"",""6"",""14629""
","""event"",""trial"",""time""
""blur"",""6"",""13764""
","""event"",""trial"",""time""
""focus"",""6"",""14629""
","""event"",""trial"",""time""
""fullscreenenter"",""1"",""1434""
","
","","","-1","","","22","5219","465","&#9761;","elianto","#3366ff99","-1","-1","1","+10","[]","0","0","2","","","","","","","",""
"pit-trial","42","446646","0.0-2.0-11.1-0.1","battery-v0.2","","""event"",""trial"",""time""
""fullscreenenter"",""1"",""1434""
""blur"",""6"",""13764""
""focus"",""6"",""14629""
","""event"",""trial"",""time""
""blur"",""6"",""13764""
","""event"",""trial"",""time""
""focus"",""6"",""14629""
","""event"",""trial"",""time""
""fullscreenenter"",""1"",""1434""
","
","","","-1","","","22","5219","465","&#9761;","elianto","#3366ff99","-1","-1","1","+10","[]","0","0","2","","","","","","","",""
"pit-trial","43","451514","0.0-2.0-11.1-1.1","battery-v0.2","","""event"",""trial"",""time""
""fullscreenenter"",""1"",""1434""
""blur"",""6"",""13764""
""focus"",""6"",""14629""
","""event"",""trial"",""time""
""blur"",""6"",""13764""
","""event"",""trial"",""time""
""focus"",""6"",""14629""
","""event"",""trial"",""time""
""fullscreenenter"",""1"",""1434""
","
","","","-1","","","22","5219","465","&#9761;","elianto","#3366ff99","-1","-1","1","+10","[]","0","0","2","","","","","","","",""
"pit-trial","44","456379","0.0-2.0-11.1-2.1","battery-v0.2","","""event"",""trial"",""time""
""fullscreenenter"",""1"",""1434""
""blur"",""6"",""13764""
""focus"",""6"",""14629""
","""event"",""trial"",""time""
""blur"",""6"",""13764""
","""event"",""trial"",""time""
""focus"",""6"",""14629""
","""event"",""trial"",""time""
""fullscreenenter"",""1"",""1434""
","
","","","-1","","","22","5219","465","&#9761;","elianto","#3366ff99","-1","-1","1","+10","[]","0","0","2","","","","","","","",""
"pit-trial","45","461243","0.0-2.0-11.1-3.1","battery-v0.2","","""event"",""trial"",""time""
""fullscreenenter"",""1"",""1434""
""blur"",""6"",""13764""
""focus"",""6"",""14629""
","""event"",""trial"",""time""
""blur"",""6"",""13764""
","""event"",""trial"",""time""
""focus"",""6"",""14629""
","""event"",""trial"",""time""
""fullscreenenter"",""1"",""1434""
","
","","","-1","","","22","5219","465","&#9761;","elianto","#3366ff99","-1","-1","1","0","[]","0","0","2","","","","","","","",""
"pit-trial","46","466107","0.0-2.0-11.1-4.1","battery-v0.2","","""event"",""trial"",""time""
""fullscreenenter"",""1"",""1434""
""blur"",""6"",""13764""
""focus"",""6"",""14629""
","""event"",""trial"",""time""
""blur"",""6"",""13764""
","""event"",""trial"",""time""
""focus"",""6"",""14629""
","""event"",""trial"",""time""
""fullscreenenter"",""1"",""1434""
","
","","","-1","","","22","5219","465","&#9761;","elianto","#3366ff99","-1","-1","1","+10","[]","0","0","2","","","","","","","",""
"pit-trial","47","470971","0.0-2.0-11.2-0.2","battery-v0.2","","""event"",""trial"",""time""
""fullscreenenter"",""1"",""1434""
""blur"",""6"",""13764""
""focus"",""6"",""14629""
","""event"",""trial"",""time""
""blur"",""6"",""13764""
","""event"",""trial"",""time""
""focus"",""6"",""14629""
","""event"",""trial"",""time""
""fullscreenenter"",""1"",""1434""
","
","","","-1","","","22","5219","465","&#9761;","elianto","#3366ff99","-1","-1","1","+10","[]","0","0","2","","","","","","","",""
"pit-trial","48","475835","0.0-2.0-11.2-1.2","battery-v0.2","","""event"",""trial"",""time""
""fullscreenenter"",""1"",""1434""
""blur"",""6"",""13764""
""focus"",""6"",""14629""
","""event"",""trial"",""time""
""blur"",""6"",""13764""
","""event"",""trial"",""time""
""focus"",""6"",""14629""
","""event"",""trial"",""time""
""fullscreenenter"",""1"",""1434""
","
","","","-1","","","22","5219","465","&#9761;","elianto","#3366ff99","-1","-1","1","+10","[]","0","0","2","","","","","","","",""
"pit-trial","49","480700","0.0-2.0-11.2-2.2","battery-v0.2","","""event"",""trial"",""time""
""fullscreenenter"",""1"",""1434""
""blur"",""6"",""13764""
""focus"",""6"",""14629""
","""event"",""trial"",""time""
""blur"",""6"",""13764""
","""event"",""trial"",""time""
""focus"",""6"",""14629""
","""event"",""trial"",""time""
""fullscreenenter"",""1"",""1434""
","
","","","-1","","","22","5219","465","&#9761;","elianto","#3366ff99","-1","-1","1","+10","[]","0","0","2","","","","","","","",""
"pit-trial","50","485571","0.0-2.0-11.2-3.2","battery-v0.2","","""event"",""trial"",""time""
""fullscreenenter"",""1"",""1434""
""blur"",""6"",""13764""
""focus"",""6"",""14629""
","""event"",""trial"",""time""
""blur"",""6"",""13764""
","""event"",""trial"",""time""
""focus"",""6"",""14629""
","""event"",""trial"",""time""
""fullscreenenter"",""1"",""1434""
","
","","","-1","","","22","5219","465","&#9761;","elianto","#3366ff99","-1","-1","1","0","[]","0","0","2","","","","","","","",""
"pit-trial","51","490435","0.0-2.0-11.2-4.2","battery-v0.2","","""event"",""trial"",""time""
""fullscreenenter"",""1"",""1434""
""blur"",""6"",""13764""
""focus"",""6"",""14629""
","""event"",""trial"",""time""
""blur"",""6"",""13764""
","""event"",""trial"",""time""
""focus"",""6"",""14629""
","""event"",""trial"",""time""
""fullscreenenter"",""1"",""1434""
","
","","","-1","","","22","5219","465","&#9761;","elianto","#3366ff99","-1","-1","1","+10","[]","0","0","2","","","","","","","",""
"pit-trial","52","495299","0.0-2.0-11.3-0.3","battery-v0.2","","""event"",""trial"",""time""
""fullscreenenter"",""1"",""1434""
""blur"",""6"",""13764""
""focus"",""6"",""14629""
","""event"",""trial"",""time""
""blur"",""6"",""13764""
","""event"",""trial"",""time""
""focus"",""6"",""14629""
","""event"",""trial"",""time""
""fullscreenenter"",""1"",""1434""
","
","","","-1","","","22","5219","465","&#9761;","elianto","#3366ff99","-1","-1","1","+10","[]","0","0","2","","","","","","","",""
"pit-trial","53","500163","0.0-2.0-11.3-1.3","battery-v0.2","","""event"",""trial"",""time""
""fullscreenenter"",""1"",""1434""
""blur"",""6"",""13764""
""focus"",""6"",""14629""
","""event"",""trial"",""time""
""blur"",""6"",""13764""
","""event"",""trial"",""time""
""focus"",""6"",""14629""
","""event"",""trial"",""time""
""fullscreenenter"",""1"",""1434""
","
","","","-1","","","22","5219","465","&#9761;","elianto","#3366ff99","-1","-1","1","+10","[]","0","0","2","","","","","","","",""
"pit-trial","54","505027","0.0-2.0-11.3-2.3","battery-v0.2","","""event"",""trial"",""time""
""fullscreenenter"",""1"",""1434""
""blur"",""6"",""13764""
""focus"",""6"",""14629""
","""event"",""trial"",""time""
""blur"",""6"",""13764""
","""event"",""trial"",""time""
""focus"",""6"",""14629""
","""event"",""trial"",""time""
""fullscreenenter"",""1"",""1434""
","
","","","-1","","","22","5219","465","&#9761;","elianto","#3366ff99","-1","-1","1","+10","[]","0","0","2","","","","","","","",""
"pit-trial","55","509891","0.0-2.0-11.3-3.3","battery-v0.2","","""event"",""trial"",""time""
""fullscreenenter"",""1"",""1434""
""blur"",""6"",""13764""
""focus"",""6"",""14629""
","""event"",""trial"",""time""
""blur"",""6"",""13764""
","""event"",""trial"",""time""
""focus"",""6"",""14629""
","""event"",""trial"",""time""
""fullscreenenter"",""1"",""1434""
","
","","","-1","","","22","5219","465","&#9761;","elianto","#3366ff99","-1","-1","1","0","[]","0","0","2","","","","","","","",""
"pit-trial","56","514755","0.0-2.0-11.3-4.3","battery-v0.2","","""event"",""trial"",""time""
""fullscreenenter"",""1"",""1434""
""blur"",""6"",""13764""
""focus"",""6"",""14629""
","""event"",""trial"",""time""
""blur"",""6"",""13764""
","""event"",""trial"",""time""
""focus"",""6"",""14629""
","""event"",""trial"",""time""
""fullscreenenter"",""1"",""1434""
","
","","","-1","","","22","5219","465","&#9761;","elianto","#3366ff99","-1","-1","1","+10","[]","0","0","2","","","","","","","",""
"call-function","57","514758","0.0-2.0-12.0","battery-v0.2","","""event"",""trial"",""time""
""fullscreenenter"",""1"",""1434""
""blur"",""6"",""13764""
""focus"",""6"",""14629""
","""event"",""trial"",""time""
""blur"",""6"",""13764""
","""event"",""trial"",""time""
""focus"",""6"",""14629""
","""event"",""trial"",""time""
""fullscreenenter"",""1"",""1434""
","
","","","","","","","","","","","","","","","","","","","","","","","","","","",""
"pit-instructions","58","557378","0.0-2.0-13.0","battery-v0.2","","""event"",""trial"",""time""
""fullscreenenter"",""1"",""1434""
""blur"",""6"",""13764""
""focus"",""6"",""14629""
","""event"",""trial"",""time""
""blur"",""6"",""13764""
","""event"",""trial"",""time""
""focus"",""6"",""14629""
","""event"",""trial"",""time""
""fullscreenenter"",""1"",""1434""
","
","","[{""page_index"":0,""viewing_time"":11211.29999999702},{""page_index"":1,""viewing_time"":9429.80000000447},{""page_index"":2,""viewing_time"":3859},{""page_index"":3,""viewing_time"":11620.39999999851},{""page_index"":4,""viewing_time"":6497.89999999851}]","42619.10000000149","","","","","","","","","","","","","","","","","","","","","","","",""
"pit-trial","59","562265","0.0-2.0-14.0-0.0","battery-v0.2","","""event"",""trial"",""time""
""fullscreenenter"",""1"",""1434""
""blur"",""6"",""13764""
""focus"",""6"",""14629""
","""event"",""trial"",""time""
""blur"",""6"",""13764""
","""event"",""trial"",""time""
""focus"",""6"",""14629""
","""event"",""trial"",""time""
""fullscreenenter"",""1"",""1434""
","
","","","-1","","","22","5219","465","&#9826;","elianto","#f73b6a7A","-1","-1","1","0","[]","0","0","3","","","","","","","",""
"pit-trial","60","567144","0.0-2.0-14.0-1.0","battery-v0.2","","""event"",""trial"",""time""
""fullscreenenter"",""1"",""1434""
""blur"",""6"",""13764""
""focus"",""6"",""14629""
","""event"",""trial"",""time""
""blur"",""6"",""13764""
","""event"",""trial"",""time""
""focus"",""6"",""14629""
","""event"",""trial"",""time""
""fullscreenenter"",""1"",""1434""
","
","","","-1","","","22","5219","465","&#9826;","elianto","#f73b6a7A","-1","-1","1","0","[]","0","0","3","","","","","","","",""
"pit-trial","61","572017","0.0-2.0-14.0-2.0","battery-v0.2","","""event"",""trial"",""time""
""fullscreenenter"",""1"",""1434""
""blur"",""6"",""13764""
""focus"",""6"",""14629""
","""event"",""trial"",""time""
""blur"",""6"",""13764""
","""event"",""trial"",""time""
""focus"",""6"",""14629""
","""event"",""trial"",""time""
""fullscreenenter"",""1"",""1434""
","
","","","-1","","","22","5219","465","&#9826;","elianto","#f73b6a7A","-1","-1","1","0","[]","0","0","3","","","","","","","",""
"pit-trial","62","576895","0.0-2.0-14.0-3.0","battery-v0.2","","""event"",""trial"",""time""
""fullscreenenter"",""1"",""1434""
""blur"",""6"",""13764""
""focus"",""6"",""14629""
","""event"",""trial"",""time""
""blur"",""6"",""13764""
","""event"",""trial"",""time""
""focus"",""6"",""14629""
","""event"",""trial"",""time""
""fullscreenenter"",""1"",""1434""
","
","","","-1","","","22","5219","465","&#9826;","elianto","#f73b6a7A","-1","-1","1","-10","[]","0","0","3","","","","","","","",""
"pit-trial","63","581785","0.0-2.0-14.0-4.0","battery-v0.2","","""event"",""trial"",""time""
""fullscreenenter"",""1"",""1434""
""blur"",""6"",""13764""
""focus"",""6"",""14629""
","""event"",""trial"",""time""
""blur"",""6"",""13764""
","""event"",""trial"",""time""
""focus"",""6"",""14629""
","""event"",""trial"",""time""
""fullscreenenter"",""1"",""1434""
","
","","","-1","","","22","5219","465","&#9826;","elianto","#f73b6a7A","-1","-1","1","0","[]","0","0","3","","","","","","","",""
"pit-trial","64","586659","0.0-2.0-14.1-0.1","battery-v0.2","","""event"",""trial"",""time""
""fullscreenenter"",""1"",""1434""
""blur"",""6"",""13764""
""focus"",""6"",""14629""
","""event"",""trial"",""time""
""blur"",""6"",""13764""
","""event"",""trial"",""time""
""focus"",""6"",""14629""
","""event"",""trial"",""time""
""fullscreenenter"",""1"",""1434""
","
","","","-1","","","22","5219","465","&#9826;","elianto","#f73b6a7A","-1","-1","1","0","[]","0","0","3","","","","","","","",""
"pit-trial","65","591524","0.0-2.0-14.1-1.1","battery-v0.2","","""event"",""trial"",""time""
""fullscreenenter"",""1"",""1434""
""blur"",""6"",""13764""
""focus"",""6"",""14629""
","""event"",""trial"",""time""
""blur"",""6"",""13764""
","""event"",""trial"",""time""
""focus"",""6"",""14629""
","""event"",""trial"",""time""
""fullscreenenter"",""1"",""1434""
","
","","","-1","","","22","5219","465","&#9826;","elianto","#f73b6a7A","-1","-1","1","0","[]","0","0","3","","","","","","","",""
"pit-trial","66","596388","0.0-2.0-14.1-2.1","battery-v0.2","","""event"",""trial"",""time""
""fullscreenenter"",""1"",""1434""
""blur"",""6"",""13764""
""focus"",""6"",""14629""
","""event"",""trial"",""time""
""blur"",""6"",""13764""
","""event"",""trial"",""time""
""focus"",""6"",""14629""
","""event"",""trial"",""time""
""fullscreenenter"",""1"",""1434""
","
","","","-1","","","22","5219","465","&#9826;","elianto","#f73b6a7A","-1","-1","1","0","[]","0","0","3","","","","","","","",""
"pit-trial","67","601259","0.0-2.0-14.1-3.1","battery-v0.2","","""event"",""trial"",""time""
""fullscreenenter"",""1"",""1434""
""blur"",""6"",""13764""
""focus"",""6"",""14629""
","""event"",""trial"",""time""
""blur"",""6"",""13764""
","""event"",""trial"",""time""
""focus"",""6"",""14629""
","""event"",""trial"",""time""
""fullscreenenter"",""1"",""1434""
","
","","","-1","","","22","5219","465","&#9826;","elianto","#f73b6a7A","-1","-1","1","-10","[]","0","0","3","","","","","","","",""
"pit-trial","68","606131","0.0-2.0-14.1-4.1","battery-v0.2","","""event"",""trial"",""time""
""fullscreenenter"",""1"",""1434""
""blur"",""6"",""13764""
""focus"",""6"",""14629""
","""event"",""trial"",""time""
""blur"",""6"",""13764""
","""event"",""trial"",""time""
""focus"",""6"",""14629""
","""event"",""trial"",""time""
""fullscreenenter"",""1"",""1434""
","
","","","-1","","","22","5219","465","&#9826;","elianto","#f73b6a7A","-1","-1","1","0","[]","0","0","3","","","","","","","",""
"pit-trial","69","610995","0.0-2.0-14.2-0.2","battery-v0.2","","""event"",""trial"",""time""
""fullscreenenter"",""1"",""1434""
""blur"",""6"",""13764""
""focus"",""6"",""14629""
","""event"",""trial"",""time""
""blur"",""6"",""13764""
","""event"",""trial"",""time""
""focus"",""6"",""14629""
","""event"",""trial"",""time""
""fullscreenenter"",""1"",""1434""
","
","","","-1","","","22","5219","465","&#9826;","elianto","#f73b6a7A","-1","-1","1","0","[]","0","0","3","","","","","","","",""
"pit-trial","70","615871","0.0-2.0-14.2-1.2","battery-v0.2","","""event"",""trial"",""time""
""fullscreenenter"",""1"",""1434""
""blur"",""6"",""13764""
""focus"",""6"",""14629""
","""event"",""trial"",""time""
""blur"",""6"",""13764""
","""event"",""trial"",""time""
""focus"",""6"",""14629""
","""event"",""trial"",""time""
""fullscreenenter"",""1"",""1434""
","
","","","-1","","","22","5219","465","&#9826;","elianto","#f73b6a7A","-1","-1","1","0","[]","0","0","3","","","","","","","",""
"pit-trial","71","620739","0.0-2.0-14.2-2.2","battery-v0.2","","""event"",""trial"",""time""
""fullscreenenter"",""1"",""1434""
""blur"",""6"",""13764""
""focus"",""6"",""14629""
","""event"",""trial"",""time""
""blur"",""6"",""13764""
","""event"",""trial"",""time""
""focus"",""6"",""14629""
","""event"",""trial"",""time""
""fullscreenenter"",""1"",""1434""
","
","","","-1","","","22","5219","465","&#9826;","elianto","#f73b6a7A","-1","-1","1","0","[]","0","0","3","","","","","","","",""
"pit-trial","72","625610","0.0-2.0-14.2-3.2","battery-v0.2","","""event"",""trial"",""time""
""fullscreenenter"",""1"",""1434""
""blur"",""6"",""13764""
""focus"",""6"",""14629""
","""event"",""trial"",""time""
""blur"",""6"",""13764""
","""event"",""trial"",""time""
""focus"",""6"",""14629""
","""event"",""trial"",""time""
""fullscreenenter"",""1"",""1434""
","
","","","-1","","","22","5219","465","&#9826;","elianto","#f73b6a7A","-1","-1","1","-10","[]","0","0","3","","","","","","","",""
"pit-trial","73","630474","0.0-2.0-14.2-4.2","battery-v0.2","","""event"",""trial"",""time""
""fullscreenenter"",""1"",""1434""
""blur"",""6"",""13764""
""focus"",""6"",""14629""
","""event"",""trial"",""time""
""blur"",""6"",""13764""
","""event"",""trial"",""time""
""focus"",""6"",""14629""
","""event"",""trial"",""time""
""fullscreenenter"",""1"",""1434""
","
","","","-1","","","22","5219","465","&#9826;","elianto","#f73b6a7A","-1","-1","1","0","[]","0","0","3","","","","","","","",""
"pit-trial","74","635340","0.0-2.0-14.3-0.3","battery-v0.2","","""event"",""trial"",""time""
""fullscreenenter"",""1"",""1434""
""blur"",""6"",""13764""
""focus"",""6"",""14629""
","""event"",""trial"",""time""
""blur"",""6"",""13764""
","""event"",""trial"",""time""
""focus"",""6"",""14629""
","""event"",""trial"",""time""
""fullscreenenter"",""1"",""1434""
","
","","","-1","","","22","5219","465","&#9826;","elianto","#f73b6a7A","-1","-1","1","0","[]","0","0","3","","","","","","","",""
"pit-trial","75","640203","0.0-2.0-14.3-1.3","battery-v0.2","","""event"",""trial"",""time""
""fullscreenenter"",""1"",""1434""
""blur"",""6"",""13764""
""focus"",""6"",""14629""
","""event"",""trial"",""time""
""blur"",""6"",""13764""
","""event"",""trial"",""time""
""focus"",""6"",""14629""
","""event"",""trial"",""time""
""fullscreenenter"",""1"",""1434""
","
","","","-1","","","22","5219","465","&#9826;","elianto","#f73b6a7A","-1","-1","1","0","[]","0","0","3","","","","","","","",""
"pit-trial","76","645066","0.0-2.0-14.3-2.3","battery-v0.2","","""event"",""trial"",""time""
""fullscreenenter"",""1"",""1434""
""blur"",""6"",""13764""
""focus"",""6"",""14629""
","""event"",""trial"",""time""
""blur"",""6"",""13764""
","""event"",""trial"",""time""
""focus"",""6"",""14629""
","""event"",""trial"",""time""
""fullscreenenter"",""1"",""1434""
","
","","","-1","","","22","5219","465","&#9826;","elianto","#f73b6a7A","-1","-1","1","0","[]","0","0","3","","","","","","","",""
"pit-trial","77","649938","0.0-2.0-14.3-3.3","battery-v0.2","","""event"",""trial"",""time""
""fullscreenenter"",""1"",""1434""
""blur"",""6"",""13764""
""focus"",""6"",""14629""
","""event"",""trial"",""time""
""blur"",""6"",""13764""
","""event"",""trial"",""time""
""focus"",""6"",""14629""
","""event"",""trial"",""time""
""fullscreenenter"",""1"",""1434""
","
","","","-1","","","22","5219","465","&#9826;","elianto","#f73b6a7A","-1","-1","1","-10","[]","0","0","3","","","","","","","",""
"pit-trial","78","654803","0.0-2.0-14.3-4.3","battery-v0.2","","""event"",""trial"",""time""
""fullscreenenter"",""1"",""1434""
""blur"",""6"",""13764""
""focus"",""6"",""14629""
","""event"",""trial"",""time""
""blur"",""6"",""13764""
","""event"",""trial"",""time""
""focus"",""6"",""14629""
","""event"",""trial"",""time""
""fullscreenenter"",""1"",""1434""
","
","","","-1","","","22","5219","465","&#9826;","elianto","#f73b6a7A","-1","-1","1","0","[]","0","0","3","","","","","","","",""
"call-function","79","654806","0.0-2.0-15.0","battery-v0.2","","""event"",""trial"",""time""
""fullscreenenter"",""1"",""1434""
""blur"",""6"",""13764""
""focus"",""6"",""14629""
","""event"",""trial"",""time""
""blur"",""6"",""13764""
","""event"",""trial"",""time""
""focus"",""6"",""14629""
","""event"",""trial"",""time""
""fullscreenenter"",""1"",""1434""
","
","","","","","","","","","","","","","","","","","","","","","","","","","","",""
"pit-instructions","80","703182","0.0-2.0-16.0","battery-v0.2","","""event"",""trial"",""time""
""fullscreenenter"",""1"",""1434""
""blur"",""6"",""13764""
""focus"",""6"",""14629""
","""event"",""trial"",""time""
""blur"",""6"",""13764""
","""event"",""trial"",""time""
""focus"",""6"",""14629""
","""event"",""trial"",""time""
""fullscreenenter"",""1"",""1434""
","
","","[{""page_index"":0,""viewing_time"":10457.5},{""page_index"":1,""viewing_time"":10638.70000000298},{""page_index"":2,""viewing_time"":11700.69999999553},{""page_index"":3,""viewing_time"":15578}]","48375.60000000149","","","","","","","","","","","","","","","","","","","","","","","",""
"pit-trial","81","707979","0.0-2.0-17.0-0.0","battery-v0.2","","""event"",""trial"",""time""
""fullscreenenter"",""1"",""1434""
""blur"",""6"",""13764""
""focus"",""6"",""14629""
","""event"",""trial"",""time""
""blur"",""6"",""13764""
","""event"",""trial"",""time""
""focus"",""6"",""14629""
","""event"",""trial"",""time""
""fullscreenenter"",""1"",""1434""
","
","","","1934.3999999985099","","","22","5219","465","&#9789;","elianto","#f73b6a7A"," "," ","1","0","[2790.39999999851]","1","0","4","","","","","","","",""
"pit-trial","82","711423","0.0-2.0-17.0-1.0","battery-v0.2","","""event"",""trial"",""time""
""fullscreenenter"",""1"",""1434""
""blur"",""6"",""13764""
""focus"",""6"",""14629""
","""event"",""trial"",""time""
""blur"",""6"",""13764""
","""event"",""trial"",""time""
""focus"",""6"",""14629""
","""event"",""trial"",""time""
""fullscreenenter"",""1"",""1434""
","
","","","577.5","","","22","5219","465","&#9789;","elianto","#f73b6a7A"," "," ","1","0","[1430.8000000044703]","1","0","4","","","","","","","",""
"pit-trial","83","714492","0.0-2.0-17.0-2.0","battery-v0.2","","""event"",""trial"",""time""
""fullscreenenter"",""1"",""1434""
""blur"",""6"",""13764""
""focus"",""6"",""14629""
","""event"",""trial"",""time""
""blur"",""6"",""13764""
","""event"",""trial"",""time""
""focus"",""6"",""14629""
","""event"",""trial"",""time""
""fullscreenenter"",""1"",""1434""
","
","","","200.60000000149012","","","22","5219","465","&#9789;","elianto","#f73b6a7A"," "," ","1","0","[1056.1999999955297]","1","0","4","","","","","","","",""
"pit-trial","84","718003","0.0-2.0-17.0-3.0","battery-v0.2","","""event"",""trial"",""time""
""fullscreenenter"",""1"",""1434""
""blur"",""6"",""13764""
""focus"",""6"",""14629""
","""event"",""trial"",""time""
""blur"",""6"",""13764""
","""event"",""trial"",""time""
""focus"",""6"",""14629""
","""event"",""trial"",""time""
""fullscreenenter"",""1"",""1434""
","
","","","654.3000000044703","","","22","5219","465","&#9789;","elianto","#f73b6a7A"," "," ","1","-10","[1505.1000000014901]","1","0","4","","","","","","","",""
"pit-trial","85","721101","0.0-2.0-17.0-4.0","battery-v0.2","","""event"",""trial"",""time""
""fullscreenenter"",""1"",""1434""
""blur"",""6"",""13764""
""focus"",""6"",""14629""
","""event"",""trial"",""time""
""blur"",""6"",""13764""
","""event"",""trial"",""time""
""focus"",""6"",""14629""
","""event"",""trial"",""time""
""fullscreenenter"",""1"",""1434""
","
","","","238.10000000149012","","","22","5219","465","&#9789;","elianto","#f73b6a7A"," "," ","1","0","[1089.5]","1","0","4","","","","","","","",""
"pit-trial","86","724492","0.0-2.0-17.1-0.1","battery-v0.2","","""event"",""trial"",""time""
""fullscreenenter"",""1"",""1434""
""blur"",""6"",""13764""
""focus"",""6"",""14629""
","""event"",""trial"",""time""
""blur"",""6"",""13764""
","""event"",""trial"",""time""
""focus"",""6"",""14629""
","""event"",""trial"",""time""
""fullscreenenter"",""1"",""1434""
","
","","","526.5999999940395","","","22","5219","465","&#9789;","elianto","#f73b6a7A"," "," ","1","0","[1379.1999999955297]","1","0","4","","","","","","","",""
"pit-trial","87","728691","0.0-2.0-17.1-1.1","battery-v0.2","","""event"",""trial"",""time""
""fullscreenenter"",""1"",""1434""
""blur"",""6"",""13764""
""focus"",""6"",""14629""
","""event"",""trial"",""time""
""blur"",""6"",""13764""
","""event"",""trial"",""time""
""focus"",""6"",""14629""
","""event"",""trial"",""time""
""fullscreenenter"",""1"",""1434""
","
","","","1341.5","","","22","5219","465","&#9789;","elianto","#f73b6a7A"," "," ","1","0","[2192.2000000029802]","1","0","4","","","","","","","",""
"pit-trial","88","731923","0.0-2.0-17.1-2.1","battery-v0.2","","""event"",""trial"",""time""
""fullscreenenter"",""1"",""1434""
""blur"",""6"",""13764""
""focus"",""6"",""14629""
","""event"",""trial"",""time""
""blur"",""6"",""13764""
","""event"",""trial"",""time""
""focus"",""6"",""14629""
","""event"",""trial"",""time""
""fullscreenenter"",""1"",""1434""
","
","","","369.6000000014901","","","22","5219","465","&#9789;","elianto","#f73b6a7A"," "," ","1","0","[1220.3999999985099]","1","0","4","","","","","","","",""
"pit-trial","89","735539","0.0-2.0-17.1-3.1","battery-v0.2","","""event"",""trial"",""time""
""fullscreenenter"",""1"",""1434""
""blur"",""6"",""13764""
""focus"",""6"",""14629""
","""event"",""trial"",""time""
""blur"",""6"",""13764""
","""event"",""trial"",""time""
""focus"",""6"",""14629""
","""event"",""trial"",""time""
""fullscreenenter"",""1"",""1434""
","
","","","753.8999999985099","","","22","5219","465","&#9789;","elianto","#f73b6a7A"," "," ","1","-10","[1605.6000000014901]","1","0","4","","","","","","","",""
"pit-trial","90","738538","0.0-2.0-17.1-4.1","battery-v0.2","","""event"",""trial"",""time""
""fullscreenenter"",""1"",""1434""
""blur"",""6"",""13764""
""focus"",""6"",""14629""
","""event"",""trial"",""time""
""blur"",""6"",""13764""
","""event"",""trial"",""time""
""focus"",""6"",""14629""
","""event"",""trial"",""time""
""fullscreenenter"",""1"",""1434""
","
","","","136","","","22","5219","465","&#9789;","elianto","#f73b6a7A"," "," ","1","0","[987.2999999970198]","1","0","4","","","","","","","",""
"pit-trial","91","741559","0.0-2.0-17.2-0.2","battery-v0.2","","""event"",""trial"",""time""
""fullscreenenter"",""1"",""1434""
""blur"",""6"",""13764""
""focus"",""6"",""14629""
","""event"",""trial"",""time""
""blur"",""6"",""13764""
","""event"",""trial"",""time""
""focus"",""6"",""14629""
","""event"",""trial"",""time""
""fullscreenenter"",""1"",""1434""
","
","","","155.29999999701977","","","22","5219","465","&#9789;","elianto","#f73b6a7A"," "," ","1","0","[1008]","1","0","4","","","","","","","",""
"pit-trial","92","744611","0.0-2.0-17.2-1.2","battery-v0.2","","""event"",""trial"",""time""
""fullscreenenter"",""1"",""1434""
""blur"",""6"",""13764""
""focus"",""6"",""14629""
","""event"",""trial"",""time""
""blur"",""6"",""13764""
","""event"",""trial"",""time""
""focus"",""6"",""14629""
","""event"",""trial"",""time""
""fullscreenenter"",""1"",""1434""
","
","","","191.10000000149012","","","22","5219","465","&#9789;","elianto","#f73b6a7A"," "," ","1","0","[1047.2999999970198]","1","0","4","","","","","","","",""
"pit-trial","93","748331","0.0-2.0-17.2-2.2","battery-v0.2","","""event"",""trial"",""time""
""fullscreenenter"",""1"",""1434""
""blur"",""6"",""13764""
""focus"",""6"",""14629""
","""event"",""trial"",""time""
""blur"",""6"",""13764""
","""event"",""trial"",""time""
""focus"",""6"",""14629""
","""event"",""trial"",""time""
""fullscreenenter"",""1"",""1434""
","
","","","855.5999999940395","","","22","5219","465","&#9789;","elianto","#f73b6a7A"," "," ","1","0","[818.6999999955297,1707.5]","2","0","4","","","","","","","",""
"pit-trial","94","751332","0.0-2.0-17.2-3.2","battery-v0.2","","""event"",""trial"",""time""
""fullscreenenter"",""1"",""1434""
""blur"",""6"",""13764""
""focus"",""6"",""14629""
","""event"",""trial"",""time""
""blur"",""6"",""13764""
","""event"",""trial"",""time""
""focus"",""6"",""14629""
","""event"",""trial"",""time""
""fullscreenenter"",""1"",""1434""
","
","","","138.60000000149012","","","22","5219","465","&#9789;","elianto","#f73b6a7A"," "," ","1","-10","[990]","1","0","4","","","","","","","",""
"pit-trial","95","754291","0.0-2.0-17.2-4.2","battery-v0.2","","""event"",""trial"",""time""
""fullscreenenter"",""1"",""1434""
""blur"",""6"",""13764""
""focus"",""6"",""14629""
","""event"",""trial"",""time""
""blur"",""6"",""13764""
","""event"",""trial"",""time""
""focus"",""6"",""14629""
","""event"",""trial"",""time""
""fullscreenenter"",""1"",""1434""
","
","","","102.20000000298023","","","22","5219","465","&#9789;","elianto","#f73b6a7A"," "," ","1","0","[952.6000000014901]","1","0","4","","","","","","","",""
"pit-trial","96","757258","0.0-2.0-17.3-0.3","battery-v0.2","","""event"",""trial"",""time""
""fullscreenenter"",""1"",""1434""
""blur"",""6"",""13764""
""focus"",""6"",""14629""
","""event"",""trial"",""time""
""blur"",""6"",""13764""
","""event"",""trial"",""time""
""focus"",""6"",""14629""
","""event"",""trial"",""time""
""fullscreenenter"",""1"",""1434""
","
","","","104.40000000596046","","","22","5219","465","&#9789;","elianto","#f73b6a7A"," "," ","1","0","[956.7000000029802]","1","0","4","","","","","","","",""
"pit-trial","97","760166","0.0-2.0-17.3-1.3","battery-v0.2","","""event"",""trial"",""time""
""fullscreenenter"",""1"",""1434""
""blur"",""6"",""13764""
""focus"",""6"",""14629""
","""event"",""trial"",""time""
""blur"",""6"",""13764""
","""event"",""trial"",""time""
""focus"",""6"",""14629""
","""event"",""trial"",""time""
""fullscreenenter"",""1"",""1434""
","
","","","33.30000000447035","","","22","5219","465","&#9789;","elianto","#f73b6a7A"," "," ","1","0","[885.6000000014901]","1","0","4","","","","","","","",""
"pit-trial","98","763091","0.0-2.0-17.3-2.3","battery-v0.2","","""event"",""trial"",""time""
""fullscreenenter"",""1"",""1434""
""blur"",""6"",""13764""
""focus"",""6"",""14629""
","""event"",""trial"",""time""
""blur"",""6"",""13764""
","""event"",""trial"",""time""
""focus"",""6"",""14629""
","""event"",""trial"",""time""
""fullscreenenter"",""1"",""1434""
","
","","","56.5","","","22","5219","465","&#9789;","elianto","#f73b6a7A"," "," ","1","0","[913.5]","1","0","4","","","","","","","",""
"pit-trial","99","766011","0.0-2.0-17.3-3.3","battery-v0.2","","""event"",""trial"",""time""
""fullscreenenter"",""1"",""1434""
""blur"",""6"",""13764""
""focus"",""6"",""14629""
","""event"",""trial"",""time""
""blur"",""6"",""13764""
","""event"",""trial"",""time""
""focus"",""6"",""14629""
","""event"",""trial"",""time""
""fullscreenenter"",""1"",""1434""
","
","","","59.600000001490116","","","22","5219","465","&#9789;","elianto","#f73b6a7A"," "," ","1","-10","[911.6999999955297]","1","0","4","","","","","","","",""
"pit-trial","100","768924","0.0-2.0-17.3-4.3","battery-v0.2","","""event"",""trial"",""time""
""fullscreenenter"",""1"",""1434""
""blur"",""6"",""13764""
""focus"",""6"",""14629""
","""event"",""trial"",""time""
""blur"",""6"",""13764""
","""event"",""trial"",""time""
""focus"",""6"",""14629""
","""event"",""trial"",""time""
""fullscreenenter"",""1"",""1434""
","
","","","48.100000001490116","","","22","5219","465","&#9789;","elianto","#f73b6a7A"," "," ","1","0","[900.3000000044703]","1","0","4","","","","","","","",""
"call-function","101","768927","0.0-2.0-18.0","battery-v0.2","","""event"",""trial"",""time""
""fullscreenenter"",""1"",""1434""
""blur"",""6"",""13764""
""focus"",""6"",""14629""
","""event"",""trial"",""time""
""blur"",""6"",""13764""
","""event"",""trial"",""time""
""focus"",""6"",""14629""
","""event"",""trial"",""time""
""fullscreenenter"",""1"",""1434""
","
","","","","","","","","","","","","","","","","","","","","","","","","","","",""
"pit-instructions","102","855535","0.0-2.0-19.0","battery-v0.2","","""event"",""trial"",""time""
""fullscreenenter"",""1"",""1434""
""blur"",""6"",""13764""
""focus"",""6"",""14629""
","""event"",""trial"",""time""
""blur"",""6"",""13764""
","""event"",""trial"",""time""
""focus"",""6"",""14629""
","""event"",""trial"",""time""
""fullscreenenter"",""1"",""1434""
","
","","[{""page_index"":0,""viewing_time"":12047.79999999702},{""page_index"":1,""viewing_time"":4176.79999999702},{""page_index"":2,""viewing_time"":17770.5},{""page_index"":3,""viewing_time"":9987.60000000149},{""page_index"":4,""viewing_time"":11013.20000000298},{""page_index"":5,""viewing_time"":8252.10000000149},{""page_index"":6,""viewing_time"":10474.59999999404},{""page_index"":7,""viewing_time"":8697.70000000298},{""page_index"":8,""viewing_time"":4187.39999999851}]","86608.19999999553","","","","","","","","","","","","","","","","","","","","","","","",""
"pit-comprehension","103","859869","0.0-2.0-20.0-0.0","battery-v0.2","","""event"",""trial"",""time""
""fullscreenenter"",""1"",""1434""
""blur"",""6"",""13764""
""focus"",""6"",""14629""
","""event"",""trial"",""time""
""blur"",""6"",""13764""
","""event"",""trial"",""time""
""focus"",""6"",""14629""
","""event"",""trial"",""time""
""fullscreenenter"",""1"",""1434""
","
","","","4330","[""SPACE""]","0","22","5219","465","","","","","","","","","","","","","","","","","","",""
"pit-instructions","104","862847","0.0-2.0-20.0-1.0","battery-v0.2","","""event"",""trial"",""time""
""fullscreenenter"",""1"",""1434""
""blur"",""6"",""13764""
""focus"",""6"",""14629""
","""event"",""trial"",""time""
""blur"",""6"",""13764""
","""event"",""trial"",""time""
""focus"",""6"",""14629""
","""event"",""trial"",""time""
""fullscreenenter"",""1"",""1434""
","
","","[{""page_index"":0,""viewing_time"":2933}]","2933.5999999940395","","","","","","","","","","","","","","","","","","","","","","","",""
"pit-comprehension","105","868975","0.0-2.0-21.0-0.0","battery-v0.2","","""event"",""trial"",""time""
""fullscreenenter"",""1"",""1434""
""blur"",""6"",""13764""
""focus"",""6"",""14629""
","""event"",""trial"",""time""
""blur"",""6"",""13764""
","""event"",""trial"",""time""
""focus"",""6"",""14629""
","""event"",""trial"",""time""
""fullscreenenter"",""1"",""1434""
","
","","","6122.5999999940395","[""10""]","0","22","5219","465","","","","","","","","","","","","","","","","","","",""
"pit-instructions","106","872258","0.0-2.0-21.0-1.0","battery-v0.2","","""event"",""trial"",""time""
""fullscreenenter"",""1"",""1434""
""blur"",""6"",""13764""
""focus"",""6"",""14629""
","""event"",""trial"",""time""
""blur"",""6"",""13764""
","""event"",""trial"",""time""
""focus"",""6"",""14629""
","""event"",""trial"",""time""
""fullscreenenter"",""1"",""1434""
","
","","[{""page_index"":0,""viewing_time"":3245.60000000149}]","3246.10000000149","","","","","","","","","","","","","","","","","","","","","","","",""
"pit-comprehension","107","878896","0.0-2.0-22.0-0.0","battery-v0.2","","""event"",""trial"",""time""
""fullscreenenter"",""1"",""1434""
""blur"",""6"",""13764""
""focus"",""6"",""14629""
","""event"",""trial"",""time""
""blur"",""6"",""13764""
","""event"",""trial"",""time""
""focus"",""6"",""14629""
","""event"",""trial"",""time""
""fullscreenenter"",""1"",""1434""
","
","","","6632.79999999702","[""0""]","0","22","5219","465","","","","","","","","","","","","","","","","","","",""
"pit-instructions","108","881494","0.0-2.0-22.0-1.0","battery-v0.2","","""event"",""trial"",""time""
""fullscreenenter"",""1"",""1434""
""blur"",""6"",""13764""
""focus"",""6"",""14629""
","""event"",""trial"",""time""
""blur"",""6"",""13764""
","""event"",""trial"",""time""
""focus"",""6"",""14629""
","""event"",""trial"",""time""
""fullscreenenter"",""1"",""1434""
","
","","[{""page_index"":0,""viewing_time"":2559.1999999955297}]","2559.6999999955297","","","","","","","","","","","","","","","","","","","","","","","",""
"pit-comprehension","109","890131","0.0-2.0-23.0-0.0","battery-v0.2","","""event"",""trial"",""time""
""fullscreenenter"",""1"",""1434""
""blur"",""6"",""13764""
""focus"",""6"",""14629""
","""event"",""trial"",""time""
""blur"",""6"",""13764""
","""event"",""trial"",""time""
""focus"",""6"",""14629""
","""event"",""trial"",""time""
""fullscreenenter"",""1"",""1434""
","
","","","8633","[""True""]","0","22","5219","465","","","","","","","","","","","","","","","","","","",""
"pit-instructions","110","893891","0.0-2.0-23.0-1.0","battery-v0.2","","""event"",""trial"",""time""
""fullscreenenter"",""1"",""1434""
""blur"",""6"",""13764""
""focus"",""6"",""14629""
","""event"",""trial"",""time""
""blur"",""6"",""13764""
","""event"",""trial"",""time""
""focus"",""6"",""14629""
","""event"",""trial"",""time""
""fullscreenenter"",""1"",""1434""
","
","","[{""page_index"":0,""viewing_time"":3719.8000000044703}]","3720.10000000149","","","","","","","","","","","","","","","","","","","","","","","",""
"pit-comprehension","111","901513","0.0-2.0-24.0-0.0","battery-v0.2","","""event"",""trial"",""time""
""fullscreenenter"",""1"",""1434""
""blur"",""6"",""13764""
""focus"",""6"",""14629""
","""event"",""trial"",""time""
""blur"",""6"",""13764""
","""event"",""trial"",""time""
""focus"",""6"",""14629""
","""event"",""trial"",""time""
""fullscreenenter"",""1"",""1434""
","
","","","7617.79999999702","[""True""]","0","22","5219","465","","","","","","","","","","","","","","","","","","",""
"pit-instructions","112","903184","0.0-2.0-24.0-1.0","battery-v0.2","","""event"",""trial"",""time""
""fullscreenenter"",""1"",""1434""
""blur"",""6"",""13764""
""focus"",""6"",""14629""
","""event"",""trial"",""time""
""blur"",""6"",""13764""
","""event"",""trial"",""time""
""focus"",""6"",""14629""
","""event"",""trial"",""time""
""fullscreenenter"",""1"",""1434""
","
","","[{""page_index"":0,""viewing_time"":1627.7999999970198}]","1628.0999999940395","","","","","","","","","","","","","","","","","","","","","","","",""
"pit-comprehension","113","909716","0.0-2.0-25.0-0.0","battery-v0.2","","""event"",""trial"",""time""
""fullscreenenter"",""1"",""1434""
""blur"",""6"",""13764""
""focus"",""6"",""14629""
","""event"",""trial"",""time""
""blur"",""6"",""13764""
","""event"",""trial"",""time""
""focus"",""6"",""14629""
","""event"",""trial"",""time""
""fullscreenenter"",""1"",""1434""
","
","","","6527.5999999940395","[""True""]","0","22","5219","465","","","","","","","","","","","","","","","","","","",""
"pit-instructions","114","912100","0.0-2.0-25.0-1.0","battery-v0.2","","""event"",""trial"",""time""
""fullscreenenter"",""1"",""1434""
""blur"",""6"",""13764""
""focus"",""6"",""14629""
","""event"",""trial"",""time""
""blur"",""6"",""13764""
","""event"",""trial"",""time""
""focus"",""6"",""14629""
","""event"",""trial"",""time""
""fullscreenenter"",""1"",""1434""
","
","","[{""page_index"":0,""viewing_time"":2340.60000000149}]","2340.89999999851","","","","","","","","","","","","","","","","","","","","","","","",""
"pit-comprehension","115","916811","0.0-2.0-26.0-0.0","battery-v0.2","","""event"",""trial"",""time""
""fullscreenenter"",""1"",""1434""
""blur"",""6"",""13764""
""focus"",""6"",""14629""
","""event"",""trial"",""time""
""blur"",""6"",""13764""
","""event"",""trial"",""time""
""focus"",""6"",""14629""
","""event"",""trial"",""time""
""fullscreenenter"",""1"",""1434""
","
","","","4706.60000000149","[""False""]","0","22","5219","465","","","","","","","","","","","","","","","","","","",""
"pit-instructions","116","919077","0.0-2.0-26.0-1.0","battery-v0.2","","""event"",""trial"",""time""
""fullscreenenter"",""1"",""1434""
""blur"",""6"",""13764""
""focus"",""6"",""14629""
","""event"",""trial"",""time""
""blur"",""6"",""13764""
","""event"",""trial"",""time""
""focus"",""6"",""14629""
","""event"",""trial"",""time""
""fullscreenenter"",""1"",""1434""
","
","","[{""page_index"":0,""viewing_time"":2227.60000000149}]","2228","","","","","","","","","","","","","","","","","","","","","","","",""
"pit-instructions","117","935863","0.0-3.0","battery-v0.2","","""event"",""trial"",""time""
""fullscreenenter"",""1"",""1434""
""blur"",""6"",""13764""
""focus"",""6"",""14629""
","""event"",""trial"",""time""
""blur"",""6"",""13764""
","""event"",""trial"",""time""
""focus"",""6"",""14629""
","""event"",""trial"",""time""
""fullscreenenter"",""1"",""1434""
","
","","[{""page_index"":0,""viewing_time"":3679.7999999970198},{""page_index"":1,""viewing_time"":5083.5},{""page_index"":2,""viewing_time"":8017.89999999851}]","16781.5","","","","","","","","","","","","","","","","","","","","","","","",""
"pit-trial","118","939243","0.0-4.0","battery-v0.2","","""event"",""trial"",""time""
""fullscreenenter"",""1"",""1434""
""blur"",""6"",""13764""
""focus"",""6"",""14629""
","""event"",""trial"",""time""
""blur"",""6"",""13764""
","""event"",""trial"",""time""
""focus"",""6"",""14629""
","""event"",""trial"",""time""
""fullscreenenter"",""1"",""1434""
","
","","","510.3999999985099","","","22","5219","465","&#9728;","elianto","#f73b6a7A","-1"," ","0","-10","[1364.6000000014901]","1","1","","","5219","1","0","4","lose","no-go","0"
"pit-trial","119","942803","0.0-5.0","battery-v0.2","","""event"",""trial"",""time""
""fullscreenenter"",""1"",""1434""
""blur"",""6"",""13764""
""focus"",""6"",""14629""
","""event"",""trial"",""time""
""blur"",""6"",""13764""
","""event"",""trial"",""time""
""focus"",""6"",""14629""
","""event"",""trial"",""time""
""fullscreenenter"",""1"",""1434""
","
","","","698.6000000014901","","","22","5219","465","&#9733;","elianto","#3366ff99","-1"," ","0","+10","[1550.7000000029802]","1","1","","","5219","2","2","2","win","no-go","1"
"pit-trial","120","946393","0.0-6.0","battery-v0.2","","""event"",""trial"",""time""
""fullscreenenter"",""1"",""1434""
""blur"",""6"",""13764""
""focus"",""6"",""14629""
","""event"",""trial"",""time""
""blur"",""6"",""13764""
","""event"",""trial"",""time""
""focus"",""6"",""14629""
","""event"",""trial"",""time""
""fullscreenenter"",""1"",""1434""
","
","","","726.3000000044703","","","22","5219","465","&#9730;","elianto","#3366ff99"," "," ","1","+10","[1578]","1","1","","","5219","3","1","1","win","go","0"
"pit-trial","121","950060","0.0-7.0","battery-v0.2","","""event"",""trial"",""time""
""fullscreenenter"",""1"",""1434""
""blur"",""6"",""13764""
""focus"",""6"",""14629""
","""event"",""trial"",""time""
""blur"",""6"",""13764""
","""event"",""trial"",""time""
""focus"",""6"",""14629""
","""event"",""trial"",""time""
""fullscreenenter"",""1"",""1434""
","
","","","790.8999999985099","","","22","5219","465","&#9752;","elianto","#f73b6a7A"," "," ","1","0","[1645]","1","1","","","5219","4","3","3","lose","go","0"
"pit-trial","122","954946","0.0-8.0","battery-v0.2","","""event"",""trial"",""time""
""fullscreenenter"",""1"",""1434""
""blur"",""6"",""13764""
""focus"",""6"",""14629""
","""event"",""trial"",""time""
""blur"",""6"",""13764""
","""event"",""trial"",""time""
""focus"",""6"",""14629""
","""event"",""trial"",""time""
""fullscreenenter"",""1"",""1434""
","
","","","-1","","","22","5219","465","&#9728;","elianto","#f73b6a7A","-1","-1","1","0","[]","0","1","","","5219","5","0","4","lose","no-go","0"
"pit-trial","123","958718","0.0-9.0","battery-v0.2","","""event"",""trial"",""time""
""fullscreenenter"",""1"",""1434""
""blur"",""6"",""13764""
""focus"",""6"",""14629""
","""event"",""trial"",""time""
""blur"",""6"",""13764""
","""event"",""trial"",""time""
""focus"",""6"",""14629""
","""event"",""trial"",""time""
""fullscreenenter"",""1"",""1434""
","
","","","910.7000000029802","","","22","5219","465","&#9752;","elianto","#f73b6a7A"," "," ","1","0","[1761.5]","1","1","","","5219","6","3","3","lose","go","0"
"pit-trial","124","962256","0.0-10.0","battery-v0.2","","""event"",""trial"",""time""
""fullscreenenter"",""1"",""1434""
""blur"",""6"",""13764""
""focus"",""6"",""14629""
","""event"",""trial"",""time""
""blur"",""6"",""13764""
","""event"",""trial"",""time""
""focus"",""6"",""14629""
","""event"",""trial"",""time""
""fullscreenenter"",""1"",""1434""
","
","","","671.6999999955297","","","22","5219","465","&#9733;","elianto","#3366ff99","-1"," ","0","0","[1523]","1","1","","","5219","7","2","2","win","no-go","0"
"pit-trial","125","965630","0.0-11.0","battery-v0.2","","""event"",""trial"",""time""
""fullscreenenter"",""1"",""1434""
""blur"",""6"",""13764""
""focus"",""6"",""14629""
","""event"",""trial"",""time""
""blur"",""6"",""13764""
","""event"",""trial"",""time""
""focus"",""6"",""14629""
","""event"",""trial"",""time""
""fullscreenenter"",""1"",""1434""
","
","","","511.3999999985099","","","22","5219","465","&#9730;","elianto","#3366ff99"," "," ","1","+10","[1364.7000000029802]","1","1","","","5219","8","1","1","win","go","0"
"pit-trial","126","969090","0.0-12.0","battery-v0.2","","""event"",""trial"",""time""
""fullscreenenter"",""1"",""1434""
""blur"",""6"",""13764""
""focus"",""6"",""14629""
","""event"",""trial"",""time""
""blur"",""6"",""13764""
","""event"",""trial"",""time""
""focus"",""6"",""14629""
","""event"",""trial"",""time""
""fullscreenenter"",""1"",""1434""
","
","","","590.0999999940395","","","22","5219","465","&#9733;","elianto","#3366ff99","-1"," ","0","0","[1441]","1","1","","","5219","9","2","2","win","no-go","0"
"pit-trial","127","972648","0.0-13.0","battery-v0.2","","""event"",""trial"",""time""
""fullscreenenter"",""1"",""1434""
""blur"",""6"",""13764""
""focus"",""6"",""14629""
","""event"",""trial"",""time""
""blur"",""6"",""13764""
","""event"",""trial"",""time""
""focus"",""6"",""14629""
","""event"",""trial"",""time""
""fullscreenenter"",""1"",""1434""
","
","","","680","","","22","5219","465","&#9730;","elianto","#3366ff99"," "," ","1","+10","[1533.2000000029802]","1","1","","","5219","10","1","1","win","go","0"
"pit-trial","128","977516","0.0-14.0","battery-v0.2","","""event"",""trial"",""time""
""fullscreenenter"",""1"",""1434""
""blur"",""6"",""13764""
""focus"",""6"",""14629""
","""event"",""trial"",""time""
""blur"",""6"",""13764""
","""event"",""trial"",""time""
""focus"",""6"",""14629""
","""event"",""trial"",""time""
""fullscreenenter"",""1"",""1434""
","
","","","-1","","","22","5219","465","&#9728;","elianto","#f73b6a7A","-1","-1","1","0","[]","0","1","","","5219","11","0","4","lose","no-go","0"
"pit-trial","129","981003","0.0-15.0","battery-v0.2","","""event"",""trial"",""time""
""fullscreenenter"",""1"",""1434""
""blur"",""6"",""13764""
""focus"",""6"",""14629""
","""event"",""trial"",""time""
""blur"",""6"",""13764""
","""event"",""trial"",""time""
""focus"",""6"",""14629""
","""event"",""trial"",""time""
""fullscreenenter"",""1"",""1434""
","
","","","629","","","22","5219","465","&#9752;","elianto","#f73b6a7A"," "," ","1","0","[1479.2000000029802]","1","1","","","5219","12","3","3","lose","go","0"
"pit-trial","130","985874","0.0-16.0","battery-v0.2","","""event"",""trial"",""time""
""fullscreenenter"",""1"",""1434""
""blur"",""6"",""13764""
""focus"",""6"",""14629""
","""event"",""trial"",""time""
""blur"",""6"",""13764""
","""event"",""trial"",""time""
""focus"",""6"",""14629""
","""event"",""trial"",""time""
""fullscreenenter"",""1"",""1434""
","
","","","-1","","","22","5219","465","&#9728;","elianto","#f73b6a7A","-1","-1","1","0","[]","0","1","","","5219","13","0","4","lose","no-go","0"
"pit-trial","131","989587","0.0-17.0","battery-v0.2","","""event"",""trial"",""time""
""fullscreenenter"",""1"",""1434""
""blur"",""6"",""13764""
""focus"",""6"",""14629""
","""event"",""trial"",""time""
""blur"",""6"",""13764""
","""event"",""trial"",""time""
""focus"",""6"",""14629""
","""event"",""trial"",""time""
""fullscreenenter"",""1"",""1434""
","
","","","849.5","","","22","5219","465","&#9752;","elianto","#f73b6a7A"," "," ","1","0","[1699.5999999940395]","1","1","","","5219","14","3","3","lose","go","0"
"pit-trial","132","994450","0.0-18.0","battery-v0.2","","""event"",""trial"",""time""
""fullscreenenter"",""1"",""1434""
""blur"",""6"",""13764""
""focus"",""6"",""14629""
","""event"",""trial"",""time""
""blur"",""6"",""13764""
","""event"",""trial"",""time""
""focus"",""6"",""14629""
","""event"",""trial"",""time""
""fullscreenenter"",""1"",""1434""
","
","","","-1","","","22","5219","465","&#9733;","elianto","#3366ff99","-1","-1","1","+10","[]","0","1","","","5219","15","2","2","win","no-go","0"
"pit-trial","133","998219","0.0-19.0","battery-v0.2","","""event"",""trial"",""time""
""fullscreenenter"",""1"",""1434""
""blur"",""6"",""13764""
""focus"",""6"",""14629""
","""event"",""trial"",""time""
""blur"",""6"",""13764""
","""event"",""trial"",""time""
""focus"",""6"",""14629""
","""event"",""trial"",""time""
""fullscreenenter"",""1"",""1434""
","
","","","909.8999999985099","","","22","5219","465","&#9730;","elianto","#3366ff99"," "," ","1","+10","[1761.7000000029802]","1","1","","","5219","16","1","1","win","go","0"
"pit-trial","134","1001883","0.0-20.0","battery-v0.2","","""event"",""trial"",""time""
""fullscreenenter"",""1"",""1434""
""blur"",""6"",""13764""
""focus"",""6"",""14629""
","""event"",""trial"",""time""
""blur"",""6"",""13764""
","""event"",""trial"",""time""
""focus"",""6"",""14629""
","""event"",""trial"",""time""
""fullscreenenter"",""1"",""1434""
","
","","","806.5","","","22","5219","465","&#9730;","elianto","#3366ff99"," "," ","1","+10","[1658.4000000059605]","1","1","","","5219","17","1","1","win","go","0"
"pit-trial","135","1005451","0.0-21.0","battery-v0.2","","""event"",""trial"",""time""
""fullscreenenter"",""1"",""1434""
""blur"",""6"",""13764""
""focus"",""6"",""14629""
","""event"",""trial"",""time""
""blur"",""6"",""13764""
","""event"",""trial"",""time""
""focus"",""6"",""14629""
","""event"",""trial"",""time""
""fullscreenenter"",""1"",""1434""
","
","","","707.8999999985099","","","22","5219","465","&#9752;","elianto","#f73b6a7A"," "," ","1","0","[1558]","1","1","","","5219","18","3","3","lose","go","0"
"pit-trial","136","1010314","0.0-22.0","battery-v0.2","","""event"",""trial"",""time""
""fullscreenenter"",""1"",""1434""
""blur"",""6"",""13764""
""focus"",""6"",""14629""
","""event"",""trial"",""time""
""blur"",""6"",""13764""
","""event"",""trial"",""time""
""focus"",""6"",""14629""
","""event"",""trial"",""time""
""fullscreenenter"",""1"",""1434""
","
","","","-1","","","22","5219","465","&#9733;","elianto","#3366ff99","-1","-1","1","+10","[]","0","1","","","5219","19","2","2","win","no-go","0"
"pit-trial","137","1015178","0.0-23.0","battery-v0.2","","""event"",""trial"",""time""
""fullscreenenter"",""1"",""1434""
""blur"",""6"",""13764""
""focus"",""6"",""14629""
","""event"",""trial"",""time""
""blur"",""6"",""13764""
","""event"",""trial"",""time""
""focus"",""6"",""14629""
","""event"",""trial"",""time""
""fullscreenenter"",""1"",""1434""
","
","","","-1","","","22","5219","465","&#9728;","elianto","#f73b6a7A","-1","-1","1","0","[]","0","1","","","5219","20","0","4","lose","no-go","0"
"pit-instructions","138","1027867","0.0-24.0","battery-v0.2","","""event"",""trial"",""time""
""fullscreenenter"",""1"",""1434""
""blur"",""6"",""13764""
""focus"",""6"",""14629""
","""event"",""trial"",""time""
""blur"",""6"",""13764""
","""event"",""trial"",""time""
""focus"",""6"",""14629""
","""event"",""trial"",""time""
""fullscreenenter"",""1"",""1434""
","
","","[{""page_index"":0,""viewing_time"":5805.10000000149},{""page_index"":1,""viewing_time"":6879.20000000298}]","12684.70000000298","","","","","","","","","","","","","","","","","","","","","","","",""
"pit-trial","139","1032049","0.0-25.0","battery-v0.2","","""event"",""trial"",""time""
""fullscreenenter"",""1"",""1434""
""blur"",""6"",""13764""
""focus"",""6"",""14629""
","""event"",""trial"",""time""
""blur"",""6"",""13764""
","""event"",""trial"",""time""
""focus"",""6"",""14629""
","""event"",""trial"",""time""
""fullscreenenter"",""1"",""1434""
","
","","","1310.2999999970198","","","22","5219","465","d","elianto","#3366ff99","-1"," ","0","0","[2161.5999999940395]","1","2","","","5219","21","1","2","win","no-go","0"
"pit-trial","140","1035981","0.0-26.0","battery-v0.2","","""event"",""trial"",""time""
""fullscreenenter"",""1"",""1434""
""blur"",""6"",""13764""
""focus"",""6"",""14629""
","""event"",""trial"",""time""
""blur"",""6"",""13764""
","""event"",""trial"",""time""
""focus"",""6"",""14629""
","""event"",""trial"",""time""
""fullscreenenter"",""1"",""1434""
","
","","","1067.2000000029802","","","22","5219","465","w","elianto","#f73b6a7A","-1"," ","0","-10","[1919.7999999970198]","1","2","","","5219","22","3","4","lose","no-go","0"
"pit-trial","141","1040864","0.0-27.0","battery-v0.2","","""event"",""trial"",""time""
""fullscreenenter"",""1"",""1434""
""blur"",""6"",""13764""
""focus"",""6"",""14629""
","""event"",""trial"",""time""
""blur"",""6"",""13764""
","""event"",""trial"",""time""
""focus"",""6"",""14629""
","""event"",""trial"",""time""
""fullscreenenter"",""1"",""1434""
","
","","","-1","","","22","5219","465","e","elianto","#f73b6a7A"," ","-1","0","-10","[]","0","2","","","5219","23","2","3","lose","go","0"
"pit-trial","142","1044516","0.0-28.0","battery-v0.2","","""event"",""trial"",""time""
""fullscreenenter"",""1"",""1434""
""blur"",""6"",""13764""
""focus"",""6"",""14629""
","""event"",""trial"",""time""
""blur"",""6"",""13764""
","""event"",""trial"",""time""
""focus"",""6"",""14629""
","""event"",""trial"",""time""
""fullscreenenter"",""1"",""1434""
","
","","","782.6000000014901","","","22","5219","465","j","elianto","#f73b6a7A"," "," ","1","0","[1637.2000000029802]","1","2","","","5219","24","0","3","lose","go","0"
"pit-trial","143","1048193","0.0-29.0","battery-v0.2","","""event"",""trial"",""time""
""fullscreenenter"",""1"",""1434""
""blur"",""6"",""13764""
""focus"",""6"",""14629""
","""event"",""trial"",""time""
""blur"",""6"",""13764""
","""event"",""trial"",""time""
""focus"",""6"",""14629""
","""event"",""trial"",""time""
""fullscreenenter"",""1"",""1434""
","
","","","802","","","22","5219","465","e","elianto","#f73b6a7A"," "," ","1","0","[1653.1999999955297]","1","2","","","5219","25","2","3","lose","go","0"
"pit-trial","144","1051988","0.0-30.0","battery-v0.2","","""event"",""trial"",""time""
""fullscreenenter"",""1"",""1434""
""blur"",""6"",""13764""
""focus"",""6"",""14629""
","""event"",""trial"",""time""
""blur"",""6"",""13764""
","""event"",""trial"",""time""
""focus"",""6"",""14629""
","""event"",""trial"",""time""
""fullscreenenter"",""1"",""1434""
","
","","","930.6000000014901","","","22","5219","465","d","elianto","#3366ff99","-1"," ","0","0","[1784.6000000014901]","1","2","","","5219","26","1","2","win","no-go","0"
"pit-trial","145","1056865","0.0-31.0","battery-v0.2","","""event"",""trial"",""time""
""fullscreenenter"",""1"",""1434""
""blur"",""6"",""13764""
""focus"",""6"",""14629""
","""event"",""trial"",""time""
""blur"",""6"",""13764""
","""event"",""trial"",""time""
""focus"",""6"",""14629""
","""event"",""trial"",""time""
""fullscreenenter"",""1"",""1434""
","
","","","-1","","","22","5219","465","w","elianto","#f73b6a7A","-1","-1","1","-10","[]","0","2","","","5219","27","3","4","lose","no-go","1"
"pit-trial","146","1060330","0.0-32.0","battery-v0.2","","""event"",""trial"",""time""
""fullscreenenter"",""1"",""1434""
""blur"",""6"",""13764""
""focus"",""6"",""14629""
","""event"",""trial"",""time""
""blur"",""6"",""13764""
","""event"",""trial"",""time""
""focus"",""6"",""14629""
","""event"",""trial"",""time""
""fullscreenenter"",""1"",""1434""
","
","","","606.8999999985099","","","22","5219","465","j","elianto","#f73b6a7A"," "," ","1","0","[1457.1999999955297]","1","2","","","5219","28","0","3","lose","go","0"
"pit-trial","147","1064067","0.0-33.0","battery-v0.2","","""event"",""trial"",""time""
""fullscreenenter"",""1"",""1434""
""blur"",""6"",""13764""
""focus"",""6"",""14629""
","""event"",""trial"",""time""
""blur"",""6"",""13764""
","""event"",""trial"",""time""
""focus"",""6"",""14629""
","""event"",""trial"",""time""
""fullscreenenter"",""1"",""1434""
","
","","","874.5999999940395","","","22","5219","465","d","elianto","#3366ff99","-1"," ","0","0","[1728]","1","2","","","5219","29","1","2","win","no-go","0"
"pit-trial","148","1068932","0.0-34.0","battery-v0.2","","""event"",""trial"",""time""
""fullscreenenter"",""1"",""1434""
""blur"",""6"",""13764""
""focus"",""6"",""14629""
","""event"",""trial"",""time""
""blur"",""6"",""13764""
","""event"",""trial"",""time""
""focus"",""6"",""14629""
","""event"",""trial"",""time""
""fullscreenenter"",""1"",""1434""
","
","","","-1","","","22","5219","465","w","elianto","#f73b6a7A","-1","-1","1","0","[]","0","2","","","5219","30","3","4","lose","no-go","0"
"pit-trial","149","1072651","0.0-35.0","battery-v0.2","","""event"",""trial"",""time""
""fullscreenenter"",""1"",""1434""
""blur"",""6"",""13764""
""focus"",""6"",""14629""
","""event"",""trial"",""time""
""blur"",""6"",""13764""
","""event"",""trial"",""time""
""focus"",""6"",""14629""
","""event"",""trial"",""time""
""fullscreenenter"",""1"",""1434""
","
","","","856.1000000014901","","","22","5219","465","j","elianto","#f73b6a7A"," "," ","1","0","[1707.5]","1","2","","","5219","31","0","3","lose","go","0"
"pit-trial","150","1076027","0.0-36.0","battery-v0.2","","""event"",""trial"",""time""
""fullscreenenter"",""1"",""1434""
""blur"",""6"",""13764""
""focus"",""6"",""14629""
","""event"",""trial"",""time""
""blur"",""6"",""13764""
","""event"",""trial"",""time""
""focus"",""6"",""14629""
","""event"",""trial"",""time""
""fullscreenenter"",""1"",""1434""
","
","","","517.8000000044703","","","22","5219","465","e","elianto","#f73b6a7A"," "," ","1","0","[1369.6000000014901]","1","2","","","5219","32","2","3","lose","go","0"
"pit-trial","151","1080115","0.0-37.0","battery-v0.2","","""event"",""trial"",""time""
""fullscreenenter"",""1"",""1434""
""blur"",""6"",""13764""
""focus"",""6"",""14629""
","""event"",""trial"",""time""
""blur"",""6"",""13764""
","""event"",""trial"",""time""
""focus"",""6"",""14629""
","""event"",""trial"",""time""
""fullscreenenter"",""1"",""1434""
","
","","","1226.3999999985099","","","22","5219","465","w","elianto","#f73b6a7A","-1"," ","0","-10","[2076.5]","1","2","","","5219","33","3","4","lose","no-go","0"
"pit-trial","152","1083682","0.0-38.0","battery-v0.2","","""event"",""trial"",""time""
""fullscreenenter"",""1"",""1434""
""blur"",""6"",""13764""
""focus"",""6"",""14629""
","""event"",""trial"",""time""
""blur"",""6"",""13764""
","""event"",""trial"",""time""
""focus"",""6"",""14629""
","""event"",""trial"",""time""
""fullscreenenter"",""1"",""1434""
","
","","","704","","","22","5219","465","e","elianto","#f73b6a7A"," "," ","1","0","[1555.2000000029802]","1","2","","","5219","34","2","3","lose","go","0"
"pit-trial","153","1088547","0.0-39.0","battery-v0.2","","""event"",""trial"",""time""
""fullscreenenter"",""1"",""1434""
""blur"",""6"",""13764""
""focus"",""6"",""14629""
","""event"",""trial"",""time""
""blur"",""6"",""13764""
","""event"",""trial"",""time""
""focus"",""6"",""14629""
","""event"",""trial"",""time""
""fullscreenenter"",""1"",""1434""
","
","","","-1","","","22","5219","465","d","elianto","#3366ff99","-1","-1","1","+10","[]","0","2","","","5219","35","1","2","win","no-go","0"
"pit-trial","154","1092419","0.0-40.0","battery-v0.2","","""event"",""trial"",""time""
""fullscreenenter"",""1"",""1434""
""blur"",""6"",""13764""
""focus"",""6"",""14629""
","""event"",""trial"",""time""
""blur"",""6"",""13764""
","""event"",""trial"",""time""
""focus"",""6"",""14629""
","""event"",""trial"",""time""
""fullscreenenter"",""1"",""1434""
","
","","","1013.1000000014901","","","22","5219","465","j","elianto","#f73b6a7A"," "," ","1","0","[1865.2999999970198]","1","2","","","5219","36","0","3","lose","go","0"
"pit-trial","155","1097283","0.0-41.0","battery-v0.2","","""event"",""trial"",""time""
""fullscreenenter"",""1"",""1434""
""blur"",""6"",""13764""
""focus"",""6"",""14629""
","""event"",""trial"",""time""
""blur"",""6"",""13764""
","""event"",""trial"",""time""
""focus"",""6"",""14629""
","""event"",""trial"",""time""
""fullscreenenter"",""1"",""1434""
","
","","","-1","","","22","5219","465","w","elianto","#f73b6a7A","-1","-1","1","0","[]","0","2","","","5219","37","3","4","lose","no-go","0"
"pit-trial","156","1101259","0.0-42.0","battery-v0.2","","""event"",""trial"",""time""
""fullscreenenter"",""1"",""1434""
""blur"",""6"",""13764""
""focus"",""6"",""14629""
","""event"",""trial"",""time""
""blur"",""6"",""13764""
","""event"",""trial"",""time""
""focus"",""6"",""14629""
","""event"",""trial"",""time""
""fullscreenenter"",""1"",""1434""
","
","","","1112.4000000059605","","","22","5219","465","j","elianto","#f73b6a7A"," "," ","1","0","[1963.3000000044703]","1","2","","","5219","38","0","3","lose","go","0"
"pit-trial","157","1105164","0.0-43.0","battery-v0.2","","""event"",""trial"",""time""
""fullscreenenter"",""1"",""1434""
""blur"",""6"",""13764""
""focus"",""6"",""14629""
","""event"",""trial"",""time""
""blur"",""6"",""13764""
","""event"",""trial"",""time""
""focus"",""6"",""14629""
","""event"",""trial"",""time""
""fullscreenenter"",""1"",""1434""
","
","","","1038.1999999955297","","","22","5219","465","e","elianto","#f73b6a7A"," "," ","1","-10","[1890.2000000029802]","1","2","","","5219","39","2","3","lose","go","1"
"pit-trial","158","1110028","0.0-44.0","battery-v0.2","","""event"",""trial"",""time""
""fullscreenenter"",""1"",""1434""
""blur"",""6"",""13764""
""focus"",""6"",""14629""
","""event"",""trial"",""time""
""blur"",""6"",""13764""
","""event"",""trial"",""time""
""focus"",""6"",""14629""
","""event"",""trial"",""time""
""fullscreenenter"",""1"",""1434""
","
","","","-1","","","22","5219","465","d","elianto","#3366ff99","-1","-1","1","+10","[]","0","2","","","5219","40","1","2","win","no-go","0"
"pit-trial","159","1114899","0.0-45.0","battery-v0.2","","""event"",""trial"",""time""
""fullscreenenter"",""1"",""1434""
""blur"",""6"",""13764""
""focus"",""6"",""14629""
","""event"",""trial"",""time""
""blur"",""6"",""13764""
","""event"",""trial"",""time""
""focus"",""6"",""14629""
","""event"",""trial"",""time""
""fullscreenenter"",""1"",""1434""
","
","","","-1","","","22","5219","465","d","elianto","#3366ff99","-1","-1","1","+10","[]","0","2","","","5219","41","1","2","win","no-go","0"
"pit-trial","160","1118492","0.0-46.0","battery-v0.2","","""event"",""trial"",""time""
""fullscreenenter"",""1"",""1434""
""blur"",""6"",""13764""
""focus"",""6"",""14629""
","""event"",""trial"",""time""
""blur"",""6"",""13764""
","""event"",""trial"",""time""
""focus"",""6"",""14629""
","""event"",""trial"",""time""
""fullscreenenter"",""1"",""1434""
","
","","","733.7000000029802","","","22","5219","465","e","elianto","#f73b6a7A"," "," ","1","0","[1584.3000000044703]","1","2","","","5219","42","2","3","lose","go","0"
"pit-trial","161","1123355","0.0-47.0","battery-v0.2","","""event"",""trial"",""time""
""fullscreenenter"",""1"",""1434""
""blur"",""6"",""13764""
""focus"",""6"",""14629""
","""event"",""trial"",""time""
""blur"",""6"",""13764""
","""event"",""trial"",""time""
""focus"",""6"",""14629""
","""event"",""trial"",""time""
""fullscreenenter"",""1"",""1434""
","
","","","-1","","","22","5219","465","w","elianto","#f73b6a7A","-1","-1","1","-10","[]","0","2","","","5219","43","3","4","lose","no-go","1"
"pit-trial","162","1126971","0.0-48.0","battery-v0.2","","""event"",""trial"",""time""
""fullscreenenter"",""1"",""1434""
""blur"",""6"",""13764""
""focus"",""6"",""14629""
","""event"",""trial"",""time""
""blur"",""6"",""13764""
","""event"",""trial"",""time""
""focus"",""6"",""14629""
","""event"",""trial"",""time""
""fullscreenenter"",""1"",""1434""
","
","","","757","","","22","5219","465","j","elianto","#f73b6a7A"," "," ","1","0","[1609.5]","1","2","","","5219","44","0","3","lose","go","0"
"pit-trial","163","1130595","0.0-49.0","battery-v0.2","","""event"",""trial"",""time""
""fullscreenenter"",""1"",""1434""
""blur"",""6"",""13764""
""focus"",""6"",""14629""
","""event"",""trial"",""time""
""blur"",""6"",""13764""
","""event"",""trial"",""time""
""focus"",""6"",""14629""
","""event"",""trial"",""time""
""fullscreenenter"",""1"",""1434""
","
","","","761.2999999970198","","","22","5219","465","e","elianto","#f73b6a7A"," "," ","1","0","[1614.5999999940395]","1","2","","","5219","45","2","3","lose","go","0"
"pit-trial","164","1133963","0.0-50.0","battery-v0.2","","""event"",""trial"",""time""
""fullscreenenter"",""1"",""1434""
""blur"",""6"",""13764""
""focus"",""6"",""14629""
","""event"",""trial"",""time""
""blur"",""6"",""13764""
","""event"",""trial"",""time""
""focus"",""6"",""14629""
","""event"",""trial"",""time""
""fullscreenenter"",""1"",""1434""
","
","","","508.70000000298023","","","22","5219","465","w","elianto","#f73b6a7A","-1"," ","0","-10","[1361.2000000029802]","1","2","","","5219","46","3","4","lose","no-go","0"
"pit-trial","165","1137468","0.0-51.0","battery-v0.2","","""event"",""trial"",""time""
""fullscreenenter"",""1"",""1434""
""blur"",""6"",""13764""
""focus"",""6"",""14629""
","""event"",""trial"",""time""
""blur"",""6"",""13764""
","""event"",""trial"",""time""
""focus"",""6"",""14629""
","""event"",""trial"",""time""
""fullscreenenter"",""1"",""1434""
","
","","","643.7000000029802","","","22","5219","465","j","elianto","#f73b6a7A"," "," ","1","0","[1495.3000000044703]","1","2","","","5219","47","0","3","lose","go","0"
"pit-trial","166","1142331","0.0-52.0","battery-v0.2","","""event"",""trial"",""time""
""fullscreenenter"",""1"",""1434""
""blur"",""6"",""13764""
""focus"",""6"",""14629""
","""event"",""trial"",""time""
""blur"",""6"",""13764""
","""event"",""trial"",""time""
""focus"",""6"",""14629""
","""event"",""trial"",""time""
""fullscreenenter"",""1"",""1434""
","
","","","-1","","","22","5219","465","d","elianto","#3366ff99","-1","-1","1","+10","[]","0","2","","","5219","48","1","2","win","no-go","0"
"pit-trial","167","1147195","0.0-53.0","battery-v0.2","","""event"",""trial"",""time""
""fullscreenenter"",""1"",""1434""
""blur"",""6"",""13764""
""focus"",""6"",""14629""
","""event"",""trial"",""time""
""blur"",""6"",""13764""
","""event"",""trial"",""time""
""focus"",""6"",""14629""
","""event"",""trial"",""time""
""fullscreenenter"",""1"",""1434""
","
","","","-1","","","22","5219","465","w","elianto","#f73b6a7A","-1","-1","1","0","[]","0","2","","","5219","49","3","4","lose","no-go","0"
"pit-trial","168","1150618","0.0-54.0","battery-v0.2","","""event"",""trial"",""time""
""fullscreenenter"",""1"",""1434""
""blur"",""6"",""13764""
""focus"",""6"",""14629""
","""event"",""trial"",""time""
""blur"",""6"",""13764""
","""event"",""trial"",""time""
""focus"",""6"",""14629""
","""event"",""trial"",""time""
""fullscreenenter"",""1"",""1434""
","
","","","563.6999999955297","","","22","5219","465","j","elianto","#f73b6a7A"," "," ","1","0","[1415.3999999985099]","1","2","","","5219","50","0","3","lose","go","0"
"pit-trial","169","1155483","0.0-55.0","battery-v0.2","","""event"",""trial"",""time""
""fullscreenenter"",""1"",""1434""
""blur"",""6"",""13764""
""focus"",""6"",""14629""
","""event"",""trial"",""time""
""blur"",""6"",""13764""
","""event"",""trial"",""time""
""focus"",""6"",""14629""
","""event"",""trial"",""time""
""fullscreenenter"",""1"",""1434""
","
","","","-1","","","22","5219","465","d","elianto","#3366ff99","-1","-1","1","+10","[]","0","2","","","5219","51","1","2","win","no-go","0"
"pit-trial","170","1159644","0.0-56.0","battery-v0.2","","""event"",""trial"",""time""
""fullscreenenter"",""1"",""1434""
""blur"",""6"",""13764""
""focus"",""6"",""14629""
","""event"",""trial"",""time""
""blur"",""6"",""13764""
","""event"",""trial"",""time""
""focus"",""6"",""14629""
","""event"",""trial"",""time""
""fullscreenenter"",""1"",""1434""
","
","","","1298.6000000014901","","","22","5219","465","e","elianto","#f73b6a7A"," "," ","1","-10","[2151.2000000029802]","1","2","","","5219","52","2","3","lose","go","1"
"pit-trial","171","1163043","0.0-57.0","battery-v0.2","","""event"",""trial"",""time""
""fullscreenenter"",""1"",""1434""
""blur"",""6"",""13764""
""focus"",""6"",""14629""
","""event"",""trial"",""time""
""blur"",""6"",""13764""
","""event"",""trial"",""time""
""focus"",""6"",""14629""
","""event"",""trial"",""time""
""fullscreenenter"",""1"",""1434""
","
","","","539.8999999985099","","","22","5219","465","j","elianto","#f73b6a7A"," "," ","1","0","[1392]","1","2","","","5219","53","0","3","lose","go","0"
"pit-trial","172","1167906","0.0-58.0","battery-v0.2","","""event"",""trial"",""time""
""fullscreenenter"",""1"",""1434""
""blur"",""6"",""13764""
""focus"",""6"",""14629""
","""event"",""trial"",""time""
""blur"",""6"",""13764""
","""event"",""trial"",""time""
""focus"",""6"",""14629""
","""event"",""trial"",""time""
""fullscreenenter"",""1"",""1434""
","
","","","-1","","","22","5219","465","d","elianto","#3366ff99","-1","-1","1","+10","[]","0","2","","","5219","54","1","2","win","no-go","0"
"pit-trial","173","1172782","0.0-59.0","battery-v0.2","","""event"",""trial"",""time""
""fullscreenenter"",""1"",""1434""
""blur"",""6"",""13764""
""focus"",""6"",""14629""
","""event"",""trial"",""time""
""blur"",""6"",""13764""
","""event"",""trial"",""time""
""focus"",""6"",""14629""
","""event"",""trial"",""time""
""fullscreenenter"",""1"",""1434""
","
","","","-1","","","22","5219","465","w","elianto","#f73b6a7A","-1","-1","1","0","[]","0","2","","","5219","55","3","4","lose","no-go","0"
"pit-trial","174","1176275","0.0-60.0","battery-v0.2","","""event"",""trial"",""time""
""fullscreenenter"",""1"",""1434""
""blur"",""6"",""13764""
""focus"",""6"",""14629""
","""event"",""trial"",""time""
""blur"",""6"",""13764""
","""event"",""trial"",""time""
""focus"",""6"",""14629""
","""event"",""trial"",""time""
""fullscreenenter"",""1"",""1434""
","
","","","635.3000000044703","","","22","5219","465","e","elianto","#f73b6a7A"," "," ","1","0","[1486.3000000044703]","1","2","","","5219","56","2","3","lose","go","0"
"pit-trial","175","1181138","0.0-61.0","battery-v0.2","","""event"",""trial"",""time""
""fullscreenenter"",""1"",""1434""
""blur"",""6"",""13764""
""focus"",""6"",""14629""
","""event"",""trial"",""time""
""blur"",""6"",""13764""
","""event"",""trial"",""time""
""focus"",""6"",""14629""
","""event"",""trial"",""time""
""fullscreenenter"",""1"",""1434""
","
","","","-1","","","22","5219","465","w","elianto","#f73b6a7A","-1","-1","1","0","[]","0","2","","","5219","57","3","4","lose","no-go","0"
"pit-trial","176","1184594","0.0-62.0","battery-v0.2","","""event"",""trial"",""time""
""fullscreenenter"",""1"",""1434""
""blur"",""6"",""13764""
""focus"",""6"",""14629""
","""event"",""trial"",""time""
""blur"",""6"",""13764""
","""event"",""trial"",""time""
""focus"",""6"",""14629""
","""event"",""trial"",""time""
""fullscreenenter"",""1"",""1434""
","
","","","594","","","22","5219","465","e","elianto","#f73b6a7A"," "," ","1","0","[1447.4000000059605]","1","2","","","5219","58","2","3","lose","go","0"
"pit-trial","177","1187971","0.0-63.0","battery-v0.2","","""event"",""trial"",""time""
""fullscreenenter"",""1"",""1434""
""blur"",""6"",""13764""
""focus"",""6"",""14629""
","""event"",""trial"",""time""
""blur"",""6"",""13764""
","""event"",""trial"",""time""
""focus"",""6"",""14629""
","""event"",""trial"",""time""
""fullscreenenter"",""1"",""1434""
","
","","","513.5","","","22","5219","465","j","elianto","#f73b6a7A"," "," ","1","0","[1365.2000000029802]","1","2","","","5219","59","0","3","lose","go","0"
"pit-trial","178","1192082","0.0-64.0","battery-v0.2","","""event"",""trial"",""time""
""fullscreenenter"",""1"",""1434""
""blur"",""6"",""13764""
""focus"",""6"",""14629""
","""event"",""trial"",""time""
""blur"",""6"",""13764""
","""event"",""trial"",""time""
""focus"",""6"",""14629""
","""event"",""trial"",""time""
""fullscreenenter"",""1"",""1434""
","
","","","1247.1999999955297","","","22","5219","465","s","elianto","#3366ff99"," "," ","1","+10","[2098.5]","1","2","","","5219","60","4","1","win","go","0"
"pit-trial","179","1196946","0.0-65.0","battery-v0.2","","""event"",""trial"",""time""
""fullscreenenter"",""1"",""1434""
""blur"",""6"",""13764""
""focus"",""6"",""14629""
","""event"",""trial"",""time""
""blur"",""6"",""13764""
","""event"",""trial"",""time""
""focus"",""6"",""14629""
","""event"",""trial"",""time""
""fullscreenenter"",""1"",""1434""
","
","","","-1","","","22","5219","465","d","elianto","#3366ff99","-1","-1","1","+10","[]","0","2","","","5219","61","1","2","win","no-go","0"
"pit-trial","180","1201817","0.0-66.0","battery-v0.2","","""event"",""trial"",""time""
""fullscreenenter"",""1"",""1434""
""blur"",""6"",""13764""
""focus"",""6"",""14629""
","""event"",""trial"",""time""
""blur"",""6"",""13764""
","""event"",""trial"",""time""
""focus"",""6"",""14629""
","""event"",""trial"",""time""
""fullscreenenter"",""1"",""1434""
","
","","","-1","","","22","5219","465","w","elianto","#f73b6a7A","-1","-1","1","-10","[]","0","2","","","5219","62","3","4","lose","no-go","1"
"pit-trial","181","1205738","0.0-67.0","battery-v0.2","","""event"",""trial"",""time""
""fullscreenenter"",""1"",""1434""
""blur"",""6"",""13764""
""focus"",""6"",""14629""
","""event"",""trial"",""time""
""blur"",""6"",""13764""
","""event"",""trial"",""time""
""focus"",""6"",""14629""
","""event"",""trial"",""time""
""fullscreenenter"",""1"",""1434""
","
","","","1061.6000000014901","","","22","5219","465","s","elianto","#3366ff99"," "," ","1","+10","[1915.1000000014901]","1","2","","","5219","63","4","1","win","go","0"
"pit-trial","182","1209139","0.0-68.0","battery-v0.2","","""event"",""trial"",""time""
""fullscreenenter"",""1"",""1434""
""blur"",""6"",""13764""
""focus"",""6"",""14629""
","""event"",""trial"",""time""
""blur"",""6"",""13764""
","""event"",""trial"",""time""
""focus"",""6"",""14629""
","""event"",""trial"",""time""
""fullscreenenter"",""1"",""1434""
","
","","","536.1000000014901","","","22","5219","465","e","elianto","#f73b6a7A"," "," ","1","0","[1388.2000000029802]","1","2","","","5219","64","2","3","lose","go","0"
"pit-trial","183","1213714","0.0-69.0","battery-v0.2","","""event"",""trial"",""time""
""fullscreenenter"",""1"",""1434""
""blur"",""6"",""13764""
""focus"",""6"",""14629""
","""event"",""trial"",""time""
""blur"",""6"",""13764""
","""event"",""trial"",""time""
""focus"",""6"",""14629""
","""event"",""trial"",""time""
""fullscreenenter"",""1"",""1434""
","
","","","1712.3999999985099","","","22","5219","465","s","elianto","#3366ff99"," "," ","1","0","[2564.39999999851]","1","2","","","5219","65","4","1","win","go","1"
"pit-trial","184","1217642","0.0-70.0","battery-v0.2","","""event"",""trial"",""time""
""fullscreenenter"",""1"",""1434""
""blur"",""6"",""13764""
""focus"",""6"",""14629""
","""event"",""trial"",""time""
""blur"",""6"",""13764""
","""event"",""trial"",""time""
""focus"",""6"",""14629""
","""event"",""trial"",""time""
""fullscreenenter"",""1"",""1434""
","
","","","1065.8999999985099","","","22","5219","465","p","elianto","#3366ff99","-1"," ","0","0","[1918.8000000044703]","1","2","","","5219","66","5","2","win","no-go","0"
"pit-trial","185","1222506","0.0-71.0","battery-v0.2","","""event"",""trial"",""time""
""fullscreenenter"",""1"",""1434""
""blur"",""6"",""13764""
""focus"",""6"",""14629""
","""event"",""trial"",""time""
""blur"",""6"",""13764""
","""event"",""trial"",""time""
""focus"",""6"",""14629""
","""event"",""trial"",""time""
""fullscreenenter"",""1"",""1434""
","
","","","-1","","","22","5219","465","d","elianto","#3366ff99","-1","-1","1","0","[]","0","2","","","5219","67","1","2","win","no-go","1"
"pit-trial","186","1227371","0.0-72.0","battery-v0.2","","""event"",""trial"",""time""
""fullscreenenter"",""1"",""1434""
""blur"",""6"",""13764""
""focus"",""6"",""14629""
","""event"",""trial"",""time""
""blur"",""6"",""13764""
","""event"",""trial"",""time""
""focus"",""6"",""14629""
","""event"",""trial"",""time""
""fullscreenenter"",""1"",""1434""
","
","","","-1","","","22","5219","465","w","elianto","#f73b6a7A","-1","-1","1","-10","[]","0","2","","","5219","68","3","4","lose","no-go","1"
"pit-trial","187","1231866","0.0-73.0","battery-v0.2","","""event"",""trial"",""time""
""fullscreenenter"",""1"",""1434""
""blur"",""6"",""13764""
""focus"",""6"",""14629""
","""event"",""trial"",""time""
""blur"",""6"",""13764""
","""event"",""trial"",""time""
