"trial_type","trial_index","time_elapsed","internal_node_id","task_version","subject_id","interactions","blur_events","focus_events","fullscreenenter_events","fullscreenexit_events","success","view_history","rt","responses","num_errors","age","subject","participantId","rune","rune_set","hex","correct","choice","accuracy","outcome","keys","total_keys","block","practice","value","sub","trial","stimulus","robot","valence","action","sham"
"pavlovia","0","14","0.0-0.0","battery-v0.2","","""event"",""trial"",""time""
""fullscreenenter"",""1"",""4995""
","
","
","""event"",""trial"",""time""
""fullscreenenter"",""1"",""4995""
","
","","","","","","","","","","","","","","","","","","","","","","","","","","",""
"fullscreen","1","5989","0.0-1.0","battery-v0.2","","""event"",""trial"",""time""
""fullscreenenter"",""1"",""4995""
","
","
","""event"",""trial"",""time""
""fullscreenenter"",""1"",""4995""
","
","true","","","","","","","","","","","","","","","","","","","","","","","","","",""
"pit-instructions","2","10485","0.0-2.0-0.0","battery-v0.2","","""event"",""trial"",""time""
""fullscreenenter"",""1"",""4995""
","
","
","""event"",""trial"",""time""
""fullscreenenter"",""1"",""4995""
","
","","[{""page_index"":0,""viewing_time"":4493}]","4493.899999976158","","","","","","","","","","","","","","","","","","","","","","","",""
"pit-comprehension","3","13335","0.0-2.0-1.0-0.0","battery-v0.2","","""event"",""trial"",""time""
""fullscreenenter"",""1"",""4995""
","
","
","""event"",""trial"",""time""
""fullscreenenter"",""1"",""4995""
","
","","","2846.5","[""shark""]","0","12","3206","2477","","","","","","","","","","","","","","","","","","",""
"pit-instructions","4","14835","0.0-2.0-1.0-1.0","battery-v0.2","","""event"",""trial"",""time""
""fullscreenenter"",""1"",""4995""
","
","
","""event"",""trial"",""time""
""fullscreenenter"",""1"",""4995""
","
","","[{""page_index"":0,""viewing_time"":1488.3999999761581}]","1489","","","","","","","","","","","","","","","","","","","","","","","",""
"pit-comprehension","5","17367","0.0-2.0-2.0-0.0","battery-v0.2","","""event"",""trial"",""time""
""fullscreenenter"",""1"",""4995""
","
","
","""event"",""trial"",""time""
""fullscreenenter"",""1"",""4995""
","
","","","2528.600000023842","[""tiger""]","0","12","3206","2477","","","","","","","","","","","","","","","","","","",""
"pit-instructions","6","17968","0.0-2.0-2.0-1.0","battery-v0.2","","""event"",""trial"",""time""
""fullscreenenter"",""1"",""4995""
","
","
","""event"",""trial"",""time""
""fullscreenenter"",""1"",""4995""
","
","","[{""page_index"":0,""viewing_time"":598.7000000476837}]","599.2999999523163","","","","","","","","","","","","","","","","","","","","","","","",""
"pit-instructions","7","107480","0.0-2.0-3.0","battery-v0.2","","""event"",""trial"",""time""
""fullscreenenter"",""1"",""4995""
","
","
","""event"",""trial"",""time""
""fullscreenenter"",""1"",""4995""
","
","","[{""page_index"":0,""viewing_time"":8546.399999976158},{""page_index"":1,""viewing_time"":6266.699999928474},{""page_index"":2,""viewing_time"":7082.600000023842},{""page_index"":3,""viewing_time"":5084.700000047684},{""page_index"":4,""viewing_time"":5331.899999976158},{""page_index"":5,""viewing_time"":5752.100000023842},{""page_index"":6,""viewing_time"":6865.100000023842},{""page_index"":7,""viewing_time"":6216.5},{""page_index"":8,""viewing_time"":6295.5},{""page_index"":9,""viewing_time"":8454.299999952316},{""page_index"":10,""viewing_time"":7968.600000023842},{""page_index"":11,""viewing_time"":4050.6999999284744},{""page_index"":12,""viewing_time"":6601.800000071526},{""page_index"":13,""viewing_time"":4991.600000023842}]","89509.29999995232","","","","","","","","","","","","","","","","","","","","","","","",""
"pit-trial","8","110770","0.0-2.0-4.0-0.0","battery-v0.2","","""event"",""trial"",""time""
""fullscreenenter"",""1"",""4995""
","
","
","""event"",""trial"",""time""
""fullscreenenter"",""1"",""4995""
","
","","","428.8000000715256","","","12","3206","2477","&#9784;","elianto","#FFFFF080"," "," ","1","&#10004","[1281.5999999046326,2980.5999999046326]","2","0","0","","","","","","","",""
"pit-trial","9","114500","0.0-2.0-4.1-0.1","battery-v0.2","","""event"",""trial"",""time""
""fullscreenenter"",""1"",""4995""
","
","
","""event"",""trial"",""time""
""fullscreenenter"",""1"",""4995""
","
","","","865.8999999761581","","","12","3206","2477","&#9784;","elianto","#FFFFF080"," "," ","1","&#10004","[1719.8999999761581,3234.8000000715256,3482.2000000476837]","3","0","0","","","","","","","",""
"pit-trial","10","117726","0.0-2.0-4.2-0.2","battery-v0.2","","""event"",""trial"",""time""
""fullscreenenter"",""1"",""4995""
","
","
","""event"",""trial"",""time""
""fullscreenenter"",""1"",""4995""
","
","","","367","","","12","3206","2477","&#9784;","elianto","#FFFFF080"," "," ","1","&#10004","[1218.8999999761581]","1","0","0","","","","","","","",""
"pit-trial","11","121090","0.0-2.0-4.3-0.3","battery-v0.2","","""event"",""trial"",""time""
""fullscreenenter"",""1"",""4995""
","
","
","""event"",""trial"",""time""
""fullscreenenter"",""1"",""4995""
","
","","","502.7999999523163","","","12","3206","2477","&#9784;","elianto","#FFFFF080"," "," ","1","&#10004","[1357.9000000953674]","1","0","0","","","","","","","",""
"pit-trial","12","124703","0.0-2.0-4.4-0.4","battery-v0.2","","""event"",""trial"",""time""
""fullscreenenter"",""1"",""4995""
","
","
","""event"",""trial"",""time""
""fullscreenenter"",""1"",""4995""
","
","","","756.8999999761581","","","12","3206","2477","&#9784;","elianto","#FFFFF080"," "," ","1","&#10004","[1608.6999999284744]","1","0","0","","","","","","","",""
"pit-instructions","13","147084","0.0-2.0-5.0","battery-v0.2","","""event"",""trial"",""time""
""fullscreenenter"",""1"",""4995""
","
","
","""event"",""trial"",""time""
""fullscreenenter"",""1"",""4995""
","
","","[{""page_index"":0,""viewing_time"":5727.299999952316},{""page_index"":1,""viewing_time"":6117},{""page_index"":2,""viewing_time"":5516.700000047684},{""page_index"":3,""viewing_time"":5016.099999904633}]","22377.799999952316","","","","","","","","","","","","","","","","","","","","","","","",""
"pit-trial","14","151945","0.0-2.0-6.0-0.0","battery-v0.2","","""event"",""trial"",""time""
""fullscreenenter"",""1"",""4995""
","
","
","""event"",""trial"",""time""
""fullscreenenter"",""1"",""4995""
","
","","","-1","","","12","3206","2477","&#9854;","elianto","#FFFFF080","-1","-1","1","&#10004","[]","0","0","1","","","","","","","",""
"pit-trial","15","156807","0.0-2.0-6.1-0.1","battery-v0.2","","""event"",""trial"",""time""
""fullscreenenter"",""1"",""4995""
","
","
","""event"",""trial"",""time""
""fullscreenenter"",""1"",""4995""
","
","","","-1","","","12","3206","2477","&#9854;","elianto","#FFFFF080","-1","-1","1","&#10004","[]","0","0","1","","","","","","","",""
"pit-trial","16","161667","0.0-2.0-6.2-0.2","battery-v0.2","","""event"",""trial"",""time""
""fullscreenenter"",""1"",""4995""
","
","
","""event"",""trial"",""time""
""fullscreenenter"",""1"",""4995""
","
","","","-1","","","12","3206","2477","&#9854;","elianto","#FFFFF080","-1","-1","1","&#10004","[]","0","0","1","","","","","","","",""
"pit-trial","17","166525","0.0-2.0-6.3-0.3","battery-v0.2","","""event"",""trial"",""time""
""fullscreenenter"",""1"",""4995""
","
","
","""event"",""trial"",""time""
""fullscreenenter"",""1"",""4995""
","
","","","-1","","","12","3206","2477","&#9854;","elianto","#FFFFF080","-1","-1","1","&#10004","[]","0","0","1","","","","","","","",""
"pit-trial","18","171387","0.0-2.0-6.4-0.4","battery-v0.2","","""event"",""trial"",""time""
""fullscreenenter"",""1"",""4995""
","
","
","""event"",""trial"",""time""
""fullscreenenter"",""1"",""4995""
","
","","","-1","","","12","3206","2477","&#9854;","elianto","#FFFFF080","-1","-1","1","&#10004","[]","0","0","1","","","","","","","",""
"pit-instructions","19","279934","0.0-2.0-7.0","battery-v0.2","","""event"",""trial"",""time""
""fullscreenenter"",""1"",""4995""
","
","
","""event"",""trial"",""time""
""fullscreenenter"",""1"",""4995""
","
","","[{""page_index"":0,""viewing_time"":5440.799999952316},{""page_index"":1,""viewing_time"":6050.400000095367},{""page_index"":2,""viewing_time"":5183.5},{""page_index"":3,""viewing_time"":5767.299999952316},{""page_index"":4,""viewing_time"":5082.299999952316},{""page_index"":5,""viewing_time"":5100.300000071526},{""page_index"":6,""viewing_time"":5884.399999976158},{""page_index"":7,""viewing_time"":9366.100000023842},{""page_index"":8,""viewing_time"":6066.699999928474},{""page_index"":9,""viewing_time"":5165.600000023842},{""page_index"":10,""viewing_time"":6253.100000023842},{""page_index"":11,""viewing_time"":4332.399999976158},{""page_index"":12,""viewing_time"":6398.899999976158},{""page_index"":13,""viewing_time"":6050.400000095367},{""page_index"":14,""viewing_time"":7384.199999928474},{""page_index"":15,""viewing_time"":6549.200000047684},{""page_index"":16,""viewing_time"":6382.699999928474},{""page_index"":17,""viewing_time"":6085}]","108544.10000002384","","","","","","","","","","","","","","","","","","","","","","","",""
"pit-trial","20","283341","0.0-2.0-8.0-0.0","battery-v0.2","","""event"",""trial"",""time""
""fullscreenenter"",""1"",""4995""
","
","
","""event"",""trial"",""time""
""fullscreenenter"",""1"",""4995""
","
","","","548.6000000238419","","","12","3206","2477","&#9776;","elianto","#3366ff99"," "," ","1","+10","[1402]","1","0","1","","","","","","","",""
"pit-trial","21","286905","0.0-2.0-8.0-1.0","battery-v0.2","","""event"",""trial"",""time""
""fullscreenenter"",""1"",""4995""
","
","
","""event"",""trial"",""time""
""fullscreenenter"",""1"",""4995""
","
","","","703.9000000953674","","","12","3206","2477","&#9776;","elianto","#3366ff99"," "," ","1","+10","[1555.2000000476837]","1","0","1","","","","","","","",""
"pit-trial","22","290275","0.0-2.0-8.0-2.0","battery-v0.2","","""event"",""trial"",""time""
""fullscreenenter"",""1"",""4995""
","
","
","""event"",""trial"",""time""
""fullscreenenter"",""1"",""4995""
","
","","","512.7999999523163","","","12","3206","2477","&#9776;","elianto","#3366ff99"," "," ","1","+10","[1365.5999999046326]","1","0","1","","","","","","","",""
"pit-trial","23","293528","0.0-2.0-8.0-3.0","battery-v0.2","","""event"",""trial"",""time""
""fullscreenenter"",""1"",""4995""
","
","
","""event"",""trial"",""time""
""fullscreenenter"",""1"",""4995""
","
","","","397","","","12","3206","2477","&#9776;","elianto","#3366ff99"," "," ","1","0","[1246.8000000715256]","1","0","1","","","","","","","",""
"pit-trial","24","296388","0.0-2.0-8.0-4.0","battery-v0.2","","""event"",""trial"",""time""
""fullscreenenter"",""1"",""4995""
","
","
","""event"",""trial"",""time""
""fullscreenenter"",""1"",""4995""
","
","","","5.800000071525574","","","12","3206","2477","&#9776;","elianto","#3366ff99"," "," ","1","+10","[62.89999997615814,255.19999992847443,856.6000000238419,1138.1000000238419,1292.5,1567.8999999761581,1694.7999999523163,1993.6000000238419,2163.5,2464.100000023842,2717.899999976158]","11","0","1","","","","","","","",""
"call-function","25","296392","0.0-2.0-9.0","battery-v0.2","","""event"",""trial"",""time""
""fullscreenenter"",""1"",""4995""
","
","
","""event"",""trial"",""time""
""fullscreenenter"",""1"",""4995""
","
","","","","","","","","","","","","","","","","","","","","","","","","","","",""
"pit-instructions","26","338533","0.0-2.0-10.0","battery-v0.2","","""event"",""trial"",""time""
""fullscreenenter"",""1"",""4995""
","
","
","""event"",""trial"",""time""
""fullscreenenter"",""1"",""4995""
","
","","[{""page_index"":0,""viewing_time"":7772.299999952316},{""page_index"":1,""viewing_time"":6982.899999976158},{""page_index"":2,""viewing_time"":11684.700000047684},{""page_index"":3,""viewing_time"":8249.899999976158},{""page_index"":4,""viewing_time"":7450.100000023842}]","42140.39999997616","","","","","","","","","","","","","","","","","","","","","","","",""
"pit-trial","27","341902","0.0-2.0-11.0-0.0","battery-v0.2","","""event"",""trial"",""time""
""fullscreenenter"",""1"",""4995""
","
","
","""event"",""trial"",""time""
""fullscreenenter"",""1"",""4995""
","
","","","510.40000009536743","","","12","3206","2477","&#9761;","elianto","#3366ff99","-1"," ","0","0","[1361.5]","1","0","2","","","","","","","",""
"pit-trial","28","345315","0.0-2.0-11.0-1.0","battery-v0.2","","""event"",""trial"",""time""
""fullscreenenter"",""1"",""4995""
","
","
","""event"",""trial"",""time""
""fullscreenenter"",""1"",""4995""
","
","","","550.6999999284744","","","12","3206","2477","&#9761;","elianto","#3366ff99","-1"," ","0","0","[1405.6000000238419]","1","0","2","","","","","","","",""
"pit-trial","29","348806","0.0-2.0-11.0-2.0","battery-v0.2","","""event"",""trial"",""time""
""fullscreenenter"",""1"",""4995""
","
","
","""event"",""trial"",""time""
""fullscreenenter"",""1"",""4995""
","
","","","634.2000000476837","","","12","3206","2477","&#9761;","elianto","#3366ff99","-1"," ","0","0","[568.2000000476837,840.3999999761581,1484.6000000238419]","3","0","2","","","","","","","",""
"pit-trial","30","353664","0.0-2.0-11.0-3.0","battery-v0.2","","""event"",""trial"",""time""
""fullscreenenter"",""1"",""4995""
","
","
","""event"",""trial"",""time""
""fullscreenenter"",""1"",""4995""
","
","","","-1","","","12","3206","2477","&#9761;","elianto","#3366ff99","-1","-1","1","0","[315.7000000476837]","1","0","2","","","","","","","",""
"pit-trial","31","356664","0.0-2.0-11.0-4.0","battery-v0.2","","""event"",""trial"",""time""
""fullscreenenter"",""1"",""4995""
","
","
","""event"",""trial"",""time""
""fullscreenenter"",""1"",""4995""
","
","","","142.29999995231628","","","12","3206","2477","&#9761;","elianto","#3366ff99","-1"," ","0","0","[993.3999999761581]","1","0","2","","","","","","","",""
"pit-trial","32","361527","0.0-2.0-11.1-0.1","battery-v0.2","","""event"",""trial"",""time""
""fullscreenenter"",""1"",""4995""
","
","
","""event"",""trial"",""time""
""fullscreenenter"",""1"",""4995""
","
","","","-1","","","12","3206","2477","&#9761;","elianto","#3366ff99","-1","-1","1","+10","[708.9000000953674]","1","0","2","","","","","","","",""
"pit-trial","33","365882","0.0-2.0-11.1-1.1","battery-v0.2","","""event"",""trial"",""time""
""fullscreenenter"",""1"",""4995""
","
","
","""event"",""trial"",""time""
""fullscreenenter"",""1"",""4995""
","
","","","1494.1000000238419","","","12","3206","2477","&#9761;","elianto","#3366ff99","-1"," ","0","0","[6.399999976158142,2348.600000023842]","2","0","2","","","","","","","",""
"pit-trial","34","370746","0.0-2.0-11.1-2.1","battery-v0.2","","""event"",""trial"",""time""
""fullscreenenter"",""1"",""4995""
","
","
","""event"",""trial"",""time""
""fullscreenenter"",""1"",""4995""
","
","","","-1","","","12","3206","2477","&#9761;","elianto","#3366ff99","-1","-1","1","+10","[]","0","0","2","","","","","","","",""
"pit-trial","35","375605","0.0-2.0-11.1-3.1","battery-v0.2","","""event"",""trial"",""time""
""fullscreenenter"",""1"",""4995""
","
","
","""event"",""trial"",""time""
""fullscreenenter"",""1"",""4995""
","
","","","-1","","","12","3206","2477","&#9761;","elianto","#3366ff99","-1","-1","1","0","[4087.2000000476837]","1","0","2","","","","","","","",""
"pit-trial","36","380468","0.0-2.0-11.1-4.1","battery-v0.2","","""event"",""trial"",""time""
""fullscreenenter"",""1"",""4995""
","
","
","""event"",""trial"",""time""
""fullscreenenter"",""1"",""4995""
","
","","","-1","","","12","3206","2477","&#9761;","elianto","#3366ff99","-1","-1","1","+10","[]","0","0","2","","","","","","","",""
"pit-trial","37","385329","0.0-2.0-11.2-0.2","battery-v0.2","","""event"",""trial"",""time""
""fullscreenenter"",""1"",""4995""
","
","
","""event"",""trial"",""time""
""fullscreenenter"",""1"",""4995""
","
","","","-1","","","12","3206","2477","&#9761;","elianto","#3366ff99","-1","-1","1","+10","[]","0","0","2","","","","","","","",""
"pit-trial","38","390190","0.0-2.0-11.2-1.2","battery-v0.2","","""event"",""trial"",""time""
""fullscreenenter"",""1"",""4995""
","
","
","""event"",""trial"",""time""
""fullscreenenter"",""1"",""4995""
","
","","","-1","","","12","3206","2477","&#9761;","elianto","#3366ff99","-1","-1","1","+10","[]","0","0","2","","","","","","","",""
"pit-trial","39","395048","0.0-2.0-11.2-2.2","battery-v0.2","","""event"",""trial"",""time""
""fullscreenenter"",""1"",""4995""
","
","
","""event"",""trial"",""time""
""fullscreenenter"",""1"",""4995""
","
","","","-1","","","12","3206","2477","&#9761;","elianto","#3366ff99","-1","-1","1","+10","[]","0","0","2","","","","","","","",""
"pit-trial","40","399908","0.0-2.0-11.2-3.2","battery-v0.2","","""event"",""trial"",""time""
""fullscreenenter"",""1"",""4995""
","
","
","""event"",""trial"",""time""
""fullscreenenter"",""1"",""4995""
","
","","","-1","","","12","3206","2477","&#9761;","elianto","#3366ff99","-1","-1","1","0","[]","0","0","2","","","","","","","",""
"pit-trial","41","404766","0.0-2.0-11.2-4.2","battery-v0.2","","""event"",""trial"",""time""
""fullscreenenter"",""1"",""4995""
","
","
","""event"",""trial"",""time""
""fullscreenenter"",""1"",""4995""
","
","","","-1","","","12","3206","2477","&#9761;","elianto","#3366ff99","-1","-1","1","+10","[]","0","0","2","","","","","","","",""
"call-function","42","404770","0.0-2.0-12.0","battery-v0.2","","""event"",""trial"",""time""
""fullscreenenter"",""1"",""4995""
","
","
","""event"",""trial"",""time""
""fullscreenenter"",""1"",""4995""
","
","","","","","","","","","","","","","","","","","","","","","","","","","","",""
"pit-instructions","43","440423","0.0-2.0-13.0","battery-v0.2","","""event"",""trial"",""time""
""fullscreenenter"",""1"",""4995""
","
","
","""event"",""trial"",""time""
""fullscreenenter"",""1"",""4995""
","
","","[{""page_index"":0,""viewing_time"":5693.599999904633},{""page_index"":1,""viewing_time"":7620.100000023842},{""page_index"":2,""viewing_time"":4547.200000047684},{""page_index"":3,""viewing_time"":11766.299999952316},{""page_index"":4,""viewing_time"":6024.899999976158}]","35652.59999990463","","","","","","","","","","","","","","","","","","","","","","","",""
"pit-trial","44","445280","0.0-2.0-14.0-0.0","battery-v0.2","","""event"",""trial"",""time""
""fullscreenenter"",""1"",""4995""
","
","
","""event"",""trial"",""time""
""fullscreenenter"",""1"",""4995""
","
","","","-1","","","12","3206","2477","&#9826;","elianto","#f73b6a7A","-1","-1","1","0","[]","0","0","3","","","","","","","",""
"pit-trial","45","448899","0.0-2.0-14.0-1.0","battery-v0.2","","""event"",""trial"",""time""
""fullscreenenter"",""1"",""4995""
","
","
","""event"",""trial"",""time""
""fullscreenenter"",""1"",""4995""
","
","","","760.8000000715256","","","12","3206","2477","&#9826;","elianto","#f73b6a7A","-1"," ","0","-10","[1613.6000000238419]","1","0","3","","","","","","","",""
"pit-trial","46","453759","0.0-2.0-14.0-2.0","battery-v0.2","","""event"",""trial"",""time""
""fullscreenenter"",""1"",""4995""
","
","
","""event"",""trial"",""time""
""fullscreenenter"",""1"",""4995""
","
","","","-1","","","12","3206","2477","&#9826;","elianto","#f73b6a7A","-1","-1","1","0","[]","0","0","3","","","","","","","",""
"pit-trial","47","458614","0.0-2.0-14.0-3.0","battery-v0.2","","""event"",""trial"",""time""
""fullscreenenter"",""1"",""4995""
","
","
","""event"",""trial"",""time""
""fullscreenenter"",""1"",""4995""
","
","","","-1","","","12","3206","2477","&#9826;","elianto","#f73b6a7A","-1","-1","1","-10","[]","0","0","3","","","","","","","",""
"pit-trial","48","463470","0.0-2.0-14.0-4.0","battery-v0.2","","""event"",""trial"",""time""
""fullscreenenter"",""1"",""4995""
","
","
","""event"",""trial"",""time""
""fullscreenenter"",""1"",""4995""
","
","","","-1","","","12","3206","2477","&#9826;","elianto","#f73b6a7A","-1","-1","1","0","[]","0","0","3","","","","","","","",""
"pit-trial","49","468332","0.0-2.0-14.1-0.1","battery-v0.2","","""event"",""trial"",""time""
""fullscreenenter"",""1"",""4995""
","
","
","""event"",""trial"",""time""
""fullscreenenter"",""1"",""4995""
","
","","","-1","","","12","3206","2477","&#9826;","elianto","#f73b6a7A","-1","-1","1","0","[]","0","0","3","","","","","","","",""
"pit-trial","50","473194","0.0-2.0-14.1-1.1","battery-v0.2","","""event"",""trial"",""time""
""fullscreenenter"",""1"",""4995""
","
","
","""event"",""trial"",""time""
""fullscreenenter"",""1"",""4995""
","
","","","-1","","","12","3206","2477","&#9826;","elianto","#f73b6a7A","-1","-1","1","0","[]","0","0","3","","","","","","","",""
"pit-trial","51","478053","0.0-2.0-14.1-2.1","battery-v0.2","","""event"",""trial"",""time""
""fullscreenenter"",""1"",""4995""
","
","
","""event"",""trial"",""time""
""fullscreenenter"",""1"",""4995""
","
","","","-1","","","12","3206","2477","&#9826;","elianto","#f73b6a7A","-1","-1","1","0","[]","0","0","3","","","","","","","",""
"pit-trial","52","482912","0.0-2.0-14.1-3.1","battery-v0.2","","""event"",""trial"",""time""
""fullscreenenter"",""1"",""4995""
","
","
","""event"",""trial"",""time""
""fullscreenenter"",""1"",""4995""
","
","","","-1","","","12","3206","2477","&#9826;","elianto","#f73b6a7A","-1","-1","1","-10","[]","0","0","3","","","","","","","",""
"pit-trial","53","487776","0.0-2.0-14.1-4.1","battery-v0.2","","""event"",""trial"",""time""
""fullscreenenter"",""1"",""4995""
","
","
","""event"",""trial"",""time""
""fullscreenenter"",""1"",""4995""
","
","","","-1","","","12","3206","2477","&#9826;","elianto","#f73b6a7A","-1","-1","1","0","[]","0","0","3","","","","","","","",""
"call-function","54","487780","0.0-2.0-15.0","battery-v0.2","","""event"",""trial"",""time""
""fullscreenenter"",""1"",""4995""
","
","
","""event"",""trial"",""time""
""fullscreenenter"",""1"",""4995""
","
","","","","","","","","","","","","","","","","","","","","","","","","","","",""
"pit-instructions","55","515600","0.0-2.0-16.0","battery-v0.2","","""event"",""trial"",""time""
""fullscreenenter"",""1"",""4995""
","
","
","""event"",""trial"",""time""
""fullscreenenter"",""1"",""4995""
","
","","[{""page_index"":0,""viewing_time"":6800.100000023842},{""page_index"":1,""viewing_time"":8518.199999928474},{""page_index"":2,""viewing_time"":6749.900000095367},{""page_index"":3,""viewing_time"":5750.199999928474}]","27819.100000023842","","","","","","","","","","","","","","","","","","","","","","","",""
"pit-trial","56","520459","0.0-2.0-17.0-0.0","battery-v0.2","","""event"",""trial"",""time""
""fullscreenenter"",""1"",""4995""
","
","
","""event"",""trial"",""time""
""fullscreenenter"",""1"",""4995""
","
","","","-1","","","12","3206","2477","&#9789;","elianto","#f73b6a7A"," ","-1","0","-10","[3220.7000000476837,4213.299999952316,4449.399999976158]","3","0","4","","","","","","","",""
"pit-trial","57","523582","0.0-2.0-17.0-1.0","battery-v0.2","","""event"",""trial"",""time""
""fullscreenenter"",""1"",""4995""
","
","
","""event"",""trial"",""time""
""fullscreenenter"",""1"",""4995""
","
","","","268.2000000476837","","","12","3206","2477","&#9789;","elianto","#f73b6a7A"," "," ","1","0","[125.79999995231628,820.6000000238419,1118.6000000238419,1416.1000000238419,2293.2999999523163]","5","0","4","","","","","","","",""
"pit-trial","58","526529","0.0-2.0-17.0-2.0","battery-v0.2","","""event"",""trial"",""time""
""fullscreenenter"",""1"",""4995""
","
","
","""event"",""trial"",""time""
""fullscreenenter"",""1"",""4995""
","
","","","86","","","12","3206","2477","&#9789;","elianto","#f73b6a7A"," "," ","1","0","[940.1000000238419]","1","0","4","","","","","","","",""
"pit-trial","59","529558","0.0-2.0-17.0-3.0","battery-v0.2","","""event"",""trial"",""time""
""fullscreenenter"",""1"",""4995""
","
","
","""event"",""trial"",""time""
""fullscreenenter"",""1"",""4995""
","
","","","169.30000007152557","","","12","3206","2477","&#9789;","elianto","#f73b6a7A"," "," ","1","-10","[1022.3000000715256]","1","0","4","","","","","","","",""
"pit-trial","60","532562","0.0-2.0-17.0-4.0","battery-v0.2","","""event"",""trial"",""time""
""fullscreenenter"",""1"",""4995""
","
","
","""event"",""trial"",""time""
""fullscreenenter"",""1"",""4995""
","
","","","146.19999992847443","","","12","3206","2477","&#9789;","elianto","#f73b6a7A"," "," ","1","0","[996.2000000476837]","1","0","4","","","","","","","",""
"call-function","61","532565","0.0-2.0-18.0","battery-v0.2","","""event"",""trial"",""time""
""fullscreenenter"",""1"",""4995""
","
","
","""event"",""trial"",""time""
""fullscreenenter"",""1"",""4995""
","
","","","","","","","","","","","","","","","","","","","","","","","","","","",""
"pit-instructions","62","598414","0.0-2.0-19.0","battery-v0.2","","""event"",""trial"",""time""
""fullscreenenter"",""1"",""4995""
","
","
","""event"",""trial"",""time""
""fullscreenenter"",""1"",""4995""
","
","","[{""page_index"":0,""viewing_time"":8085.600000023842},{""page_index"":1,""viewing_time"":4147},{""page_index"":2,""viewing_time"":10383.100000023842},{""page_index"":3,""viewing_time"":7083.599999904633},{""page_index"":4,""viewing_time"":8366.5},{""page_index"":5,""viewing_time"":9467.900000095367},{""page_index"":6,""viewing_time"":6616.299999952316},{""page_index"":7,""viewing_time"":7000.100000023842},{""page_index"":8,""viewing_time"":4699.199999928474}]","65849.60000002384","","","","","","","","","","","","","","","","","","","","","","","",""
"pit-comprehension","63","606881","0.0-2.0-20.0-0.0","battery-v0.2","","""event"",""trial"",""time""
""fullscreenenter"",""1"",""4995""
","
","
","""event"",""trial"",""time""
""fullscreenenter"",""1"",""4995""
","
","","","8464.299999952316","[""SPACE""]","0","12","3206","2477","","","","","","","","","","","","","","","","","","",""
"pit-instructions","64","611067","0.0-2.0-20.0-1.0","battery-v0.2","","""event"",""trial"",""time""
""fullscreenenter"",""1"",""4995""
","
","
","""event"",""trial"",""time""
""fullscreenenter"",""1"",""4995""
","
","","[{""page_index"":0,""viewing_time"":4171.299999952316}]","4172.5","","","","","","","","","","","","","","","","","","","","","","","",""
"pit-comprehension","65","617699","0.0-2.0-21.0-0.0","battery-v0.2","","""event"",""trial"",""time""
""fullscreenenter"",""1"",""4995""
","
","
","""event"",""trial"",""time""
""fullscreenenter"",""1"",""4995""
","
","","","6625.800000071526","[""10""]","0","12","3206","2477","","","","","","","","","","","","","","","","","","",""
"pit-instructions","66","618949","0.0-2.0-21.0-1.0","battery-v0.2","","""event"",""trial"",""time""
""fullscreenenter"",""1"",""4995""
","
","
","""event"",""trial"",""time""
""fullscreenenter"",""1"",""4995""
","
","","[{""page_index"":0,""viewing_time"":1236.8000000715256}]","1237.3000000715256","","","","","","","","","","","","","","","","","","","","","","","",""
"pit-comprehension","67","627866","0.0-2.0-22.0-0.0","battery-v0.2","","""event"",""trial"",""time""
""fullscreenenter"",""1"",""4995""
","
","
","""event"",""trial"",""time""
""fullscreenenter"",""1"",""4995""
","
","","","8913","[""0""]","0","12","3206","2477","","","","","","","","","","","","","","","","","","",""
"pit-instructions","68","628999","0.0-2.0-22.0-1.0","battery-v0.2","","""event"",""trial"",""time""
""fullscreenenter"",""1"",""4995""
","
","
","""event"",""trial"",""time""
""fullscreenenter"",""1"",""4995""
","
","","[{""page_index"":0,""viewing_time"":1115.3000000715256}]","1115.8000000715256","","","","","","","","","","","","","","","","","","","","","","","",""
"pit-comprehension","69","648781","0.0-2.0-23.0-0.0","battery-v0.2","","""event"",""trial"",""time""
""fullscreenenter"",""1"",""4995""
","
","
","""event"",""trial"",""time""
""fullscreenenter"",""1"",""4995""
","
","","","19778.100000023842","[""True""]","0","12","3206","2477","","","","","","","","","","","","","","","","","","",""
"pit-instructions","70","649981","0.0-2.0-23.0-1.0","battery-v0.2","","""event"",""trial"",""time""
""fullscreenenter"",""1"",""4995""
","
","
","""event"",""trial"",""time""
""fullscreenenter"",""1"",""4995""
","
","","[{""page_index"":0,""viewing_time"":1181.1000000238419}]","1181.3999999761581","","","","","","","","","","","","","","","","","","","","","","","",""
"pit-comprehension","71","657334","0.0-2.0-24.0-0.0","battery-v0.2","","""event"",""trial"",""time""
""fullscreenenter"",""1"",""4995""
","
","
","""event"",""trial"",""time""
""fullscreenenter"",""1"",""4995""
","
","","","7348.799999952316","[""True""]","0","12","3206","2477","","","","","","","","","","","","","","","","","","",""
"pit-instructions","72","658448","0.0-2.0-24.0-1.0","battery-v0.2","","""event"",""trial"",""time""
""fullscreenenter"",""1"",""4995""
","
","
","""event"",""trial"",""time""
""fullscreenenter"",""1"",""4995""
","
","","[{""page_index"":0,""viewing_time"":1096.1000000238419}]","1096.5","","","","","","","","","","","","","","","","","","","","","","","",""
"pit-comprehension","73","665000","0.0-2.0-25.0-0.0","battery-v0.2","","""event"",""trial"",""time""
""fullscreenenter"",""1"",""4995""
","
","
","""event"",""trial"",""time""
""fullscreenenter"",""1"",""4995""
","
","","","6547.5","[""True""]","0","12","3206","2477","","","","","","","","","","","","","","","","","","",""
"pit-instructions","74","666514","0.0-2.0-25.0-1.0","battery-v0.2","","""event"",""trial"",""time""
""fullscreenenter"",""1"",""4995""
","
","
","""event"",""trial"",""time""
""fullscreenenter"",""1"",""4995""
","
","","[{""page_index"":0,""viewing_time"":1494}]","1494.3999999761581","","","","","","","","","","","","","","","","","","","","","","","",""
"pit-comprehension","75","672666","0.0-2.0-26.0-0.0","battery-v0.2","","""event"",""trial"",""time""
""fullscreenenter"",""1"",""4995""
","
","
","""event"",""trial"",""time""
""fullscreenenter"",""1"",""4995""
","
","","","6148.700000047684","[""False""]","0","12","3206","2477","","","","","","","","","","","","","","","","","","",""
"pit-instructions","76","674080","0.0-2.0-26.0-1.0","battery-v0.2","","""event"",""trial"",""time""
""fullscreenenter"",""1"",""4995""
","
","
","""event"",""trial"",""time""
""fullscreenenter"",""1"",""4995""
","
","","[{""page_index"":0,""viewing_time"":1397.8999999761581}]","1398.1999999284744","","","","","","","","","","","","","","","","","","","","","","","",""
"pit-instructions","77","692916","0.0-3.0","battery-v0.2","","""event"",""trial"",""time""
""fullscreenenter"",""1"",""4995""
","
","
","""event"",""trial"",""time""
""fullscreenenter"",""1"",""4995""
","
","","[{""page_index"":0,""viewing_time"":5883.100000023842},{""page_index"":1,""viewing_time"":5265.699999928474},{""page_index"":2,""viewing_time"":7684}]","18833.699999928474","","","","","","","","","","","","","","","","","","","","","","","",""
"pit-trial","78","696481","0.0-4.0","battery-v0.2","","""event"",""trial"",""time""
""fullscreenenter"",""1"",""4995""
","
","
","""event"",""trial"",""time""
""fullscreenenter"",""1"",""4995""
","
","","","700.5","","","12","3206","2477","&#9730;","elianto","#3366ff99"," "," ","1","+10","[1555.3999999761581]","1","1","","","3206","1","1","1","win","go","0"
"pit-trial","79","700242","0.0-5.0","battery-v0.2","","""event"",""trial"",""time""
""fullscreenenter"",""1"",""4995""
","
","
","""event"",""trial"",""time""
""fullscreenenter"",""1"",""4995""
","
","","","899.6000000238419","","","12","3206","2477","&#9733;","elianto","#3366ff99","-1"," ","0","0","[1754.7000000476837]","1","1","","","3206","2","2","2","win","no-go","0"
"pit-trial","80","705103","0.0-6.0","battery-v0.2","","""event"",""trial"",""time""
""fullscreenenter"",""1"",""4995""
","
","
","""event"",""trial"",""time""
""fullscreenenter"",""1"",""4995""
","
","","","-1","","","12","3206","2477","&#9752;","elianto","#f73b6a7A"," ","-1","0","-10","[]","0","1","","","3206","3","3","3","lose","go","0"
"pit-trial","81","709966","0.0-7.0","battery-v0.2","","""event"",""trial"",""time""
""fullscreenenter"",""1"",""4995""
","
","
","""event"",""trial"",""time""
""fullscreenenter"",""1"",""4995""
","
","","","-1","","","12","3206","2477","&#9728;","elianto","#f73b6a7A","-1","-1","1","0","[]","0","1","","","3206","4","0","4","lose","no-go","0"
"pit-trial","82","713439","0.0-8.0","battery-v0.2","","""event"",""trial"",""time""
""fullscreenenter"",""1"",""4995""
","
","
","""event"",""trial"",""time""
""fullscreenenter"",""1"",""4995""
","
","","","614","","","12","3206","2477","&#9730;","elianto","#3366ff99"," "," ","1","0","[1464.6999999284744]","1","1","","","3206","5","1","1","win","go","1"
"pit-trial","83","717148","0.0-9.0","battery-v0.2","","""event"",""trial"",""time""
""fullscreenenter"",""1"",""4995""
","
","
","""event"",""trial"",""time""
""fullscreenenter"",""1"",""4995""
","
","","","851.1999999284744","","","12","3206","2477","&#9752;","elianto","#f73b6a7A"," "," ","1","0","[1702.1000000238419]","1","1","","","3206","6","3","3","lose","go","0"
"pit-trial","84","722005","0.0-10.0","battery-v0.2","","""event"",""trial"",""time""
""fullscreenenter"",""1"",""4995""
","
","
","""event"",""trial"",""time""
""fullscreenenter"",""1"",""4995""
","
","","","-1","","","12","3206","2477","&#9728;","elianto","#f73b6a7A","-1","-1","1","0","[]","0","1","","","3206","7","0","4","lose","no-go","0"
"pit-trial","85","725693","0.0-11.0","battery-v0.2","","""event"",""trial"",""time""
""fullscreenenter"",""1"",""4995""
","
","
","""event"",""trial"",""time""
""fullscreenenter"",""1"",""4995""
","
","","","831.1000000238419","","","12","3206","2477","&#9733;","elianto","#3366ff99","-1"," ","0","+10","[1682.2999999523163]","1","1","","","3206","8","2","2","win","no-go","1"
"pit-trial","86","729309","0.0-12.0","battery-v0.2","","""event"",""trial"",""time""
""fullscreenenter"",""1"",""4995""
","
","
","""event"",""trial"",""time""
""fullscreenenter"",""1"",""4995""
","
","","","755.3999999761581","","","12","3206","2477","&#9752;","elianto","#f73b6a7A"," "," ","1","0","[1609.2999999523163]","1","1","","","3206","9","3","3","lose","go","0"
"pit-trial","87","732781","0.0-13.0","battery-v0.2","","""event"",""trial"",""time""
""fullscreenenter"",""1"",""4995""
","
","
","""event"",""trial"",""time""
""fullscreenenter"",""1"",""4995""
","
","","","608.7000000476837","","","12","3206","2477","&#9733;","elianto","#3366ff99","-1"," ","0","+10","[1463.6999999284744]","1","1","","","3206","10","2","2","win","no-go","1"
"pit-trial","88","737640","0.0-14.0","battery-v0.2","","""event"",""trial"",""time""
""fullscreenenter"",""1"",""4995""
","
","
","""event"",""trial"",""time""
""fullscreenenter"",""1"",""4995""
","
","","","-1","","","12","3206","2477","&#9728;","elianto","#f73b6a7A","-1","-1","1","0","[]","0","1","","","3206","11","0","4","lose","no-go","0"
"pit-trial","89","741271","0.0-15.0","battery-v0.2","","""event"",""trial"",""time""
""fullscreenenter"",""1"",""4995""
","
","
","""event"",""trial"",""time""
""fullscreenenter"",""1"",""4995""
","
","","","773.8000000715256","","","12","3206","2477","&#9730;","elianto","#3366ff99"," "," ","1","+10","[1624.5]","1","1","","","3206","12","1","1","win","go","0"
"pit-trial","90","744743","0.0-16.0","battery-v0.2","","""event"",""trial"",""time""
""fullscreenenter"",""1"",""4995""
","
","
","""event"",""trial"",""time""
""fullscreenenter"",""1"",""4995""
","
","","","616.6000000238419","","","12","3206","2477","&#9730;","elianto","#3366ff99"," "," ","1","+10","[1468]","1","1","","","3206","13","1","1","win","go","0"
"pit-trial","91","748183","0.0-17.0","battery-v0.2","","""event"",""trial"",""time""
""fullscreenenter"",""1"",""4995""
","
","
","""event"",""trial"",""time""
""fullscreenenter"",""1"",""4995""
","
","","","580.1000000238419","","","12","3206","2477","&#9733;","elianto","#3366ff99","-1"," ","0","0","[1434.6000000238419]","1","1","","","3206","14","2","2","win","no-go","0"
"pit-trial","92","753042","0.0-18.0","battery-v0.2","","""event"",""trial"",""time""
""fullscreenenter"",""1"",""4995""
","
","
","""event"",""trial"",""time""
""fullscreenenter"",""1"",""4995""
","
","","","-1","","","12","3206","2477","&#9728;","elianto","#f73b6a7A","-1","-1","1","0","[]","0","1","","","3206","15","0","4","lose","no-go","0"
"pit-trial","93","756749","0.0-19.0","battery-v0.2","","""event"",""trial"",""time""
""fullscreenenter"",""1"",""4995""
","
","
","""event"",""trial"",""time""
""fullscreenenter"",""1"",""4995""
","
","","","843.7999999523163","","","12","3206","2477","&#9752;","elianto","#f73b6a7A"," "," ","1","0","[1697.8999999761581]","1","1","","","3206","16","3","3","lose","go","0"
"pit-trial","94","761613","0.0-20.0","battery-v0.2","","""event"",""trial"",""time""
""fullscreenenter"",""1"",""4995""
","
","
","""event"",""trial"",""time""
""fullscreenenter"",""1"",""4995""
","
","","","-1","","","12","3206","2477","&#9728;","elianto","#f73b6a7A","-1","-1","1","-10","[]","0","1","","","3206","17","0","4","lose","no-go","1"
"pit-trial","95","765175","0.0-21.0","battery-v0.2","","""event"",""trial"",""time""
""fullscreenenter"",""1"",""4995""
","
","
","""event"",""trial"",""time""
""fullscreenenter"",""1"",""4995""
","
","","","706.0999999046326","","","12","3206","2477","&#9752;","elianto","#f73b6a7A"," "," ","1","0","[1556.1000000238419]","1","1","","","3206","18","3","3","lose","go","0"
"pit-trial","96","768508","0.0-22.0","battery-v0.2","","""event"",""trial"",""time""
""fullscreenenter"",""1"",""4995""
","
","
","""event"",""trial"",""time""
""fullscreenenter"",""1"",""4995""
","
","","","474.7999999523163","","","12","3206","2477","&#9733;","elianto","#3366ff99","-1"," ","0","+10","[1325.7999999523163]","1","1","","","3206","19","2","2","win","no-go","1"
"pit-trial","97","772060","0.0-23.0","battery-v0.2","","""event"",""trial"",""time""
""fullscreenenter"",""1"",""4995""
","
","
","""event"",""trial"",""time""
""fullscreenenter"",""1"",""4995""
","
","","","697.1999999284744","","","12","3206","2477","&#9730;","elianto","#3366ff99"," "," ","1","+10","[1547.6000000238419]","1","1","","","3206","20","1","1","win","go","0"
"pit-instructions","98","783547","0.0-24.0","battery-v0.2","","""event"",""trial"",""time""
""fullscreenenter"",""1"",""4995""
","
","
","""event"",""trial"",""time""
""fullscreenenter"",""1"",""4995""
","
","","[{""page_index"":0,""viewing_time"":5401.200000047684},{""page_index"":1,""viewing_time"":6083.299999952316}]","11485","","","","","","","","","","","","","","","","","","","","","","","",""
"pit-trial","99","787286","0.0-25.0","battery-v0.2","","""event"",""trial"",""time""
""fullscreenenter"",""1"",""4995""
","
","
","""event"",""trial"",""time""
""fullscreenenter"",""1"",""4995""
","
","","","877.8999999761581","","","12","3206","2477","d","elianto","#3366ff99"," "," ","1","+10","[1733]","1","2","","","3206","21","1","1","win","go","0"
"pit-trial","100","791089","0.0-26.0","battery-v0.2","","""event"",""trial"",""time""
""fullscreenenter"",""1"",""4995""
","
","
","""event"",""trial"",""time""
""fullscreenenter"",""1"",""4995""
","
","","","945.3999999761581","","","12","3206","2477","e","elianto","#f73b6a7A","-1"," ","0","-10","[1798.2999999523163]","1","2","","","3206","22","2","4","lose","no-go","0"
"pit-trial","101","795951","0.0-27.0","battery-v0.2","","""event"",""trial"",""time""
""fullscreenenter"",""1"",""4995""
","
","
","""event"",""trial"",""time""
""fullscreenenter"",""1"",""4995""
","
","","","-1","","","12","3206","2477","w","elianto","#f73b6a7A"," ","-1","0","-10","[]","0","2","","","3206","23","3","3","lose","go","0"
"pit-trial","102","799511","0.0-28.0","battery-v0.2","","""event"",""trial"",""time""
""fullscreenenter"",""1"",""4995""
","
","
","""event"",""trial"",""time""
""fullscreenenter"",""1"",""4995""
","
","","","698.5","","","12","3206","2477","j","elianto","#f73b6a7A","-1"," ","0","-10","[1552.5]","1","2","","","3206","24","0","4","lose","no-go","0"
"pit-trial","103","803026","0.0-29.0","battery-v0.2","","""event"",""trial"",""time""
""fullscreenenter"",""1"",""4995""
","
","
","""event"",""trial"",""time""
""fullscreenenter"",""1"",""4995""
","
","","","657.8000000715256","","","12","3206","2477","d","elianto","#3366ff99"," "," ","1","+10","[1510.2000000476837]","1","2","","","3206","25","1","1","win","go","0"
"pit-trial","104","807881","0.0-30.0","battery-v0.2","","""event"",""trial"",""time""
""fullscreenenter"",""1"",""4995""
","
","
","""event"",""trial"",""time""
""fullscreenenter"",""1"",""4995""
","
","","","-1","","","12","3206","2477","e","elianto","#f73b6a7A","-1","-1","1","-10","[3816.2999999523163,4402.600000023842,4581.200000047684]","3","2","","","3206","26","2","4","lose","no-go","1"
"pit-trial","105","812742","0.0-31.0","battery-v0.2","","""event"",""trial"",""time""
""fullscreenenter"",""1"",""4995""
","
","
","""event"",""trial"",""time""
""fullscreenenter"",""1"",""4995""
","
","","","-1","","","12","3206","2477","j","elianto","#f73b6a7A","-1","-1","1","-10","[135.80000007152557]","1","2","","","3206","27","0","4","lose","no-go","1"
"pit-trial","106","817199","0.0-32.0","battery-v0.2","","""event"",""trial"",""time""
""fullscreenenter"",""1"",""4995""
","
","
","""event"",""trial"",""time""
""fullscreenenter"",""1"",""4995""
","
","","","1595.2999999523163","","","12","3206","2477","w","elianto","#f73b6a7A"," "," ","1","0","[2449.7999999523163]","1","2","","","3206","28","3","3","lose","go","0"
"pit-trial","107","821114","0.0-33.0","battery-v0.2","","""event"",""trial"",""time""
""fullscreenenter"",""1"",""4995""
","
","
","""event"",""trial"",""time""
""fullscreenenter"",""1"",""4995""
","
","","","1056.3000000715256","","","12","3206","2477","j","elianto","#f73b6a7A","-1"," ","0","-10","[1907.1000000238419]","1","2","","","3206","29","0","4","lose","no-go","0"
"pit-trial","108","824489","0.0-34.0","battery-v0.2","","""event"",""trial"",""time""
""fullscreenenter"",""1"",""4995""
","
","
","""event"",""trial"",""time""
""fullscreenenter"",""1"",""4995""
","
","","","518.3999999761581","","","12","3206","2477","d","elianto","#3366ff99"," "," ","1","+10","[1368.6999999284744]","1","2","","","3206","30","1","1","win","go","0"
"pit-trial","109","828020","0.0-35.0","battery-v0.2","","""event"",""trial"",""time""
""fullscreenenter"",""1"",""4995""
","
","
","""event"",""trial"",""time""
""fullscreenenter"",""1"",""4995""
","
","","","677.1999999284744","","","12","3206","2477","w","elianto","#f73b6a7A"," "," ","1","0","[1527.8999999761581]","1","2","","","3206","31","3","3","lose","go","0"
"pit-trial","110","831594","0.0-36.0","battery-v0.2","","""event"",""trial"",""time""
""fullscreenenter"",""1"",""4995""
","
","
","""event"",""trial"",""time""
""fullscreenenter"",""1"",""4995""
","
","","","712.6000000238419","","","12","3206","2477","e","elianto","#f73b6a7A","-1"," ","0","-10","[1566.2000000476837]","1","2","","","3206","32","2","4","lose","no-go","0"
"pit-trial","111","835166","0.0-37.0","battery-v0.2","","""event"",""trial"",""time""
""fullscreenenter"",""1"",""4995""
","
","
","""event"",""trial"",""time""
""fullscreenenter"",""1"",""4995""
","
","","","716.7000000476837","","","12","3206","2477","d","elianto","#3366ff99"," "," ","1","0","[1568.8999999761581]","1","2","","","3206","33","1","1","win","go","1"
"pit-trial","112","840025","0.0-38.0","battery-v0.2","","""event"",""trial"",""time""
""fullscreenenter"",""1"",""4995""
","
","
","""event"",""trial"",""time""
""fullscreenenter"",""1"",""4995""
","
","","","-1","","","12","3206","2477","e","elianto","#f73b6a7A","-1","-1","1","0","[]","0","2","","","3206","34","2","4","lose","no-go","0"
"pit-trial","113","844888","0.0-39.0","battery-v0.2","","""event"",""trial"",""time""
""fullscreenenter"",""1"",""4995""
","
","
","""event"",""trial"",""time""
""fullscreenenter"",""1"",""4995""
","
","","","-1","","","12","3206","2477","j","elianto","#f73b6a7A","-1","-1","1","0","[]","0","2","","","3206","35","0","4","lose","no-go","0"
"pit-trial","114","848585","0.0-40.0","battery-v0.2","","""event"",""trial"",""time""
""fullscreenenter"",""1"",""4995""
","
","
","""event"",""trial"",""time""
""fullscreenenter"",""1"",""4995""
","
","","","842.2999999523163","","","12","3206","2477","w","elianto","#f73b6a7A"," "," ","1","0","[1692.2999999523163]","1","2","","","3206","36","3","3","lose","go","0"
"pit-trial","115","853444","0.0-41.0","battery-v0.2","","""event"",""trial"",""time""
""fullscreenenter"",""1"",""4995""
","
","
","""event"",""trial"",""time""
""fullscreenenter"",""1"",""4995""
","
","","","-1","","","12","3206","2477","j","elianto","#f73b6a7A","-1","-1","1","0","[]","0","2","","","3206","37","0","4","lose","no-go","0"
"pit-trial","116","856900","0.0-42.0","battery-v0.2","","""event"",""trial"",""time""
""fullscreenenter"",""1"",""4995""
","
","
","""event"",""trial"",""time""
""fullscreenenter"",""1"",""4995""
","
","","","595.2000000476837","","","12","3206","2477","d","elianto","#3366ff99"," "," ","1","+10","[1450.1000000238419]","1","2","","","3206","38","1","1","win","go","0"
"pit-trial","117","861764","0.0-43.0","battery-v0.2","","""event"",""trial"",""time""
""fullscreenenter"",""1"",""4995""
","
","
","""event"",""trial"",""time""
""fullscreenenter"",""1"",""4995""
","
","","","-1","","","12","3206","2477","e","elianto","#f73b6a7A","-1","-1","1","0","[]","0","2","","","3206","39","2","4","lose","no-go","0"
"pit-trial","118","866009","0.0-44.0","battery-v0.2","","""event"",""trial"",""time""
""fullscreenenter"",""1"",""4995""
","
","
","""event"",""trial"",""time""
""fullscreenenter"",""1"",""4995""
","
","","","1382.6000000238419","","","12","3206","2477","w","elianto","#f73b6a7A"," "," ","1","0","[2237.5]","1","2","","","3206","40","3","3","lose","go","0"
"pit-trial","119","870873","0.0-45.0","battery-v0.2","","""event"",""trial"",""time""
""fullscreenenter"",""1"",""4995""
","
","
","""event"",""trial"",""time""
""fullscreenenter"",""1"",""4995""
","
","","","-1","","","12","3206","2477","e","elianto","#f73b6a7A","-1","-1","1","0","[]","0","2","","","3206","41","2","4","lose","no-go","0"
"pit-trial","120","874644","0.0-46.0","battery-v0.2","","""event"",""trial"",""time""
""fullscreenenter"",""1"",""4995""
","
","
","""event"",""trial"",""time""
""fullscreenenter"",""1"",""4995""
","
","","","912.6000000238419","","","12","3206","2477","d","elianto","#3366ff99"," "," ","1","+10","[1762.7999999523163]","1","2","","","3206","42","1","1","win","go","0"
"pit-trial","121","878558","0.0-47.0","battery-v0.2","","""event"",""trial"",""time""
""fullscreenenter"",""1"",""4995""
","
","
","""event"",""trial"",""time""
""fullscreenenter"",""1"",""4995""
","
","","","1053.5","","","12","3206","2477","w","elianto","#f73b6a7A"," "," ","1","0","[1908]","1","2","","","3206","43","3","3","lose","go","0"
"pit-trial","122","883416","0.0-48.0","battery-v0.2","","""event"",""trial"",""time""
""fullscreenenter"",""1"",""4995""
","
","
","""event"",""trial"",""time""
""fullscreenenter"",""1"",""4995""
","
","","","-1","","","12","3206","2477","j","elianto","#f73b6a7A","-1","-1","1","0","[]","0","2","","","3206","44","0","4","lose","no-go","0"
"pit-trial","123","888276","0.0-49.0","battery-v0.2","","""event"",""trial"",""time""
""fullscreenenter"",""1"",""4995""
","
","
","""event"",""trial"",""time""
""fullscreenenter"",""1"",""4995""
","
","","","-1","","","12","3206","2477","e","elianto","#f73b6a7A","-1","-1","1","-10","[]","0","2","","","3206","45","2","4","lose","no-go","1"
"pit-trial","124","893138","0.0-50.0","battery-v0.2","","""event"",""trial"",""time""
""fullscreenenter"",""1"",""4995""
","
","
","""event"",""trial"",""time""
""fullscreenenter"",""1"",""4995""
","
","","","-1","","","12","3206","2477","j","elianto","#f73b6a7A","-1","-1","1","0","[]","0","2","","","3206","46","0","4","lose","no-go","0"
"pit-trial","125","897261","0.0-51.0","battery-v0.2","","""event"",""trial"",""time""
""fullscreenenter"",""1"",""4995""
","
","
","""event"",""trial"",""time""
""fullscreenenter"",""1"",""4995""
","
","","","1269.2999999523163","","","12","3206","2477","w","elianto","#f73b6a7A"," "," ","1","0","[2121]","1","2","","","3206","47","3","3","lose","go","0"
"pit-trial","126","901314","0.0-52.0","battery-v0.2","","""event"",""trial"",""time""
""fullscreenenter"",""1"",""4995""
","
","
","""event"",""trial"",""time""
""fullscreenenter"",""1"",""4995""
","
","","","1196.5","","","12","3206","2477","s","elianto","#3366ff99","-1"," ","0","0","[2048.100000023842]","1","2","","","3206","48","4","2","win","no-go","0"
"pit-trial","127","906172","0.0-53.0","battery-v0.2","","""event"",""trial"",""time""
""fullscreenenter"",""1"",""4995""
","
","
","""event"",""trial"",""time""
""fullscreenenter"",""1"",""4995""
","
","","","-1","","","12","3206","2477","j","elianto","#f73b6a7A","-1","-1","1","0","[]","0","2","","","3206","49","0","4","lose","no-go","0"
"pit-trial","128","909565","0.0-54.0","battery-v0.2","","""event"",""trial"",""time""
""fullscreenenter"",""1"",""4995""
","
","
","""event"",""trial"",""time""
""fullscreenenter"",""1"",""4995""
","
","","","539.5","","","12","3206","2477","d","elianto","#3366ff99"," "," ","1","0","[1390.4000000953674]","1","2","","","3206","50","1","1","win","go","1"
"pit-trial","129","913096","0.0-55.0","battery-v0.2","","""event"",""trial"",""time""
""fullscreenenter"",""1"",""4995""
","
","
","""event"",""trial"",""time""
""fullscreenenter"",""1"",""4995""
","
","","","673","","","12","3206","2477","w","elianto","#f73b6a7A"," "," ","1","0","[1523.2000000476837]","1","2","","","3206","51","3","3","lose","go","0"
"pit-trial","130","917955","0.0-56.0","battery-v0.2","","""event"",""trial"",""time""
""fullscreenenter"",""1"",""4995""
","
","
","""event"",""trial"",""time""
""fullscreenenter"",""1"",""4995""
","
","","","-1","","","12","3206","2477","s","elianto","#3366ff99","-1","-1","1","+10","[]","0","2","","","3206","52","4","2","win","no-go","0"
"pit-trial","131","922818","0.0-57.0","battery-v0.2","","""event"",""trial"",""time""
""fullscreenenter"",""1"",""4995""
","
","
","""event"",""trial"",""time""
""fullscreenenter"",""1"",""4995""
","
","","","-1","","","12","3206","2477","e","elianto","#f73b6a7A","-1","-1","1","0","[]","0","2","","","3206","53","2","4","lose","no-go","0"
"pit-trial","132","926413","0.0-58.0","battery-v0.2","","""event"",""trial"",""time""
""fullscreenenter"",""1"",""4995""
","
","
","""event"",""trial"",""time""
""fullscreenenter"",""1"",""4995""
","
","","","735.3000000715256","","","12","3206","2477","d","elianto","#3366ff99"," "," ","1","+10","[1587.7000000476837]","1","2","","","3206","54","1","1","win","go","0"
"pit-trial","133","931261","0.0-59.0","battery-v0.2","","""event"",""trial"",""time""
""fullscreenenter"",""1"",""4995""
","
","
","""event"",""trial"",""time""
""fullscreenenter"",""1"",""4995""
","
","","","1986.7999999523163","","","12","3206","2477","s","elianto","#3366ff99","-1"," ","0","0","[2841.1999999284744]","1","2","","","3206","55","4","2","win","no-go","0"
"pit-trial","134","936125","0.0-60.0","battery-v0.2","","""event"",""trial"",""time""
""fullscreenenter"",""1"",""4995""
","
","
","""event"",""trial"",""time""
""fullscreenenter"",""1"",""4995""
","
","","","-1","","","12","3206","2477","j","elianto","#f73b6a7A","-1","-1","1","-10","[3920.1999999284744]","1","2","","","3206","56","0","4","lose","no-go","1"
"pit-trial","135","940983","0.0-61.0","battery-v0.2","","""event"",""trial"",""time""
""fullscreenenter"",""1"",""4995""
","
","
","""event"",""trial"",""time""
""fullscreenenter"",""1"",""4995""
","
","","","-1","","","12","3206","2477","j","elianto","#f73b6a7A","-1","-1","1","-10","[]","0","2","","","3206","57","0","4","lose","no-go","1"
"pit-trial","136","944466","0.0-62.0","battery-v0.2","","""event"",""trial"",""time""
""fullscreenenter"",""1"",""4995""
","
","
","""event"",""trial"",""time""
""fullscreenenter"",""1"",""4995""
","
","","","621.7000000476837","","","12","3206","2477","d","elianto","#3366ff99"," "," ","1","0","[1476.5]","1","2","","","3206","58","1","1","win","go","1"
"pit-trial","137","948034","0.0-63.0","battery-v0.2","","""event"",""trial"",""time""
""fullscreenenter"",""1"",""4995""
","
","
","""event"",""trial"",""time""
""fullscreenenter"",""1"",""4995""
","
","","","704.7999999523163","","","12","3206","2477","w","elianto","#f73b6a7A"," "," ","1","0","[1559.6999999284744]","1","2","","","3206","59","3","3","lose","go","0"
"pit-trial","138","952893","0.0-64.0","battery-v0.2","","""event"",""trial"",""time""
""fullscreenenter"",""1"",""4995""
","
","
","""event"",""trial"",""time""
""fullscreenenter"",""1"",""4995""
","
","","","-1","","","12","3206","2477","s","elianto","#3366ff99","-1","-1","1","0","[4166.700000047684]","1","2","","","3206","60","4","2","win","no-go","1"
"pit-trial","139","957756","0.0-65.0","battery-v0.2","","""event"",""trial"",""time""
""fullscreenenter"",""1"",""4995""
","
","
","""event"",""trial"",""time""
""fullscreenenter"",""1"",""4995""
","
","","","-1","","","12","3206","2477","e","elianto","#f73b6a7A","-1","-1","1","0","[]","0","2","","","3206","61","2","4","lose","no-go","0"
"pit-trial","140","961895","0.0-66.0","battery-v0.2","","""event"",""trial"",""time""
""fullscreenenter"",""1"",""4995""
","
","
","""event"",""trial"",""time""
""fullscreenenter"",""1"",""4995""
","
","","","1280.1000000238419","","","12","3206","2477","w","elianto","#f73b6a7A"," "," ","1","0","[2131.2000000476837]","1","2","","","3206","62","3","3","lose","go","0"
"pit-trial","141","966753","0.0-67.0","battery-v0.2","","""event"",""trial"",""time""
""fullscreenenter"",""1"",""4995""
","
","
","""event"",""trial"",""time""
""fullscreenenter"",""1"",""4995""
","
","","","-1","","","12","3206","2477","s","elianto","#3366ff99","-1","-1","1","+10","[]","0","2","","","3206","63","4","2","win","no-go","0"
"pit-trial","142","971505","0.0-68.0","battery-v0.2","","""event"",""trial"",""time""
""fullscreenenter"",""1"",""4995""
","
","
","""event"",""trial"",""time""
""fullscreenenter"",""1"",""4995""
","
","","","1894.3999999761581","","","12","3206","2477","d","elianto","#3366ff99"," "," ","1","+10","[2745.7999999523163]","1","2","","","3206","64","1","1","win","go","0"
"pit-trial","143","976369","0.0-69.0","battery-v0.2","","""event"",""trial"",""time""
""fullscreenenter"",""1"",""4995""
","
","
","""event"",""trial"",""time""
""fullscreenenter"",""1"",""4995""
","
","","","-1","","","12","3206","2477","s","elianto","#3366ff99","-1","-1","1","0","[3886.2999999523163]","1","2","","","3206","65","4","2","win","no-go","1"
"pit-trial","144","980347","0.0-70.0","battery-v0.2","","""event"",""trial"",""time""
""fullscreenenter"",""1"",""4995""
","
","
","""event"",""trial"",""time""
""fullscreenenter"",""1"",""4995""
","
","","","1122.8999999761581","","","12","3206","2477","d","elianto","#3366ff99"," "," ","1","+10","[1976.3999999761581]","1","2","","","3206","66","1","1","win","go","0"
"pit-trial","145","985206","0.0-71.0","battery-v0.2","","""event"",""trial"",""time""
""fullscreenenter"",""1"",""4995""
","
","
","""event"",""trial"",""time""
""fullscreenenter"",""1"",""4995""
","
","","","-1","","","12","3206","2477","e","elianto","#f73b6a7A","-1","-1","1","0","[]","0","2","","","3206","67","2","4","lose","no-go","0"
"pit-trial","146","989612","0.0-72.0","battery-v0.2","","""event"",""trial"",""time""
""fullscreenenter"",""1"",""4995""
","
","
","""event"",""trial"",""time""
""fullscreenenter"",""1"",""4995""
","
","","","1546.8000000715256","","","12","3206","2477","w","elianto","#f73b6a7A"," "," ","1","0","[2397]","1","2","","","3206","68","3","3","lose","go","0"
"pit-trial","147","993798","0.0-73.0","battery-v0.2","","""event"",""trial"",""time""
""fullscreenenter"",""1"",""4995""
","
","
","""event"",""trial"",""time""
""fullscreenenter"",""1"",""4995""
","
","","","1331.7999999523163","","","12","3206","2477","p","elianto","#3366ff99"," "," ","1","+10","[2182.2999999523163]","1","2","","","3206","69","5","1","win","go","0"
"pit-trial","148","997307","0.0-74.0","battery-v0.2","","""event"",""trial"",""time""
""fullscreenenter"",""1"",""4995""
","
","
","""event"",""trial"",""time""
""fullscreenenter"",""1"",""4995""
","
","","","651.3000000715256","","","12","3206","2477","w","elianto","#f73b6a7A"," "," ","1","0","[1502.3000000715256]","1","2","","","3206","70","3","3","lose","go","0"
"pit-trial","149","1002166","0.0-75.0","battery-v0.2","","""event"",""trial"",""time""
""fullscreenenter"",""1"",""4995""
","
","
","""event"",""trial"",""time""
""fullscreenenter"",""1"",""4995""
","
","","","-1","","","12","3206","2477","s","elianto","#3366ff99","-1","-1","1","+10","[]","0","2","","","3206","71","4","2","win","no-go","0"
"pit-trial","150","1005944","0.0-76.0","battery-v0.2","","""event"",""trial"",""time""
""fullscreenenter"",""1"",""4995""
","
","
","""event"",""trial"",""time""
""fullscreenenter"",""1"",""4995""
","
","","","917.6000000238419","","","12","3206","2477","d","elianto","#3366ff99"," "," ","1","+10","[1772]","1","2","","","3206","72","1","1","win","go","0"
"pit-trial","151","1009584","0.0-77.0","battery-v0.2","","""event"",""trial"",""time""
""fullscreenenter"",""1"",""4995""
","
","
","""event"",""trial"",""time""
""fullscreenenter"",""1"",""4995""
","
","","","783.0999999046326","","","12","3206","2477","w","elianto","#f73b6a7A"," "," ","1","0","[1637.2999999523163]","1","2","","","3206","73","3","3","lose","go","0"
"pit-trial","152","1013185","0.0-78.0","battery-v0.2","","""event"",""trial"",""time""
""fullscreenenter"",""1"",""4995""
","
","
","""event"",""trial"",""time""
""fullscreenenter"",""1"",""4995""
","
","","","739.7000000476837","","","12","3206","2477","d","elianto","#3366ff99"," "," ","1","0","[1593.7000000476837]","1","2","","","3206","74","1","1","win","go","1"
"pit-trial","153","1017323","0.0-79.0","battery-v0.2","","""event"",""trial"",""time""
""fullscreenenter"",""1"",""4995""
","
","
","""event"",""trial"",""time""
""fullscreenenter"",""1"",""4995""
","
","","","1279.3999999761581","","","12","3206","2477","p","elianto","#3366ff99"," "," ","1","+10","[2133.2000000476837]","1","2","","","3206","75","5","1","win","go","0"
"pit-trial","154","1022187","0.0-80.0","battery-v0.2","","""event"",""trial"",""time""
""fullscreenenter"",""1"",""4995""
","
","
","""event"",""trial"",""time""
""fullscreenenter"",""1"",""4995""
","
","","","-1","","","12","3206","2477","s","elianto","#3366ff99","-1","-1","1","+10","[]","0","2","","","3206","76","4","2","win","no-go","0"
"pit-trial","155","1026357","0.0-81.0","battery-v0.2","","""event"",""trial"",""time""
""fullscreenenter"",""1"",""4995""
","
","
","""event"",""trial"",""time""
""fullscreenenter"",""1"",""4995""
","
","","","1314.1000000238419","","","12","3206","2477","g","elianto","#f73b6a7A","-1"," ","0","-10","[2165.2999999523163]","1","2","","","3206","77","6","4","lose","no-go","0"
"pit-trial","156","1031220","0.0-82.0","battery-v0.2","","""event"",""trial"",""time""
""fullscreenenter"",""1"",""4995""
","
","
","""event"",""trial"",""time""
""fullscreenenter"",""1"",""4995""
","
","","","-1","","","12","3206","2477","s","elianto","#3366ff99","-1","-1","1","+10","[]","0","2","","","3206","78","4","2","win","no-go","0"
"pit-trial","157","1034944","0.0-83.0","battery-v0.2","","""event"",""trial"",""time""
""fullscreenenter"",""1"",""4995""
","
","
","""event"",""trial"",""time""
""fullscreenenter"",""1"",""4995""
","
","","","866.7000000476837","","","12","3206","2477","w","elianto","#f73b6a7A"," "," ","1","0","[1718.1000000238419]","1","2","","","3206","79","3","3","lose","go","0"
"pit-trial","158","1039303","0.0-84.0","battery-v0.2","","""event"",""trial"",""time""
""fullscreenenter"",""1"",""4995""
","
","
","""event"",""trial"",""time""
""fullscreenenter"",""1"",""4995""
","
","","","1502.5","","","12","3206","2477","p","elianto","#3366ff99"," "," ","1","0","[2354.5]","1","2","","","3206","80","5","1","win","go","1"
"pit-trial","159","1043032","0.0-85.0","battery-v0.2","","""event"",""trial"",""time""
""fullscreenenter"",""1"",""4995""
","
","
","""event"",""trial"",""time""
""fullscreenenter"",""1"",""4995""
","
","","","869.1000000238419","","","12","3206","2477","p","elianto","#3366ff99"," "," ","1","+10","[1721.5]","1","2","","","3206","81","5","1","win","go","0"
"pit-trial","160","1047893","0.0-86.0","battery-v0.2","","""event"",""trial"",""time""
""fullscreenenter"",""1"",""4995""
","
","
","""event"",""trial"",""time""
""fullscreenenter"",""1"",""4995""
","
","","","-1","","","12","3206","2477","g","elianto","#f73b6a7A","-1","-1","1","0","[]","0","2","","","3206","82","6","4","lose","no-go","0"
"pit-trial","161","1052751","0.0-87.0","battery-v0.2","","""event"",""trial"",""time""
""fullscreenenter"",""1"",""4995""
","
","
","""event"",""trial"",""time""
""fullscreenenter"",""1"",""4995""
","
","","","-1","","","12","3206","2477","s","elianto","#3366ff99","-1","-1","1","+10","[]","0","2","","","3206","83","4","2","win","no-go","0"
"pit-trial","162","1057610","0.0-88.0","battery-v0.2","","""event"",""trial"",""time""
""fullscreenenter"",""1"",""4995""
","
","
","""event"",""trial"",""time""
""fullscreenenter"",""1"",""4995""
","
","","","-1","","","12","3206","2477","a","elianto","#f73b6a7A"," ","-1","0","-10","[]","0","2","","","3206","84","7","3","lose","go","0"
"pit-trial","163","1062468","0.0-89.0","battery-v0.2","","""event"",""trial"",""time""
""fullscreenenter"",""1"",""4995""
","
","
","""event"",""trial"",""time""
""fullscreenenter"",""1"",""4995""
","
","","","-1","","","12","3206","2477","s","elianto","#3366ff99","-1","-1","1","+10","[]","0","2","","","3206","85","4","2","win","no-go","0"
"pit-trial","164","1067325","0.0-90.0","battery-v0.2","","""event"",""trial"",""time""
""fullscreenenter"",""1"",""4995""
","
","
","""event"",""trial"",""time""
""fullscreenenter"",""1"",""4995""
","
","","","-1","","","12","3206","2477","g","elianto","#f73b6a7A","-1","-1","1","0","[]","0","2","","","3206","86","6","4","lose","no-go","0"
"pit-trial","165","1070996","0.0-91.0","battery-v0.2","","""event"",""trial"",""time""
""fullscreenenter"",""1"",""4995""
","
","
","""event"",""trial"",""time""
""fullscreenenter"",""1"",""4995""
","
","","","816.1999999284744","","","12","3206","2477","a","elianto","#f73b6a7A"," "," ","1","0","[1666.1999999284744]","1","2","","","3206","87","7","3","lose","go","0"
"pit-trial","166","1074818","0.0-92.0","battery-v0.2","","""event"",""trial"",""time""
""fullscreenenter"",""1"",""4995""
","
","
","""event"",""trial"",""time""
""fullscreenenter"",""1"",""4995""
","
","","","959.6000000238419","","","12","3206","2477","p","elianto","#3366ff99"," "," ","1","+10","[1814.6000000238419]","1","2","","","3206","88","5","1","win","go","0"
"pit-trial","167","1078559","0.0-93.0","battery-v0.2","","""event"",""trial"",""time""
""fullscreenenter"",""1"",""4995""
","
","
","""event"",""trial"",""time""
""fullscreenenter"",""1"",""4995""
","
","","","884.7999999523163","","","12","3206","2477","p","elianto","#3366ff99"," "," ","1","+10","[1738.1000000238419]","1","2","","","3206","89","5","1","win","go","0"
"pit-trial","168","1082281","0.0-94.0","battery-v0.2","","""event"",""trial"",""time""
""fullscreenenter"",""1"",""4995""
","
","
","""event"",""trial"",""time""
""fullscreenenter"",""1"",""4995""
","
","","","866.7999999523163","","","12","3206","2477","a","elianto","#f73b6a7A"," "," ","1","0","[1717]","1","2","","","3206","90","7","3","lose","go","0"
"pit-trial","169","1087140","0.0-95.0","battery-v0.2","","""event"",""trial"",""time""
""fullscreenenter"",""1"",""4995""
","
","
","""event"",""trial"",""time""
""fullscreenenter"",""1"",""4995""
","
","","","-1","","","12","3206","2477","g","elianto","#f73b6a7A","-1","-1","1","0","[221.39999997615814,339.60000002384186,457.5]","3","2","","","3206","91","6","4","lose","no-go","0"
"pit-trial","170","1090649","0.0-96.0","battery-v0.2","","""event"",""trial"",""time""
""fullscreenenter"",""1"",""4995""
","
","
","""event"",""trial"",""time""
""fullscreenenter"",""1"",""4995""
","
","","","645.7000000476837","","","12","3206","2477","s","elianto","#3366ff99","-1"," ","0","0","[535.5,674.3000000715256,1500.3000000715256]","3","2","","","3206","92","4","2","win","no-go","0"
"pit-trial","171","1094558","0.0-97.0","battery-v0.2","","""event"",""trial"",""time""
""fullscreenenter"",""1"",""4995""
","
","
","""event"",""trial"",""time""
""fullscreenenter"",""1"",""4995""
","
","","","1046.2000000476837","","","12","3206","2477","a","elianto","#f73b6a7A"," "," ","1","0","[1901.2000000476837,3074.2000000476837,3192.600000023842,3326.7000000476837,3492.3000000715256,3651.7000000476837]","6","2","","","3206","93","7","3","lose","go","0"
"pit-trial","172","1098938","0.0-98.0","battery-v0.2","","""event"",""trial"",""time""
""fullscreenenter"",""1"",""4995""
","
","
","""event"",""trial"",""time""
""fullscreenenter"",""1"",""4995""
","
","","","1519.8000000715256","","","12","3206","2477","p","elianto","#3366ff99"," "," ","1","+10","[22.899999976158142,177.10000002384186,2373.2000000476837]","3","2","","","3206","94","5","1","win","go","0"
"pit-trial","173","1102730","0.0-99.0","battery-v0.2","","""event"",""trial"",""time""
""fullscreenenter"",""1"",""4995""
","
","
","""event"",""trial"",""time""
""fullscreenenter"",""1"",""4995""
","
","","","933.2000000476837","","","12","3206","2477","l","elianto","#3366ff99","-1"," ","0","+10","[1783.8999999761581]","1","2","","","3206","95","8","2","win","no-go","1"
"pit-trial","174","1107591","0.0-100.0","battery-v0.2","","""event"",""trial"",""time""
""fullscreenenter"",""1"",""4995""
","
","
","""event"",""trial"",""time""
""fullscreenenter"",""1"",""4995""
","
","","","-1","","","12","3206","2477","g","elianto","#f73b6a7A","-1","-1","1","0","[]","0","2","","","3206","96","6","4","lose","no-go","0"
"pit-trial","175","1112451","0.0-101.0","battery-v0.2","","""event"",""trial"",""time""
""fullscreenenter"",""1"",""4995""
","
","
","""event"",""trial"",""time""
""fullscreenenter"",""1"",""4995""
","
","","","-1","","","12","3206","2477","g","elianto","#f73b6a7A","-1","-1","1","0","[]","0","2","","","3206","97","6","4","lose","no-go","0"
"pit-trial","176","1116068","0.0-102.0","battery-v0.2","","""event"",""trial"",""time""
""fullscreenenter"",""1"",""4995""
","
","
","""event"",""trial"",""time""
""fullscreenenter"",""1"",""4995""
","
","","","756.2000000476837","","","12","3206","2477","p","elianto","#3366ff99"," "," ","1","+10","[1609]","1","2","","","3206","98","5","1","win","go","0"
"pit-trial","177","1120174","0.0-103.0","battery-v0.2","","""event"",""trial"",""time""
""fullscreenenter"",""1"",""4995""
","
","
","""event"",""trial"",""time""
""fullscreenenter"",""1"",""4995""
","
","","","1249.1999999284744","","","12","3206","2477","a","elianto","#f73b6a7A"," "," ","1","0","[2102.1999999284744]","1","2","","","3206","99","7","3","lose","go","0"
"pit-trial","178","1123758","0.0-104.0","battery-v0.2","","""event"",""trial"",""time""
""fullscreenenter"",""1"",""4995""
","
","
","""event"",""trial"",""time""
""fullscreenenter"",""1"",""4995""
","
","","","721","","","12","3206","2477","l","elianto","#3366ff99","-1"," ","0","0","[1575.8999999761581]","1","2","","","3206","100","8","2","win","no-go","0"
"pit-trial","179","1127603","0.0-105.0","battery-v0.2","","""event"",""trial"",""time""
""fullscreenenter"",""1"",""4995""
","
","
","""event"",""trial"",""time""
""fullscreenenter"",""1"",""4995""
","
","","","987.9000000953674","","","12","3206","2477","u","elianto","#3366ff99","-1"," ","0","+10","[1841.8999999761581]","1","2","","","3206","101","9","2","win","no-go","1"
"pit-trial","180","1132460","0.0-106.0","battery-v0.2","","""event"",""trial"",""time""
""fullscreenenter"",""1"",""4995""
","
","
","""event"",""trial"",""time""
""fullscreenenter"",""1"",""4995""
","
","","","-1","","","12","3206","2477","p","elianto","#3366ff99"," ","-1","0","0","[3495.5,3759.0999999046326]","2","2","","","3206","102","5","1","win","go","0"
"pit-trial","181","1137320","0.0-107.0","battery-v0.2","","""event"",""trial"",""time""
""fullscreenenter"",""1"",""4995""
","
","
","""event"",""trial"",""time""
""fullscreenenter"",""1"",""4995""
","
","","","-1","","","12","3206","2477","g","elianto","#f73b6a7A","-1","-1","1","0","[]","0","2","","","3206","103","6","4","lose","no-go","0"
"pit-trial","182","1141363","0.0-108.0","battery-v0.2","","""event"",""trial"",""time""
""fullscreenenter"",""1"",""4995""
","
","
","""event"",""trial"",""time""
""fullscreenenter"",""1"",""4995""
","
","","","1189.1000000238419","","","12","3206","2477","l","elianto","#3366ff99","-1"," ","0","0","[2039.2999999523163]","1","2","","","3206","104","8","2","win","no-go","0"
"pit-trial","183","1146224","0.0-109.0","battery-v0.2","","""event"",""trial"",""time""
""fullscreenenter"",""1"",""4995""
","
","
","""event"",""trial"",""time""
""fullscreenenter"",""1"",""4995""
","
","","","-1","","","12","3206","2477","g","elianto","#f73b6a7A","-1","-1","1","0","[]","0","2","","","3206","105","6","4","lose","no-go","0"
"pit-trial","184","1151085","0.0-110.0","battery-v0.2","","""event"",""trial"",""time""
""fullscreenenter"",""1"",""4995""
","
","
","""event"",""trial"",""time""
""fullscreenenter"",""1"",""4995""
","
","","","-1","","","12","3206","2477","l","elianto","#3366ff99","-1","-1","1","0","[]","0","2","","","3206","106","8","2","win","no-go","1"
"pit-trial","185","1155944","0.0-111.0","battery-v0.2","","""event"",""trial"",""time""
""fullscreenenter"",""1"",""4995""
","
","
","""event"",""trial"",""time""
""fullscreenenter"",""1"",""4995""
","
","","","-1","","","12","3206","2477","u","elianto","#3366ff99","-1","-1","1","+10","[]","0","2","","","3206","107","9","2","win","no-go","0"
"pit-trial","186","1160806","0.0-112.0","battery-v0.2","","""event"",""trial"",""time""
""fullscreenenter"",""1"",""4995""
","
","
","""event"",""trial"",""time""
""fullscreenenter"",""1"",""4995""
","
","","","-1","","","12","3206","2477","p","elianto","#3366ff99"," ","-1","0","0","[]","0","2","","","3206","108","5","1","win","go","0"
"pit-trial","187","1165666","0.0-113.0","battery-v0.2","","""event"",""trial"",""time""
""fullscreenenter"",""1"",""4995""
","
","
","""event"",""trial"",""time""
""fullscreenenter"",""1"",""4995""
","
","","","-1","","","12","3206","2477","l","elianto","#3366ff99","-1","-1","1","0","[3868.5]","1","2","","","3206","109","8","2","win","no-go","1"
"pit-trial","188","1169261","0.0-114.0","battery-v0.2","","""event"",""trial"",""time""
""fullscreenenter"",""1"",""4995""
","
","
","""event"",""trial"",""time""
""fullscreenenter"",""1"",""4995""
","
","","","735","","","12","3206","2477","u","elianto","#3366ff99","-1"," ","0","0","[1589.3999999761581,2149.1999999284744,2311.0999999046326]","3","2","","","3206","110","9","2","win","no-go","0"
"pit-trial","189","1173608","0.0-115.0","battery-v0.2","","""event"",""trial"",""time""
""fullscreenenter"",""1"",""4995""
","
","
","""event"",""trial"",""time""
""fullscreenenter"",""1"",""4995""
","
","","","1489.6999999284744","","","12","3206","2477","p","elianto","#3366ff99"," "," ","1","+10","[2342.5,2925.2000000476837,3167.2000000476837]","3","2","","","3206","111","5","1","win","go","0"
"pit-trial","190","1178467","0.0-116.0","battery-v0.2","","""event"",""trial"",""time""
""fullscreenenter"",""1"",""4995""
","
","
","""event"",""trial"",""time""
""fullscreenenter"",""1"",""4995""
","
","","","-1","","","12","3206","2477","g","elianto","#f73b6a7A","-1","-1","1","-10","[]","0","2","","","3206","112","6","4","lose","no-go","1"
"pit-trial","191","1182834","0.0-117.0","battery-v0.2","","""event"",""trial"",""time""
""fullscreenenter"",""1"",""4995""
","
","
","""event"",""trial"",""time""
""fullscreenenter"",""1"",""4995""
","
","","","1506","","","12","3206","2477","u","elianto","#3366ff99","-1"," ","0","0","[2358.9000000953674]","1","2","","","3206","113","9","2","win","no-go","0"
"pit-trial","192","1187044","0.0-118.0","battery-v0.2","","""event"",""trial"",""time""
""fullscreenenter"",""1"",""4995""
","
","
","""event"",""trial"",""time""
""fullscreenenter"",""1"",""4995""
","
","","","1350.7000000476837","","","12","3206","2477","l","elianto","#3366ff99","-1"," ","0","0","[2204.6999999284744]","1","2","","","3206","114","8","2","win","no-go","0"
"pit-trial","193","1190940","0.0-119.0","battery-v0.2","","""event"",""trial"",""time""
""fullscreenenter"",""1"",""4995""
","
","
","""event"",""trial"",""time""
""fullscreenenter"",""1"",""4995""
","
","","","1039.1999999284744","","","12","3206","2477","a","elianto","#f73b6a7A"," "," ","1","-10","[1892.1999999284744]","1","2","","","3206","115","7","3","lose","go","1"
"pit-trial","194","1195196","0.0-120.0","battery-v0.2","","""event"",""trial"",""time""
""fullscreenenter"",""1"",""4995""
","
","
","""event"",""trial"",""time""
""fullscreenenter"",""1"",""4995""
","
","","","1394.1999999284744","","","12","3206","2477","p","elianto","#3366ff99"," "," ","1","+10","[2248.6999999284744]","1","2","","","3206","116","5","1","win","go","0"
"pit-trial","195","1200055","0.0-121.0","battery-v0.2","","""event"",""trial"",""time""
""fullscreenenter"",""1"",""4995""
","
","
","""event"",""trial"",""time""
""fullscreenenter"",""1"",""4995""
","
","","","-1","","","12","3206","2477","l","elianto","#3366ff99","-1","-1","1","0","[3534.399999976158,3740.7000000476837,3941.2000000476837,4116.800000071526,4468.600000023842,4674.700000047684,4776.800000071526]","7","2","","","3206","117","8","2","win","no-go","1"
"pit-trial","196","1202993","0.0-122.0","battery-v0.2","","""event"",""trial"",""time""
""fullscreenenter"",""1"",""4995""
","
","
","""event"",""trial"",""time""
""fullscreenenter"",""1"",""4995""
","
","","","80.5","","","12","3206","2477","u","elianto","#3366ff99","-1"," ","0","0","[337.8000000715256,463,748,931,2113.7000000476837,2751.5]","6","2","","","3206","118","9","2","win","no-go","0"
"pit-trial","197","1207271","0.0-123.0","battery-v0.2","","""event"",""trial"",""time""
""fullscreenenter"",""1"",""4995""
","
","
","""event"",""trial"",""time""
""fullscreenenter"",""1"",""4995""
","
","","","1418.7000000476837","","","12","3206","2477","p","elianto","#3366ff99"," "," ","1","+10","[2271.600000023842]","1","2","","","3206","119","5","1","win","go","0"
"pit-trial","198","1212129","0.0-124.0","battery-v0.2","","""event"",""trial"",""time""
""fullscreenenter"",""1"",""4995""
","
","
","""event"",""trial"",""time""
""fullscreenenter"",""1"",""4995""
","
","","","-1","","","12","3206","2477","g","elianto","#f73b6a7A","-1","-1","1","0","[]","0","2","","","3206","120","6","4","lose","no-go","0"
"pit-trial","199","1216988","0.0-125.0","battery-v0.2","","""event"",""trial"",""time""
""fullscreenenter"",""1"",""4995""
","
","
","""event"",""trial"",""time""
""fullscreenenter"",""1"",""4995""
","
","","","-1","","","12","3206","2477","u","elianto","#3366ff99","-1","-1","1","+10","[]","0","2","","","3206","121","9","2","win","no-go","0"
"pit-trial","200","1220780","0.0-126.0","battery-v0.2","","""event"",""trial"",""time""
""fullscreenenter"",""1"",""4995""
","
","
","""event"",""trial"",""time""
""fullscreenenter"",""1"",""4995""
","
","","","931.7000000476837","","","12","3206","2477","p","elianto","#3366ff99"," "," ","1","+10","[1783.3999999761581]","1","2","","","3206","122","5","1","win","go","0"
"pit-trial","201","1224604","0.0-127.0","battery-v0.2","","""event"",""trial"",""time""
""fullscreenenter"",""1"",""4995""
","
","
","""event"",""trial"",""time""
""fullscreenenter"",""1"",""4995""
","
","","","966.5","","","12","3206","2477","a","elianto","#f73b6a7A"," "," ","1","0","[1816.6999999284744]","1","2","","","3206","123","7","3","lose","go","0"
"pit-trial","202","1228497","0.0-128.0","battery-v0.2","","""event"",""trial"",""time""
""fullscreenenter"",""1"",""4995""
","
","
","""event"",""trial"",""time""
""fullscreenenter"",""1"",""4995""
","
","","","1038.1999999284744","","","12","3206","2477","l","elianto","#3366ff99","-1"," ","0","0","[1889.1000000238419,3056.7999999523163,3557.5]","3","2","","","3206","124","8","2","win","no-go","0"
"pit-trial","203","1231398","0.0-129.0","battery-v0.2","","""event"",""trial"",""time""
""fullscreenenter"",""1"",""4995""
","
","
","""event"",""trial"",""time""
""fullscreenenter"",""1"",""4995""
","
","","","38.89999997615814","","","12","3206","2477","u","elianto","#3366ff99","-1"," ","0","0","[22.100000023841858,160.10000002384186,329.10000002384186,427,894,1077.2000000476837]","6","2","","","3206","125","9","2","win","no-go","0"
"pit-trial","204","1236257","0.0-130.0","battery-v0.2","","""event"",""trial"",""time""
""fullscreenenter"",""1"",""4995""
","
","
","""event"",""trial"",""time""
""fullscreenenter"",""1"",""4995""
","
","","","-1","","","12","3206","2477","g","elianto","#f73b6a7A","-1","-1","1","-10","[]","0","2","","","3206","126","6","4","lose","no-go","1"
"pit-trial","205","1240176","0.0-131.0","battery-v0.2","","""event"",""trial"",""time""
""fullscreenenter"",""1"",""4995""
","
","
","""event"",""trial"",""time""
""fullscreenenter"",""1"",""4995""
","
","","","1055.8000000715256","","","12","3206","2477","l","elianto","#3366ff99","-1"," ","0","+10","[303.10000002384186,1911]","2","2","","","3206","127","8","2","win","no-go","1"
"pit-trial","206","1243745","0.0-132.0","battery-v0.2","","""event"",""trial"",""time""
""fullscreenenter"",""1"",""4995""
","
","
","""event"",""trial"",""time""
""fullscreenenter"",""1"",""4995""
","
","","","708.8000000715256","","","12","3206","2477","a","elianto","#f73b6a7A"," "," ","1","0","[1561.3000000715256]","1","2","","","3206","128","7","3","lose","go","0"
"pit-trial","207","1248607","0.0-133.0","battery-v0.2","","""event"",""trial"",""time""
""fullscreenenter"",""1"",""4995""
","
","
","""event"",""trial"",""time""
""fullscreenenter"",""1"",""4995""
","
","","","-1","","","12","3206","2477","u","elianto","#3366ff99","-1","-1","1","+10","[]","0","2","","","3206","129","9","2","win","no-go","0"
"pit-trial","208","1252476","0.0-134.0","battery-v0.2","","""event"",""trial"",""time""
""fullscreenenter"",""1"",""4995""
","
","
","""event"",""trial"",""time""
""fullscreenenter"",""1"",""4995""
","
","","","1011.0999999046326","","","12","3206","2477","l","elianto","#3366ff99","-1"," ","0","+10","[1864.8999999761581]","1","2","","","3206","130","8","2","win","no-go","1"
"pit-trial","209","1256155","0.0-135.0","battery-v0.2","","""event"",""trial"",""time""
""fullscreenenter"",""1"",""4995""
","
","
","""event"",""trial"",""time""
""fullscreenenter"",""1"",""4995""
","
","","","820.6999999284744","","","12","3206","2477","a","elianto","#f73b6a7A"," "," ","1","0","[1671.8000000715256]","1","2","","","3206","131","7","3","lose","go","0"
"pit-trial","210","1261013","0.0-136.0","battery-v0.2","","""event"",""trial"",""time""
""fullscreenenter"",""1"",""4995""
","
","
","""event"",""trial"",""time""
""fullscreenenter"",""1"",""4995""
","
","","","-1","","","12","3206","2477","g","elianto","#f73b6a7A","-1","-1","1","0","[]","0","2","","","3206","132","6","4","lose","no-go","0"
"pit-trial","211","1265046","0.0-137.0","battery-v0.2","","""event"",""trial"",""time""
""fullscreenenter"",""1"",""4995""
","
","
","""event"",""trial"",""time""
""fullscreenenter"",""1"",""4995""
","
","","","1176.5","","","12","3206","2477","l","elianto","#3366ff99","-1"," ","0","0","[2028.6000000238419]","1","2","","","3206","133","8","2","win","no-go","0"
"pit-trial","212","1269227","0.0-138.0","battery-v0.2","","""event"",""trial"",""time""
""fullscreenenter"",""1"",""4995""
","
","
","""event"",""trial"",""time""
""fullscreenenter"",""1"",""4995""
","
","","","1320.8999999761581","","","12","3206","2477","a","elianto","#f73b6a7A"," "," ","1","0","[2175.7000000476837]","1","2","","","3206","134","7","3","lose","go","0"
"pit-trial","213","1274091","0.0-139.0","battery-v0.2","","""event"",""trial"",""time""
""fullscreenenter"",""1"",""4995""
","
","
","""event"",""trial"",""time""
""fullscreenenter"",""1"",""4995""
","
","","","-1","","","12","3206","2477","u","elianto","#3366ff99","-1","-1","1","+10","[]","0","2","","","3206","135","9","2","win","no-go","0"
"pit-trial","214","1278955","0.0-140.0","battery-v0.2","","""event"",""trial"",""time""
""fullscreenenter"",""1"",""4995""
","
","
","""event"",""trial"",""time""
""fullscreenenter"",""1"",""4995""
","
","","","-1","","","12","3206","2477","g","elianto","#f73b6a7A","-1","-1","1","0","[]","0","2","","","3206","136","6","4","lose","no-go","0"
"pit-trial","215","1283110","0.0-141.0","battery-v0.2","","""event"",""trial"",""time""
""fullscreenenter"",""1"",""4995""
","
","
","""event"",""trial"",""time""
""fullscreenenter"",""1"",""4995""
","
","","","1298.1000000238419","","","12","3206","2477","a","elianto","#f73b6a7A"," "," ","1","0","[2148.2999999523163]","1","2","","","3206","137","7","3","lose","go","0"
"pit-trial","216","1287387","0.0-142.0","battery-v0.2","","""event"",""trial"",""time""
""fullscreenenter"",""1"",""4995""
","
","
","""event"",""trial"",""time""
""fullscreenenter"",""1"",""4995""
","
","","","1416.7999999523163","","","12","3206","2477","l","elianto","#3366ff99","-1"," ","0","0","[2271.1999999284744]","1","2","","","3206","138","8","2","win","no-go","0"
"pit-trial","217","1292250","0.0-143.0","battery-v0.2","","""event"",""trial"",""time""
""fullscreenenter"",""1"",""4995""
","
","
","""event"",""trial"",""time""
""fullscreenenter"",""1"",""4995""
","
","","","-1","","","12","3206","2477","u","elianto","#3366ff99","-1","-1","1","+10","[]","0","2","","","3206","139","9","2","win","no-go","0"
"pit-trial","218","1297109","0.0-144.0","battery-v0.2","","""event"",""trial"",""time""
""fullscreenenter"",""1"",""4995""
","
","
","""event"",""trial"",""time""
""fullscreenenter"",""1"",""4995""
","
","","","-1","","","12","3206","2477","g","elianto","#f73b6a7A","-1","-1","1","0","[]","0","2","","","3206","140","6","4","lose","no-go","0"
"pit-instructions","219","1311896","0.0-145.0","battery-v0.2","","""event"",""trial"",""time""
""fullscreenenter"",""1"",""4995""
","
","
","""event"",""trial"",""time""
""fullscreenenter"",""1"",""4995""
","
","","[{""page_index"":0,""viewing_time"":6665.600000023842},{""page_index"":1,""viewing_time"":8117.5}]","14783.700000047684","","","","","","","","","","","","","","","","","","","","","","","",""
"pit-trial","220","1316731","0.0-146.0","battery-v0.2","","""event"",""trial"",""time""
""fullscreenenter"",""1"",""4995""
","
","
","""event"",""trial"",""time""
""fullscreenenter"",""1"",""4995""
","
","","","1972.7999999523163","","","12","3206","2477","y","elianto","#f73b6a7A"," "," ","1","0","[2826.2999999523163]","1","3","","","3206","141","2","3","lose","go","0"
"pit-trial","221","1321589","0.0-147.0","battery-v0.2","","""event"",""trial"",""time""
""fullscreenenter"",""1"",""4995""
","
","
","""event"",""trial"",""time""
""fullscreenenter"",""1"",""4995""
","
","","","-1","","","12","3206","2477","h","elianto","#f73b6a7A","-1","-1","1","0","[]","0","3","","","3206","142","3","4","lose","no-go","0"
"pit-trial","222","1325274","0.0-148.0","battery-v0.2","","""event"",""trial"",""time""
""fullscreenenter"",""1"",""4995""
","
","
","""event"",""trial"",""time""
""fullscreenenter"",""1"",""4995""
","
","","","827.4000000953674","","","12","3206","2477","r","elianto","#3366ff99","-1"," ","0","0","[1678.3000000715256]","1","3","","","3206","143","1","2","win","no-go","0"
"pit-trial","223","1330135","0.0-149.0","battery-v0.2","","""event"",""trial"",""time""
""fullscreenenter"",""1"",""4995""
","
","
","""event"",""trial"",""time""
""fullscreenenter"",""1"",""4995""
","
","","","-1","","","12","3206","2477","m","elianto","#f73b6a7A"," ","-1","0","-10","[]","0","3","","","3206","144","0","3","lose","go","0"
"pit-trial","224","1334993","0.0-150.0","battery-v0.2","","""event"",""trial"",""time""
""fullscreenenter"",""1"",""4995""
","
","
","""event"",""trial"",""time""
""fullscreenenter"",""1"",""4995""
","
","","","-1","","","12","3206","2477","r","elianto","#3366ff99","-1","-1","1","+10","[]","0","3","","","3206","145","1","2","win","no-go","0"
"pit-trial","225","1339856","0.0-151.0","battery-v0.2","","""event"",""trial"",""time""
""fullscreenenter"",""1"",""4995""
","
","
","""event"",""trial"",""time""
""fullscreenenter"",""1"",""4995""
","
","","","-1","","","12","3206","2477","h","elianto","#f73b6a7A","-1","-1","1","0","[2965.3000000715256]","1","3","","","3206","146","3","4","lose","no-go","0"
"pit-trial","226","1344714","0.0-152.0","battery-v0.2","","""event"",""trial"",""time""
""fullscreenenter"",""1"",""4995""
","
","
","""event"",""trial"",""time""
""fullscreenenter"",""1"",""4995""
","
","","","-1","","","12","3206","2477","m","elianto","#f73b6a7A"," ","-1","0","-10","[]","0","3","","","3206","147","0","3","lose","go","0"
"pit-trial","227","1349572","0.0-153.0","battery-v0.2","","""event"",""trial"",""time""
""fullscreenenter"",""1"",""4995""
","
","
","""event"",""trial"",""time""
""fullscreenenter"",""1"",""4995""
","
","","","-1","","","12","3206","2477","y","elianto","#f73b6a7A"," ","-1","0","0","[2953]","1","3","","","3206","148","2","3","lose","go","1"
"pit-trial","228","1353504","0.0-154.0","battery-v0.2","","""event"",""trial"",""time""
""fullscreenenter"",""1"",""4995""
","
","
","""event"",""trial"",""time""
""fullscreenenter"",""1"",""4995""
","
","","","1075.2000000476837","","","12","3206","2477","h","elianto","#f73b6a7A","-1"," ","0","0","[1925.8000000715256]","1","3","","","3206","149","3","4","lose","no-go","1"
"pit-trial","229","1357100","0.0-155.0","battery-v0.2","","""event"",""trial"",""time""
""fullscreenenter"",""1"",""4995""
","
","
","""event"",""trial"",""time""
""fullscreenenter"",""1"",""4995""
","
","","","738.9000000953674","","","12","3206","2477","y","elianto","#f73b6a7A"," "," ","1","-10","[1589.2000000476837]","1","3","","","3206","150","2","3","lose","go","1"
"pit-trial","230","1360388","0.0-156.0","battery-v0.2","","""event"",""trial"",""time""
""fullscreenenter"",""1"",""4995""
","
","
","""event"",""trial"",""time""
""fullscreenenter"",""1"",""4995""
","
","","","430.6999999284744","","","12","3206","2477","m","elianto","#f73b6a7A"," "," ","1","0","[1283.3999999761581]","1","3","","","3206","151","0","3","lose","go","0"
"pit-trial","231","1365247","0.0-157.0","battery-v0.2","","""event"",""trial"",""time""
""fullscreenenter"",""1"",""4995""
","
","
","""event"",""trial"",""time""
""fullscreenenter"",""1"",""4995""
","
","","","-1","","","12","3206","2477","r","elianto","#3366ff99","-1","-1","1","+10","[]","0","3","","","3206","152","1","2","win","no-go","0"
"pit-trial","232","1370110","0.0-158.0","battery-v0.2","","""event"",""trial"",""time""
""fullscreenenter"",""1"",""4995""
","
","
","""event"",""trial"",""time""
""fullscreenenter"",""1"",""4995""
","
","","","-1","","","12","3206","2477","y","elianto","#f73b6a7A"," ","-1","0","-10","[]","0","3","","","3206","153","2","3","lose","go","0"
"pit-trial","233","1374969","0.0-159.0","battery-v0.2","","""event"",""trial"",""time""
""fullscreenenter"",""1"",""4995""
","
","
","""event"",""trial"",""time""
""fullscreenenter"",""1"",""4995""
","
","","","-1","","","12","3206","2477","h","elianto","#f73b6a7A","-1","-1","1","-10","[]","0","3","","","3206","154","3","4","lose","no-go","1"
"pit-trial","234","1379827","0.0-160.0","battery-v0.2","","""event"",""trial"",""time""
""fullscreenenter"",""1"",""4995""
","
","
","""event"",""trial"",""time""
""fullscreenenter"",""1"",""4995""
","
","","","-1","","","12","3206","2477","m","elianto","#f73b6a7A"," ","-1","0","-10","[]","0","3","","","3206","155","0","3","lose","go","0"
"pit-trial","235","1384685","0.0-161.0","battery-v0.2","","""event"",""trial"",""time""
""fullscreenenter"",""1"",""4995""
","
","
","""event"",""trial"",""time""
""fullscreenenter"",""1"",""4995""
","
","","","-1","","","12","3206","2477","r","elianto","#3366ff99","-1","-1","1","+10","[]","0","3","","","3206","156","1","2","win","no-go","0"
"pit-trial","236","1388441","0.0-162.0","battery-v0.2","","""event"",""trial"",""time""
""fullscreenenter"",""1"",""4995""
","
","
","""event"",""trial"",""time""
""fullscreenenter"",""1"",""4995""
","
","","","900.8999999761581","","","12","3206","2477","m","elianto","#f73b6a7A"," "," ","1","0","[1753]","1","3","","","3206","157","0","3","lose","go","0"
"pit-trial","237","1393301","0.0-163.0","battery-v0.2","","""event"",""trial"",""time""
""fullscreenenter"",""1"",""4995""
","
","
","""event"",""trial"",""time""
""fullscreenenter"",""1"",""4995""
","
","","","-1","","","12","3206","2477","r","elianto","#3366ff99","-1","-1","1","+10","[]","0","3","","","3206","158","1","2","win","no-go","0"
"pit-trial","238","1397401","0.0-164.0","battery-v0.2","","""event"",""trial"",""time""
""fullscreenenter"",""1"",""4995""
","
","
","""event"",""trial"",""time""
""fullscreenenter"",""1"",""4995""
","
","","","1242.7000000476837","","","12","3206","2477","y","elianto","#f73b6a7A"," "," ","1","0","[2094.7999999523163]","1","3","","","3206","159","2","3","lose","go","0"
"pit-trial","239","1401001","0.0-165.0","battery-v0.2","","""event"",""trial"",""time""
""fullscreenenter"",""1"",""4995""
","
","
","""event"",""trial"",""time""
""fullscreenenter"",""1"",""4995""
","
","","","742.5","","","12","3206","2477","h","elianto","#f73b6a7A","-1"," ","0","-10","[1594.8999999761581]","1","3","","","3206","160","3","4","lose","no-go","0"
"pit-trial","240","1405864","0.0-166.0","battery-v0.2","","""event"",""trial"",""time""
""fullscreenenter"",""1"",""4995""
","
","
","""event"",""trial"",""time""
""fullscreenenter"",""1"",""4995""
","
","","","-1","","","12","3206","2477","r","elianto","#3366ff99","-1","-1","1","+10","[]","0","3","","","3206","161","1","2","win","no-go","0"
"pit-trial","241","1409629","0.0-167.0","battery-v0.2","","""event"",""trial"",""time""
""fullscreenenter"",""1"",""4995""
","
","
","""event"",""trial"",""time""
""fullscreenenter"",""1"",""4995""
","
","","","903.7999999523163","","","12","3206","2477","m","elianto","#f73b6a7A"," "," ","1","0","[1758.2999999523163]","1","3","","","3206","162","0","3","lose","go","0"
"pit-trial","242","1413181","0.0-168.0","battery-v0.2","","""event"",""trial"",""time""
""fullscreenenter"",""1"",""4995""
","
","
","""event"",""trial"",""time""
""fullscreenenter"",""1"",""4995""
","
","","","697.5","","","12","3206","2477","y","elianto","#f73b6a7A"," "," ","1","0","[1548.4000000953674]","1","3","","","3206","163","2","3","lose","go","0"
"pit-trial","243","1417042","0.0-169.0","battery-v0.2","","""event"",""trial"",""time""
""fullscreenenter"",""1"",""4995""
","
","
","""event"",""trial"",""time""
""fullscreenenter"",""1"",""4995""
","
","","","1001","","","12","3206","2477","h","elianto","#f73b6a7A","-1"," ","0","-10","[1855.7000000476837]","1","3","","","3206","164","3","4","lose","no-go","0"
"pit-trial","244","1421901","0.0-170.0","battery-v0.2","","""event"",""trial"",""time""
""fullscreenenter"",""1"",""4995""
","
","
","""event"",""trial"",""time""
""fullscreenenter"",""1"",""4995""
","
","","","-1","","","12","3206","2477","r","elianto","#3366ff99","-1","-1","1","+10","[]","0","3","","","3206","165","1","2","win","no-go","0"
"pit-trial","245","1426168","0.0-171.0","battery-v0.2","","""event"",""trial"",""time""
""fullscreenenter"",""1"",""4995""
","
","
","""event"",""trial"",""time""
""fullscreenenter"",""1"",""4995""
","
","","","1408","","","12","3206","2477","y","elianto","#f73b6a7A"," "," ","1","-10","[2259.6999999284744]","1","3","","","3206","166","2","3","lose","go","1"
"pit-trial","246","1431027","0.0-172.0","battery-v0.2","","""event"",""trial"",""time""
""fullscreenenter"",""1"",""4995""
","
","
","""event"",""trial"",""time""
""fullscreenenter"",""1"",""4995""
","
","","","-1","","","12","3206","2477","h","elianto","#f73b6a7A","-1","-1","1","0","[]","0","3","","","3206","167","3","4","lose","no-go","0"
"pit-trial","247","1434844","0.0-173.0","battery-v0.2","","""event"",""trial"",""time""
""fullscreenenter"",""1"",""4995""
","
","
","""event"",""trial"",""time""
""fullscreenenter"",""1"",""4995""
","
","","","953.5","","","12","3206","2477","m","elianto","#f73b6a7A"," "," ","1","0","[1808.2000000476837]","1","3","","","3206","168","0","3","lose","go","0"
"pit-trial","248","1438549","0.0-174.0","battery-v0.2","","""event"",""trial"",""time""
""fullscreenenter"",""1"",""4995""
","
","
","""event"",""trial"",""time""
""fullscreenenter"",""1"",""4995""
","
","","","847.2999999523163","","","12","3206","2477","y","elianto","#f73b6a7A"," "," ","1","-10","[1698.2000000476837]","1","3","","","3206","169","2","3","lose","go","1"
"pit-trial","249","1442509","0.0-175.0","battery-v0.2","","""event"",""trial"",""time""
""fullscreenenter"",""1"",""4995""
","
","
","""event"",""trial"",""time""
""fullscreenenter"",""1"",""4995""
","
","","","1100.1000000238419","","","12","3206","2477","m","elianto","#f73b6a7A"," "," ","1","0","[497.2999999523163,1954.8999999761581]","2","3","","","3206","170","0","3","lose","go","0"
"pit-trial","250","1447367","0.0-176.0","battery-v0.2","","""event"",""trial"",""time""
""fullscreenenter"",""1"",""4995""
","
","
","""event"",""trial"",""time""
""fullscreenenter"",""1"",""4995""
","
","","","-1","","","12","3206","2477","r","elianto","#3366ff99","-1","-1","1","+10","[]","0","3","","","3206","171","1","2","win","no-go","0"
"pit-trial","251","1451812","0.0-177.0","battery-v0.2","","""event"",""trial"",""time""
""fullscreenenter"",""1"",""4995""
","
","
","""event"",""trial"",""time""
""fullscreenenter"",""1"",""4995""
","
","","","1585","","","12","3206","2477","h","elianto","#f73b6a7A","-1"," ","0","-10","[2436.899999976158]","1","3","","","3206","172","3","4","lose","no-go","0"
"pit-trial","252","1456674","0.0-178.0","battery-v0.2","","""event"",""trial"",""time""
""fullscreenenter"",""1"",""4995""
","
","
","""event"",""trial"",""time""
""fullscreenenter"",""1"",""4995""
","
","","","-1","","","12","3206","2477","r","elianto","#3366ff99","-1","-1","1","0","[]","0","3","","","3206","173","1","2","win","no-go","1"
"pit-trial","253","1461533","0.0-179.0","battery-v0.2","","""event"",""trial"",""time""
""fullscreenenter"",""1"",""4995""
","
","
","""event"",""trial"",""time""
""fullscreenenter"",""1"",""4995""
","
","","","-1","","","12","3206","2477","h","elianto","#f73b6a7A","-1","-1","1","0","[]","0","3","","","3206","174","3","4","lose","no-go","0"
"pit-trial","254","1466393","0.0-180.0","battery-v0.2","","""event"",""trial"",""time""
""fullscreenenter"",""1"",""4995""
","
","
","""event"",""trial"",""time""
""fullscreenenter"",""1"",""4995""
","
","","","-1","","","12","3206","2477","y","elianto","#f73b6a7A"," ","-1","0","-10","[]","0","3","","","3206","175","2","3","lose","go","0"
"pit-trial","255","1470593","0.0-181.0","battery-v0.2","","""event"",""trial"",""time""
""fullscreenenter"",""1"",""4995""
","
","
","""event"",""trial"",""time""
""fullscreenenter"",""1"",""4995""
","
","","","1339.5","","","12","3206","2477","m","elianto","#f73b6a7A"," "," ","1","0","[2193.600000023842]","1","3","","","3206","176","0","3","lose","go","0"
"pit-trial","256","1475169","0.0-182.0","battery-v0.2","","""event"",""trial"",""time""
""fullscreenenter"",""1"",""4995""
","
","
","""event"",""trial"",""time""
""fullscreenenter"",""1"",""4995""
","
","","","1721.2999999523163","","","12","3206","2477","z","elianto","#3366ff99"," "," ","1","0","[2572.7000000476837]","1","3","","","3206","177","4","1","win","go","1"
"pit-trial","257","1480028","0.0-183.0","battery-v0.2","","""event"",""trial"",""time""
""fullscreenenter"",""1"",""4995""
","
","
","""event"",""trial"",""time""
""fullscreenenter"",""1"",""4995""
","
","","","-1","","","12","3206","2477","h","elianto","#f73b6a7A","-1","-1","1","0","[]","0","3","","","3206","178","3","4","lose","no-go","0"
"pit-trial","258","1484886","0.0-184.0","battery-v0.2","","""event"",""trial"",""time""
""fullscreenenter"",""1"",""4995""
","
","
","""event"",""trial"",""time""
""fullscreenenter"",""1"",""4995""
","
","","","-1","","","12","3206","2477","y","elianto","#f73b6a7A"," ","-1","0","-10","[3305.2000000476837,3477]","2","3","","","3206","179","2","3","lose","go","0"
"pit-trial","259","1488321","0.0-185.0","battery-v0.2","","""event"",""trial"",""time""
""fullscreenenter"",""1"",""4995""
","
","
","""event"",""trial"",""time""
""fullscreenenter"",""1"",""4995""
","
","","","576.1000000238419","","","12","3206","2477","m","elianto","#f73b6a7A"," "," ","1","0","[1426.9000000953674]","1","3","","","3206","180","0","3","lose","go","0"
"pit-trial","260","1493182","0.0-186.0","battery-v0.2","","""event"",""trial"",""time""
""fullscreenenter"",""1"",""4995""
","
","
","""event"",""trial"",""time""
""fullscreenenter"",""1"",""4995""
","
","","","-1","","","12","3206","2477","h","elianto","#f73b6a7A","-1","-1","1","0","[]","0","3","","","3206","181","3","4","lose","no-go","0"
"pit-trial","261","1498040","0.0-187.0","battery-v0.2","","""event"",""trial"",""time""
""fullscreenenter"",""1"",""4995""
","
","
","""event"",""trial"",""time""
""fullscreenenter"",""1"",""4995""
","
","","","-1","","","12","3206","2477","r","elianto","#3366ff99","-1","-1","1","+10","[]","0","3","","","3206","182","1","2","win","no-go","0"
"pit-trial","262","1502390","0.0-188.0","battery-v0.2","","""event"",""trial"",""time""
""fullscreenenter"",""1"",""4995""
","
","
","""event"",""trial"",""time""
""fullscreenenter"",""1"",""4995""
","
","","","1489.3999999761581","","","12","3206","2477","y","elianto","#f73b6a7A"," "," ","1","0","[2344.0999999046326]","1","3","","","3206","183","2","3","lose","go","0"
"pit-trial","263","1507249","0.0-189.0","battery-v0.2","","""event"",""trial"",""time""
""fullscreenenter"",""1"",""4995""
","
","
","""event"",""trial"",""time""
""fullscreenenter"",""1"",""4995""
","
","","","-1","","","12","3206","2477","z","elianto","#3366ff99"," ","-1","0","0","[]","0","3","","","3206","184","4","1","win","go","0"
