"trial_type","trial_index","time_elapsed","internal_node_id","task_version","subject_id","interactions","blur_events","focus_events","fullscreenenter_events","fullscreenexit_events","success","view_history","rt","responses","num_errors","age","subject","participantId","rune","rune_set","hex","correct","choice","accuracy","outcome","keys","total_keys","block","practice","value","sub","trial","stimulus","robot","valence","action","sham"
"pavlovia","0","26","0.0-0.0","battery-v0.2","","""event"",""trial"",""time""
""fullscreenenter"",""1"",""2437""
","
","
","""event"",""trial"",""time""
""fullscreenenter"",""1"",""2437""
","
","","","","","","","","","","","","","","","","","","","","","","","","","","",""
"fullscreen","1","3435","0.0-1.0","battery-v0.2","","""event"",""trial"",""time""
""fullscreenenter"",""1"",""2437""
","
","
","""event"",""trial"",""time""
""fullscreenenter"",""1"",""2437""
","
","true","","","","","","","","","","","","","","","","","","","","","","","","","",""
"pit-instructions","2","10960","0.0-2.0-0.0","battery-v0.2","","""event"",""trial"",""time""
""fullscreenenter"",""1"",""2437""
","
","
","""event"",""trial"",""time""
""fullscreenenter"",""1"",""2437""
","
","","[{""page_index"":0,""viewing_time"":7479.70000000007}]","7480.599999999977","","","","","","","","","","","","","","","","","","","","","","","",""
"pit-comprehension","3","13460","0.0-2.0-1.0-0.0","battery-v0.2","","""event"",""trial"",""time""
""fullscreenenter"",""1"",""2437""
","
","
","""event"",""trial"",""time""
""fullscreenenter"",""1"",""2437""
","
","","","2494.4000000000233","[""shark""]","0","10","3756","1462","","","","","","","","","","","","","","","","","","",""
"pit-instructions","4","15708","0.0-2.0-1.0-1.0","battery-v0.2","","""event"",""trial"",""time""
""fullscreenenter"",""1"",""2437""
","
","
","""event"",""trial"",""time""
""fullscreenenter"",""1"",""2437""
","
","","[{""page_index"":0,""viewing_time"":2234.5999999999767}]","2234.9000000000233","","","","","","","","","","","","","","","","","","","","","","","",""
"pit-comprehension","5","17880","0.0-2.0-2.0-0.0","battery-v0.2","","""event"",""trial"",""time""
""fullscreenenter"",""1"",""2437""
","
","
","""event"",""trial"",""time""
""fullscreenenter"",""1"",""2437""
","
","","","2164.9000000000233","[""tiger""]","0","10","3756","1462","","","","","","","","","","","","","","","","","","",""
"pit-instructions","6","18913","0.0-2.0-2.0-1.0","battery-v0.2","","""event"",""trial"",""time""
""fullscreenenter"",""1"",""2437""
""blur"",""7"",""28811""
""focus"",""7"",""33469""
","""event"",""trial"",""time""
""blur"",""7"",""28811""
","""event"",""trial"",""time""
""focus"",""7"",""33469""
","""event"",""trial"",""time""
""fullscreenenter"",""1"",""2437""
","
","","[{""page_index"":0,""viewing_time"":1029.3000000000466}]","1029.5","","","","","","","","","","","","","","","","","","","","","","","",""
"pit-instructions","7","115996","0.0-2.0-3.0","battery-v0.2","","""event"",""trial"",""time""
""fullscreenenter"",""1"",""2437""
""blur"",""7"",""28811""
""focus"",""7"",""33469""
","""event"",""trial"",""time""
""blur"",""7"",""28811""
","""event"",""trial"",""time""
""focus"",""7"",""33469""
","""event"",""trial"",""time""
""fullscreenenter"",""1"",""2437""
","
","","[{""page_index"":0,""viewing_time"":8564},{""page_index"":1,""viewing_time"":6915.699999999953},{""page_index"":2,""viewing_time"":6456.699999999953},{""page_index"":3,""viewing_time"":7532.20000000007},{""page_index"":4,""viewing_time"":6775.29999999993},{""page_index"":5,""viewing_time"":6799.800000000047},{""page_index"":6,""viewing_time"":7138.099999999977},{""page_index"":7,""viewing_time"":6620.800000000047},{""page_index"":8,""viewing_time"":6202.099999999977},{""page_index"":9,""viewing_time"":7292.800000000047},{""page_index"":10,""viewing_time"":7512.399999999907},{""page_index"":11,""viewing_time"":7205.100000000093},{""page_index"":12,""viewing_time"":6530.399999999907},{""page_index"":13,""viewing_time"":5533.70000000007}]","97079.5","","","","","","","","","","","","","","","","","","","","","","","",""
"pit-trial","8","119491","0.0-2.0-4.0-0.0","battery-v0.2","","""event"",""trial"",""time""
""fullscreenenter"",""1"",""2437""
""blur"",""7"",""28811""
""focus"",""7"",""33469""
","""event"",""trial"",""time""
""blur"",""7"",""28811""
","""event"",""trial"",""time""
""focus"",""7"",""33469""
","""event"",""trial"",""time""
""fullscreenenter"",""1"",""2437""
","
","","","630.2999999999302","","","10","3756","1462","&#9784;","elianto","#FFFFF080"," "," ","1","&#10004","[1482.5]","1","0","0","","","","","","","",""
"pit-trial","9","122998","0.0-2.0-4.1-0.1","battery-v0.2","","""event"",""trial"",""time""
""fullscreenenter"",""1"",""2437""
""blur"",""7"",""28811""
""focus"",""7"",""33469""
","""event"",""trial"",""time""
""blur"",""7"",""28811""
","""event"",""trial"",""time""
""focus"",""7"",""33469""
","""event"",""trial"",""time""
""fullscreenenter"",""1"",""2437""
","
","","","634.0999999999767","","","10","3756","1462","&#9784;","elianto","#FFFFF080"," "," ","1","&#10004","[1486.1999999999534]","1","0","0","","","","","","","",""
"pit-trial","10","126587","0.0-2.0-4.2-0.2","battery-v0.2","","""event"",""trial"",""time""
""fullscreenenter"",""1"",""2437""
""blur"",""7"",""28811""
""focus"",""7"",""33469""
","""event"",""trial"",""time""
""blur"",""7"",""28811""
","""event"",""trial"",""time""
""focus"",""7"",""33469""
","""event"",""trial"",""time""
""fullscreenenter"",""1"",""2437""
","
","","","712.5999999999767","","","10","3756","1462","&#9784;","elianto","#FFFFF080"," "," ","1","&#10004","[1565.6000000000931]","1","0","0","","","","","","","",""
"pit-trial","11","130042","0.0-2.0-4.3-0.3","battery-v0.2","","""event"",""trial"",""time""
""fullscreenenter"",""1"",""2437""
""blur"",""7"",""28811""
""focus"",""7"",""33469""
","""event"",""trial"",""time""
""blur"",""7"",""28811""
","""event"",""trial"",""time""
""focus"",""7"",""33469""
","""event"",""trial"",""time""
""fullscreenenter"",""1"",""2437""
","
","","","574.8000000000466","","","10","3756","1462","&#9784;","elianto","#FFFFF080"," "," ","1","&#10004","[1433]","1","0","0","","","","","","","",""
"pit-trial","12","133772","0.0-2.0-4.4-0.4","battery-v0.2","","""event"",""trial"",""time""
""fullscreenenter"",""1"",""2437""
""blur"",""7"",""28811""
""focus"",""7"",""33469""
","""event"",""trial"",""time""
""blur"",""7"",""28811""
","""event"",""trial"",""time""
""focus"",""7"",""33469""
","""event"",""trial"",""time""
""fullscreenenter"",""1"",""2437""
","
","","","845.5","","","10","3756","1462","&#9784;","elianto","#FFFFF080"," "," ","1","&#10004","[1697.6000000000931]","1","0","0","","","","","","","",""
"pit-instructions","13","158047","0.0-2.0-5.0","battery-v0.2","","""event"",""trial"",""time""
""fullscreenenter"",""1"",""2437""
""blur"",""7"",""28811""
""focus"",""7"",""33469""
","""event"",""trial"",""time""
""blur"",""7"",""28811""
","""event"",""trial"",""time""
""focus"",""7"",""33469""
","""event"",""trial"",""time""
""fullscreenenter"",""1"",""2437""
","
","","[{""page_index"":0,""viewing_time"":6366.29999999993},{""page_index"":1,""viewing_time"":6288},{""page_index"":2,""viewing_time"":6041},{""page_index"":3,""viewing_time"":5576}]","24271.599999999977","","","","","","","","","","","","","","","","","","","","","","","",""
"pit-trial","14","162930","0.0-2.0-6.0-0.0","battery-v0.2","","""event"",""trial"",""time""
""fullscreenenter"",""1"",""2437""
""blur"",""7"",""28811""
""focus"",""7"",""33469""
","""event"",""trial"",""time""
""blur"",""7"",""28811""
","""event"",""trial"",""time""
""focus"",""7"",""33469""
","""event"",""trial"",""time""
""fullscreenenter"",""1"",""2437""
","
","","","-1","","","10","3756","1462","&#9854;","elianto","#FFFFF080","-1","-1","1","&#10004","[]","0","0","1","","","","","","","",""
"pit-trial","15","167806","0.0-2.0-6.1-0.1","battery-v0.2","","""event"",""trial"",""time""
""fullscreenenter"",""1"",""2437""
""blur"",""7"",""28811""
""focus"",""7"",""33469""
","""event"",""trial"",""time""
""blur"",""7"",""28811""
","""event"",""trial"",""time""
""focus"",""7"",""33469""
","""event"",""trial"",""time""
""fullscreenenter"",""1"",""2437""
","
","","","-1","","","10","3756","1462","&#9854;","elianto","#FFFFF080","-1","-1","1","&#10004","[]","0","0","1","","","","","","","",""
"pit-trial","16","172691","0.0-2.0-6.2-0.2","battery-v0.2","","""event"",""trial"",""time""
""fullscreenenter"",""1"",""2437""
""blur"",""7"",""28811""
""focus"",""7"",""33469""
","""event"",""trial"",""time""
""blur"",""7"",""28811""
","""event"",""trial"",""time""
""focus"",""7"",""33469""
","""event"",""trial"",""time""
""fullscreenenter"",""1"",""2437""
","
","","","-1","","","10","3756","1462","&#9854;","elianto","#FFFFF080","-1","-1","1","&#10004","[]","0","0","1","","","","","","","",""
"pit-trial","17","177581","0.0-2.0-6.3-0.3","battery-v0.2","","""event"",""trial"",""time""
""fullscreenenter"",""1"",""2437""
""blur"",""7"",""28811""
""focus"",""7"",""33469""
","""event"",""trial"",""time""
""blur"",""7"",""28811""
","""event"",""trial"",""time""
""focus"",""7"",""33469""
","""event"",""trial"",""time""
""fullscreenenter"",""1"",""2437""
","
","","","-1","","","10","3756","1462","&#9854;","elianto","#FFFFF080","-1","-1","1","&#10004","[]","0","0","1","","","","","","","",""
"pit-trial","18","182446","0.0-2.0-6.4-0.4","battery-v0.2","","""event"",""trial"",""time""
""fullscreenenter"",""1"",""2437""
""blur"",""7"",""28811""
""focus"",""7"",""33469""
","""event"",""trial"",""time""
""blur"",""7"",""28811""
","""event"",""trial"",""time""
""focus"",""7"",""33469""
","""event"",""trial"",""time""
""fullscreenenter"",""1"",""2437""
","
","","","-1","","","10","3756","1462","&#9854;","elianto","#FFFFF080","-1","-1","1","&#10004","[]","0","0","1","","","","","","","",""
"pit-instructions","19","302242","0.0-2.0-7.0","battery-v0.2","","""event"",""trial"",""time""
""fullscreenenter"",""1"",""2437""
""blur"",""7"",""28811""
""focus"",""7"",""33469""
","""event"",""trial"",""time""
""blur"",""7"",""28811""
","""event"",""trial"",""time""
""focus"",""7"",""33469""
","""event"",""trial"",""time""
""fullscreenenter"",""1"",""2437""
","
","","[{""page_index"":0,""viewing_time"":5474.900000000023},{""page_index"":1,""viewing_time"":6626.699999999953},{""page_index"":2,""viewing_time"":6769.70000000007},{""page_index"":3,""viewing_time"":6829.900000000023},{""page_index"":4,""viewing_time"":5806.599999999977},{""page_index"":5,""viewing_time"":5818.199999999953},{""page_index"":6,""viewing_time"":5471.099999999977},{""page_index"":7,""viewing_time"":8102.900000000023},{""page_index"":8,""viewing_time"":6746},{""page_index"":9,""viewing_time"":7101.099999999977},{""page_index"":10,""viewing_time"":6944.20000000007},{""page_index"":11,""viewing_time"":5557.5},{""page_index"":12,""viewing_time"":7581.900000000023},{""page_index"":13,""viewing_time"":6186.699999999953},{""page_index"":14,""viewing_time"":6093.599999999977},{""page_index"":15,""viewing_time"":7544.900000000023},{""page_index"":16,""viewing_time"":7200.400000000023},{""page_index"":17,""viewing_time"":7936.900000000023}]","119793.59999999998","","","","","","","","","","","","","","","","","","","","","","","",""
"pit-trial","20","305712","0.0-2.0-8.0-0.0","battery-v0.2","","""event"",""trial"",""time""
""fullscreenenter"",""1"",""2437""
""blur"",""7"",""28811""
""focus"",""7"",""33469""
","""event"",""trial"",""time""
""blur"",""7"",""28811""
","""event"",""trial"",""time""
""focus"",""7"",""33469""
","""event"",""trial"",""time""
""fullscreenenter"",""1"",""2437""
","
","","","592.3000000000466","","","10","3756","1462","&#9776;","elianto","#3366ff99"," "," ","1","+10","[1452]","1","0","1","","","","","","","",""
"pit-trial","21","309152","0.0-2.0-8.0-1.0","battery-v0.2","","""event"",""trial"",""time""
""fullscreenenter"",""1"",""2437""
""blur"",""7"",""28811""
""focus"",""7"",""33469""
","""event"",""trial"",""time""
""blur"",""7"",""28811""
","""event"",""trial"",""time""
""focus"",""7"",""33469""
","""event"",""trial"",""time""
""fullscreenenter"",""1"",""2437""
","
","","","568.9000000000233","","","10","3756","1462","&#9776;","elianto","#3366ff99"," "," ","1","+10","[1421.4000000000233]","1","0","1","","","","","","","",""
"pit-trial","22","312928","0.0-2.0-8.0-2.0","battery-v0.2","","""event"",""trial"",""time""
""fullscreenenter"",""1"",""2437""
""blur"",""7"",""28811""
""focus"",""7"",""33469""
","""event"",""trial"",""time""
""blur"",""7"",""28811""
","""event"",""trial"",""time""
""focus"",""7"",""33469""
","""event"",""trial"",""time""
""fullscreenenter"",""1"",""2437""
","
","","","898.6999999999534","","","10","3756","1462","&#9776;","elianto","#3366ff99"," "," ","1","+10","[1749.5]","1","0","1","","","","","","","",""
"pit-trial","23","316342","0.0-2.0-8.0-3.0","battery-v0.2","","""event"",""trial"",""time""
""fullscreenenter"",""1"",""2437""
""blur"",""7"",""28811""
""focus"",""7"",""33469""
","""event"",""trial"",""time""
""blur"",""7"",""28811""
","""event"",""trial"",""time""
""focus"",""7"",""33469""
","""event"",""trial"",""time""
""fullscreenenter"",""1"",""2437""
","
","","","542.6999999999534","","","10","3756","1462","&#9776;","elianto","#3366ff99"," "," ","1","0","[1393.7999999999302]","1","0","1","","","","","","","",""
"pit-trial","24","319668","0.0-2.0-8.0-4.0","battery-v0.2","","""event"",""trial"",""time""
""fullscreenenter"",""1"",""2437""
""blur"",""7"",""28811""
""focus"",""7"",""33469""
","""event"",""trial"",""time""
""blur"",""7"",""28811""
","""event"",""trial"",""time""
""focus"",""7"",""33469""
","""event"",""trial"",""time""
""fullscreenenter"",""1"",""2437""
","
","","","462.70000000006985","","","10","3756","1462","&#9776;","elianto","#3366ff99"," "," ","1","+10","[1315.0999999999767]","1","0","1","","","","","","","",""
"pit-trial","25","323127","0.0-2.0-8.1-0.1","battery-v0.2","","""event"",""trial"",""time""
""fullscreenenter"",""1"",""2437""
""blur"",""7"",""28811""
""focus"",""7"",""33469""
","""event"",""trial"",""time""
""blur"",""7"",""28811""
","""event"",""trial"",""time""
""focus"",""7"",""33469""
","""event"",""trial"",""time""
""fullscreenenter"",""1"",""2437""
","
","","","587.3000000000466","","","10","3756","1462","&#9776;","elianto","#3366ff99"," "," ","1","+10","[1441.0999999999767]","1","0","1","","","","","","","",""
"pit-trial","26","326494","0.0-2.0-8.1-1.1","battery-v0.2","","""event"",""trial"",""time""
""fullscreenenter"",""1"",""2437""
""blur"",""7"",""28811""
""focus"",""7"",""33469""
","""event"",""trial"",""time""
""blur"",""7"",""28811""
","""event"",""trial"",""time""
""focus"",""7"",""33469""
","""event"",""trial"",""time""
""fullscreenenter"",""1"",""2437""
","
","","","494.69999999995343","","","10","3756","1462","&#9776;","elianto","#3366ff99"," "," ","1","+10","[1348.5]","1","0","1","","","","","","","",""
"pit-trial","27","330068","0.0-2.0-8.1-2.1","battery-v0.2","","""event"",""trial"",""time""
""fullscreenenter"",""1"",""2437""
""blur"",""7"",""28811""
""focus"",""7"",""33469""
","""event"",""trial"",""time""
""blur"",""7"",""28811""
","""event"",""trial"",""time""
""focus"",""7"",""33469""
","""event"",""trial"",""time""
""fullscreenenter"",""1"",""2437""
","
","","","695.5","","","10","3756","1462","&#9776;","elianto","#3366ff99"," "," ","1","+10","[1554.4000000000233]","1","0","1","","","","","","","",""
"pit-trial","28","333660","0.0-2.0-8.1-3.1","battery-v0.2","","""event"",""trial"",""time""
""fullscreenenter"",""1"",""2437""
""blur"",""7"",""28811""
""focus"",""7"",""33469""
","""event"",""trial"",""time""
""blur"",""7"",""28811""
","""event"",""trial"",""time""
""focus"",""7"",""33469""
","""event"",""trial"",""time""
""fullscreenenter"",""1"",""2437""
","
","","","728.2999999999302","","","10","3756","1462","&#9776;","elianto","#3366ff99"," "," ","1","0","[1581.0999999999767]","1","0","1","","","","","","","",""
"pit-trial","29","337134","0.0-2.0-8.1-4.1","battery-v0.2","","""event"",""trial"",""time""
""fullscreenenter"",""1"",""2437""
""blur"",""7"",""28811""
""focus"",""7"",""33469""
","""event"",""trial"",""time""
""blur"",""7"",""28811""
","""event"",""trial"",""time""
""focus"",""7"",""33469""
","""event"",""trial"",""time""
""fullscreenenter"",""1"",""2437""
","
","","","611.7999999999302","","","10","3756","1462","&#9776;","elianto","#3366ff99"," "," ","1","+10","[1464.5999999999767]","1","0","1","","","","","","","",""
"pit-trial","30","340377","0.0-2.0-8.2-0.2","battery-v0.2","","""event"",""trial"",""time""
""fullscreenenter"",""1"",""2437""
""blur"",""7"",""28811""
""focus"",""7"",""33469""
","""event"",""trial"",""time""
""blur"",""7"",""28811""
","""event"",""trial"",""time""
""focus"",""7"",""33469""
","""event"",""trial"",""time""
""fullscreenenter"",""1"",""2437""
","
","","","372.5","","","10","3756","1462","&#9776;","elianto","#3366ff99"," "," ","1","+10","[1225.5]","1","0","1","","","","","","","",""
"pit-trial","31","343707","0.0-2.0-8.2-1.2","battery-v0.2","","""event"",""trial"",""time""
""fullscreenenter"",""1"",""2437""
""blur"",""7"",""28811""
""focus"",""7"",""33469""
","""event"",""trial"",""time""
""blur"",""7"",""28811""
","""event"",""trial"",""time""
""focus"",""7"",""33469""
","""event"",""trial"",""time""
""fullscreenenter"",""1"",""2437""
","
","","","465.70000000006985","","","10","3756","1462","&#9776;","elianto","#3366ff99"," "," ","1","+10","[1320.2999999999302]","1","0","1","","","","","","","",""
"pit-trial","32","347204","0.0-2.0-8.2-2.2","battery-v0.2","","""event"",""trial"",""time""
""fullscreenenter"",""1"",""2437""
""blur"",""7"",""28811""
""focus"",""7"",""33469""
","""event"",""trial"",""time""
""blur"",""7"",""28811""
","""event"",""trial"",""time""
""focus"",""7"",""33469""
","""event"",""trial"",""time""
""fullscreenenter"",""1"",""2437""
","
","","","633.1999999999534","","","10","3756","1462","&#9776;","elianto","#3366ff99"," "," ","1","+10","[1491.4000000000233]","1","0","1","","","","","","","",""
"pit-trial","33","350521","0.0-2.0-8.2-3.2","battery-v0.2","","""event"",""trial"",""time""
""fullscreenenter"",""1"",""2437""
""blur"",""7"",""28811""
""focus"",""7"",""33469""
","""event"",""trial"",""time""
""blur"",""7"",""28811""
","""event"",""trial"",""time""
""focus"",""7"",""33469""
","""event"",""trial"",""time""
""fullscreenenter"",""1"",""2437""
","
","","","445.69999999995343","","","10","3756","1462","&#9776;","elianto","#3366ff99"," "," ","1","0","[1306.0999999999767]","1","0","1","","","","","","","",""
"pit-trial","34","354035","0.0-2.0-8.2-4.2","battery-v0.2","","""event"",""trial"",""time""
""fullscreenenter"",""1"",""2437""
""blur"",""7"",""28811""
""focus"",""7"",""33469""
","""event"",""trial"",""time""
""blur"",""7"",""28811""
","""event"",""trial"",""time""
""focus"",""7"",""33469""
","""event"",""trial"",""time""
""fullscreenenter"",""1"",""2437""
","
","","","638.5999999999767","","","10","3756","1462","&#9776;","elianto","#3366ff99"," "," ","1","+10","[1496.7000000000698]","1","0","1","","","","","","","",""
"call-function","35","354041","0.0-2.0-9.0","battery-v0.2","","""event"",""trial"",""time""
""fullscreenenter"",""1"",""2437""
""blur"",""7"",""28811""
""focus"",""7"",""33469""
","""event"",""trial"",""time""
""blur"",""7"",""28811""
","""event"",""trial"",""time""
""focus"",""7"",""33469""
","""event"",""trial"",""time""
""fullscreenenter"",""1"",""2437""
","
","","","","","","","","","","","","","","","","","","","","","","","","","","",""
"pit-instructions","36","393566","0.0-2.0-10.0","battery-v0.2","","""event"",""trial"",""time""
""fullscreenenter"",""1"",""2437""
""blur"",""7"",""28811""
""focus"",""7"",""33469""
","""event"",""trial"",""time""
""blur"",""7"",""28811""
","""event"",""trial"",""time""
""focus"",""7"",""33469""
","""event"",""trial"",""time""
""fullscreenenter"",""1"",""2437""
","
","","[{""page_index"":0,""viewing_time"":6369.900000000023},{""page_index"":1,""viewing_time"":6634.400000000023},{""page_index"":2,""viewing_time"":10163.599999999977},{""page_index"":3,""viewing_time"":8038.900000000023},{""page_index"":4,""viewing_time"":8314}]","39521.20000000007","","","","","","","","","","","","","","","","","","","","","","","",""
"pit-trial","37","397058","0.0-2.0-11.0-0.0","battery-v0.2","","""event"",""trial"",""time""
""fullscreenenter"",""1"",""2437""
""blur"",""7"",""28811""
""focus"",""7"",""33469""
","""event"",""trial"",""time""
""blur"",""7"",""28811""
","""event"",""trial"",""time""
""focus"",""7"",""33469""
","""event"",""trial"",""time""
""fullscreenenter"",""1"",""2437""
","
","","","623.6999999999534","","","10","3756","1462","&#9761;","elianto","#3366ff99","-1"," ","0","0","[1474.5999999999767]","1","0","2","","","","","","","",""
"pit-trial","38","400417","0.0-2.0-11.0-1.0","battery-v0.2","","""event"",""trial"",""time""
""fullscreenenter"",""1"",""2437""
""blur"",""7"",""28811""
""focus"",""7"",""33469""
","""event"",""trial"",""time""
""blur"",""7"",""28811""
","""event"",""trial"",""time""
""focus"",""7"",""33469""
","""event"",""trial"",""time""
""fullscreenenter"",""1"",""2437""
","
","","","484.80000000004657","","","10","3756","1462","&#9761;","elianto","#3366ff99","-1"," ","0","0","[1338.5]","1","0","2","","","","","","","",""
"pit-trial","39","405306","0.0-2.0-11.0-2.0","battery-v0.2","","""event"",""trial"",""time""
""fullscreenenter"",""1"",""2437""
""blur"",""7"",""28811""
""focus"",""7"",""33469""
","""event"",""trial"",""time""
""blur"",""7"",""28811""
","""event"",""trial"",""time""
""focus"",""7"",""33469""
","""event"",""trial"",""time""
""fullscreenenter"",""1"",""2437""
","
","","","-1","","","10","3756","1462","&#9761;","elianto","#3366ff99","-1","-1","1","+10","[]","0","0","2","","","","","","","",""
"pit-trial","40","410190","0.0-2.0-11.0-3.0","battery-v0.2","","""event"",""trial"",""time""
""fullscreenenter"",""1"",""2437""
""blur"",""7"",""28811""
""focus"",""7"",""33469""
","""event"",""trial"",""time""
""blur"",""7"",""28811""
","""event"",""trial"",""time""
""focus"",""7"",""33469""
","""event"",""trial"",""time""
""fullscreenenter"",""1"",""2437""
","
","","","-1","","","10","3756","1462","&#9761;","elianto","#3366ff99","-1","-1","1","0","[]","0","0","2","","","","","","","",""
"pit-trial","41","415077","0.0-2.0-11.0-4.0","battery-v0.2","","""event"",""trial"",""time""
""fullscreenenter"",""1"",""2437""
""blur"",""7"",""28811""
""focus"",""7"",""33469""
","""event"",""trial"",""time""
""blur"",""7"",""28811""
","""event"",""trial"",""time""
""focus"",""7"",""33469""
","""event"",""trial"",""time""
""fullscreenenter"",""1"",""2437""
","
","","","-1","","","10","3756","1462","&#9761;","elianto","#3366ff99","-1","-1","1","+10","[]","0","0","2","","","","","","","",""
"pit-trial","42","419952","0.0-2.0-11.1-0.1","battery-v0.2","","""event"",""trial"",""time""
""fullscreenenter"",""1"",""2437""
""blur"",""7"",""28811""
""focus"",""7"",""33469""
","""event"",""trial"",""time""
""blur"",""7"",""28811""
","""event"",""trial"",""time""
""focus"",""7"",""33469""
","""event"",""trial"",""time""
""fullscreenenter"",""1"",""2437""
","
","","","-1","","","10","3756","1462","&#9761;","elianto","#3366ff99","-1","-1","1","+10","[]","0","0","2","","","","","","","",""
"pit-trial","43","424818","0.0-2.0-11.1-1.1","battery-v0.2","","""event"",""trial"",""time""
""fullscreenenter"",""1"",""2437""
""blur"",""7"",""28811""
""focus"",""7"",""33469""
","""event"",""trial"",""time""
""blur"",""7"",""28811""
","""event"",""trial"",""time""
""focus"",""7"",""33469""
","""event"",""trial"",""time""
""fullscreenenter"",""1"",""2437""
","
","","","-1","","","10","3756","1462","&#9761;","elianto","#3366ff99","-1","-1","1","+10","[]","0","0","2","","","","","","","",""
"pit-trial","44","429683","0.0-2.0-11.1-2.1","battery-v0.2","","""event"",""trial"",""time""
""fullscreenenter"",""1"",""2437""
""blur"",""7"",""28811""
""focus"",""7"",""33469""
","""event"",""trial"",""time""
""blur"",""7"",""28811""
","""event"",""trial"",""time""
""focus"",""7"",""33469""
","""event"",""trial"",""time""
""fullscreenenter"",""1"",""2437""
","
","","","-1","","","10","3756","1462","&#9761;","elianto","#3366ff99","-1","-1","1","+10","[]","0","0","2","","","","","","","",""
"pit-trial","45","434547","0.0-2.0-11.1-3.1","battery-v0.2","","""event"",""trial"",""time""
""fullscreenenter"",""1"",""2437""
""blur"",""7"",""28811""
""focus"",""7"",""33469""
","""event"",""trial"",""time""
""blur"",""7"",""28811""
","""event"",""trial"",""time""
""focus"",""7"",""33469""
","""event"",""trial"",""time""
""fullscreenenter"",""1"",""2437""
","
","","","-1","","","10","3756","1462","&#9761;","elianto","#3366ff99","-1","-1","1","0","[]","0","0","2","","","","","","","",""
"pit-trial","46","439412","0.0-2.0-11.1-4.1","battery-v0.2","","""event"",""trial"",""time""
""fullscreenenter"",""1"",""2437""
""blur"",""7"",""28811""
""focus"",""7"",""33469""
","""event"",""trial"",""time""
""blur"",""7"",""28811""
","""event"",""trial"",""time""
""focus"",""7"",""33469""
","""event"",""trial"",""time""
""fullscreenenter"",""1"",""2437""
","
","","","-1","","","10","3756","1462","&#9761;","elianto","#3366ff99","-1","-1","1","+10","[]","0","0","2","","","","","","","",""
"pit-trial","47","444289","0.0-2.0-11.2-0.2","battery-v0.2","","""event"",""trial"",""time""
""fullscreenenter"",""1"",""2437""
""blur"",""7"",""28811""
""focus"",""7"",""33469""
","""event"",""trial"",""time""
""blur"",""7"",""28811""
","""event"",""trial"",""time""
""focus"",""7"",""33469""
","""event"",""trial"",""time""
""fullscreenenter"",""1"",""2437""
","
","","","-1","","","10","3756","1462","&#9761;","elianto","#3366ff99","-1","-1","1","+10","[]","0","0","2","","","","","","","",""
"pit-trial","48","449157","0.0-2.0-11.2-1.2","battery-v0.2","","""event"",""trial"",""time""
""fullscreenenter"",""1"",""2437""
""blur"",""7"",""28811""
""focus"",""7"",""33469""
","""event"",""trial"",""time""
""blur"",""7"",""28811""
","""event"",""trial"",""time""
""focus"",""7"",""33469""
","""event"",""trial"",""time""
""fullscreenenter"",""1"",""2437""
","
","","","-1","","","10","3756","1462","&#9761;","elianto","#3366ff99","-1","-1","1","+10","[]","0","0","2","","","","","","","",""
"pit-trial","49","454047","0.0-2.0-11.2-2.2","battery-v0.2","","""event"",""trial"",""time""
""fullscreenenter"",""1"",""2437""
""blur"",""7"",""28811""
""focus"",""7"",""33469""
","""event"",""trial"",""time""
""blur"",""7"",""28811""
","""event"",""trial"",""time""
""focus"",""7"",""33469""
","""event"",""trial"",""time""
""fullscreenenter"",""1"",""2437""
","
","","","-1","","","10","3756","1462","&#9761;","elianto","#3366ff99","-1","-1","1","+10","[]","0","0","2","","","","","","","",""
"pit-trial","50","458925","0.0-2.0-11.2-3.2","battery-v0.2","","""event"",""trial"",""time""
""fullscreenenter"",""1"",""2437""
""blur"",""7"",""28811""
""focus"",""7"",""33469""
","""event"",""trial"",""time""
""blur"",""7"",""28811""
","""event"",""trial"",""time""
""focus"",""7"",""33469""
","""event"",""trial"",""time""
""fullscreenenter"",""1"",""2437""
","
","","","-1","","","10","3756","1462","&#9761;","elianto","#3366ff99","-1","-1","1","0","[]","0","0","2","","","","","","","",""
"pit-trial","51","463796","0.0-2.0-11.2-4.2","battery-v0.2","","""event"",""trial"",""time""
""fullscreenenter"",""1"",""2437""
""blur"",""7"",""28811""
""focus"",""7"",""33469""
","""event"",""trial"",""time""
""blur"",""7"",""28811""
","""event"",""trial"",""time""
""focus"",""7"",""33469""
","""event"",""trial"",""time""
""fullscreenenter"",""1"",""2437""
","
","","","-1","","","10","3756","1462","&#9761;","elianto","#3366ff99","-1","-1","1","+10","[]","0","0","2","","","","","","","",""
"pit-trial","52","468350","0.0-2.0-11.3-0.3","battery-v0.2","","""event"",""trial"",""time""
""fullscreenenter"",""1"",""2437""
""blur"",""7"",""28811""
""focus"",""7"",""33469""
","""event"",""trial"",""time""
""blur"",""7"",""28811""
","""event"",""trial"",""time""
""focus"",""7"",""33469""
","""event"",""trial"",""time""
""fullscreenenter"",""1"",""2437""
","
","","","1687","","","10","3756","1462","&#9761;","elianto","#3366ff99","-1"," ","0","0","[2538.29999999993]","1","0","2","","","","","","","",""
"pit-trial","53","472191","0.0-2.0-11.3-1.3","battery-v0.2","","""event"",""trial"",""time""
""fullscreenenter"",""1"",""2437""
""blur"",""7"",""28811""
""focus"",""7"",""33469""
","""event"",""trial"",""time""
""blur"",""7"",""28811""
","""event"",""trial"",""time""
""focus"",""7"",""33469""
","""event"",""trial"",""time""
""fullscreenenter"",""1"",""2437""
","
","","","965.6999999999534","","","10","3756","1462","&#9761;","elianto","#3366ff99","-1"," ","0","0","[1821.2999999999302]","1","0","2","","","","","","","",""
"pit-trial","54","477063","0.0-2.0-11.3-2.3","battery-v0.2","","""event"",""trial"",""time""
""fullscreenenter"",""1"",""2437""
""blur"",""7"",""28811""
""focus"",""7"",""33469""
","""event"",""trial"",""time""
""blur"",""7"",""28811""
","""event"",""trial"",""time""
""focus"",""7"",""33469""
","""event"",""trial"",""time""
""fullscreenenter"",""1"",""2437""
","
","","","-1","","","10","3756","1462","&#9761;","elianto","#3366ff99","-1","-1","1","+10","[]","0","0","2","","","","","","","",""
"pit-trial","55","481929","0.0-2.0-11.3-3.3","battery-v0.2","","""event"",""trial"",""time""
""fullscreenenter"",""1"",""2437""
""blur"",""7"",""28811""
""focus"",""7"",""33469""
","""event"",""trial"",""time""
""blur"",""7"",""28811""
","""event"",""trial"",""time""
""focus"",""7"",""33469""
","""event"",""trial"",""time""
""fullscreenenter"",""1"",""2437""
","
","","","-1","","","10","3756","1462","&#9761;","elianto","#3366ff99","-1","-1","1","0","[]","0","0","2","","","","","","","",""
"pit-trial","56","486795","0.0-2.0-11.3-4.3","battery-v0.2","","""event"",""trial"",""time""
""fullscreenenter"",""1"",""2437""
""blur"",""7"",""28811""
""focus"",""7"",""33469""
","""event"",""trial"",""time""
""blur"",""7"",""28811""
","""event"",""trial"",""time""
""focus"",""7"",""33469""
","""event"",""trial"",""time""
""fullscreenenter"",""1"",""2437""
","
","","","-1","","","10","3756","1462","&#9761;","elianto","#3366ff99","-1","-1","1","+10","[]","0","0","2","","","","","","","",""
"call-function","57","486796","0.0-2.0-12.0","battery-v0.2","","""event"",""trial"",""time""
""fullscreenenter"",""1"",""2437""
""blur"",""7"",""28811""
""focus"",""7"",""33469""
","""event"",""trial"",""time""
""blur"",""7"",""28811""
","""event"",""trial"",""time""
""focus"",""7"",""33469""
","""event"",""trial"",""time""
""fullscreenenter"",""1"",""2437""
","
","","","","","","","","","","","","","","","","","","","","","","","","","","",""
"pit-instructions","58","521297","0.0-2.0-13.0","battery-v0.2","","""event"",""trial"",""time""
""fullscreenenter"",""1"",""2437""
""blur"",""7"",""28811""
""focus"",""7"",""33469""
","""event"",""trial"",""time""
""blur"",""7"",""28811""
","""event"",""trial"",""time""
""focus"",""7"",""33469""
","""event"",""trial"",""time""
""fullscreenenter"",""1"",""2437""
","
","","[{""page_index"":0,""viewing_time"":6166.5},{""page_index"":1,""viewing_time"":7477.099999999977},{""page_index"":2,""viewing_time"":5813.300000000047},{""page_index"":3,""viewing_time"":10667.300000000047},{""page_index"":4,""viewing_time"":4375.599999999977}]","34500.20000000007","","","","","","","","","","","","","","","","","","","","","","","",""
"pit-trial","59","524738","0.0-2.0-14.0-0.0","battery-v0.2","","""event"",""trial"",""time""
""fullscreenenter"",""1"",""2437""
""blur"",""7"",""28811""
""focus"",""7"",""33469""
","""event"",""trial"",""time""
""blur"",""7"",""28811""
","""event"",""trial"",""time""
""focus"",""7"",""33469""
","""event"",""trial"",""time""
""fullscreenenter"",""1"",""2437""
","
","","","558.8000000000466","","","10","3756","1462","&#9826;","elianto","#f73b6a7A","-1"," ","0","-10","[1412.3000000000466]","1","0","3","","","","","","","",""
"pit-trial","60","527791","0.0-2.0-14.0-1.0","battery-v0.2","","""event"",""trial"",""time""
""fullscreenenter"",""1"",""2437""
""blur"",""7"",""28811""
""focus"",""7"",""33469""
","""event"",""trial"",""time""
""blur"",""7"",""28811""
","""event"",""trial"",""time""
""focus"",""7"",""33469""
","""event"",""trial"",""time""
""fullscreenenter"",""1"",""2437""
","
","","","175.30000000004657","","","10","3756","1462","&#9826;","elianto","#f73b6a7A","-1"," ","0","-10","[1033.7000000000698]","1","0","3","","","","","","","",""
"pit-trial","61","532670","0.0-2.0-14.0-2.0","battery-v0.2","","""event"",""trial"",""time""
""fullscreenenter"",""1"",""2437""
""blur"",""7"",""28811""
""focus"",""7"",""33469""
","""event"",""trial"",""time""
""blur"",""7"",""28811""
","""event"",""trial"",""time""
""focus"",""7"",""33469""
","""event"",""trial"",""time""
""fullscreenenter"",""1"",""2437""
","
","","","-1","","","10","3756","1462","&#9826;","elianto","#f73b6a7A","-1","-1","1","0","[]","0","0","3","","","","","","","",""
"pit-trial","62","537540","0.0-2.0-14.0-3.0","battery-v0.2","","""event"",""trial"",""time""
""fullscreenenter"",""1"",""2437""
""blur"",""7"",""28811""
""focus"",""7"",""33469""
","""event"",""trial"",""time""
""blur"",""7"",""28811""
","""event"",""trial"",""time""
""focus"",""7"",""33469""
","""event"",""trial"",""time""
""fullscreenenter"",""1"",""2437""
","
","","","-1","","","10","3756","1462","&#9826;","elianto","#f73b6a7A","-1","-1","1","-10","[]","0","0","3","","","","","","","",""
"pit-trial","63","542420","0.0-2.0-14.0-4.0","battery-v0.2","","""event"",""trial"",""time""
""fullscreenenter"",""1"",""2437""
""blur"",""7"",""28811""
""focus"",""7"",""33469""
","""event"",""trial"",""time""
""blur"",""7"",""28811""
","""event"",""trial"",""time""
""focus"",""7"",""33469""
","""event"",""trial"",""time""
""fullscreenenter"",""1"",""2437""
","
","","","-1","","","10","3756","1462","&#9826;","elianto","#f73b6a7A","-1","-1","1","0","[]","0","0","3","","","","","","","",""
"pit-trial","64","547300","0.0-2.0-14.1-0.1","battery-v0.2","","""event"",""trial"",""time""
""fullscreenenter"",""1"",""2437""
""blur"",""7"",""28811""
""focus"",""7"",""33469""
","""event"",""trial"",""time""
""blur"",""7"",""28811""
","""event"",""trial"",""time""
""focus"",""7"",""33469""
","""event"",""trial"",""time""
""fullscreenenter"",""1"",""2437""
","
","","","-1","","","10","3756","1462","&#9826;","elianto","#f73b6a7A","-1","-1","1","0","[]","0","0","3","","","","","","","",""
"pit-trial","65","552182","0.0-2.0-14.1-1.1","battery-v0.2","","""event"",""trial"",""time""
""fullscreenenter"",""1"",""2437""
""blur"",""7"",""28811""
""focus"",""7"",""33469""
","""event"",""trial"",""time""
""blur"",""7"",""28811""
","""event"",""trial"",""time""
""focus"",""7"",""33469""
","""event"",""trial"",""time""
""fullscreenenter"",""1"",""2437""
","
","","","-1","","","10","3756","1462","&#9826;","elianto","#f73b6a7A","-1","-1","1","0","[]","0","0","3","","","","","","","",""
"pit-trial","66","557058","0.0-2.0-14.1-2.1","battery-v0.2","","""event"",""trial"",""time""
""fullscreenenter"",""1"",""2437""
""blur"",""7"",""28811""
""focus"",""7"",""33469""
","""event"",""trial"",""time""
""blur"",""7"",""28811""
","""event"",""trial"",""time""
""focus"",""7"",""33469""
","""event"",""trial"",""time""
""fullscreenenter"",""1"",""2437""
","
","","","-1","","","10","3756","1462","&#9826;","elianto","#f73b6a7A","-1","-1","1","0","[]","0","0","3","","","","","","","",""
"pit-trial","67","561939","0.0-2.0-14.1-3.1","battery-v0.2","","""event"",""trial"",""time""
""fullscreenenter"",""1"",""2437""
""blur"",""7"",""28811""
""focus"",""7"",""33469""
","""event"",""trial"",""time""
""blur"",""7"",""28811""
","""event"",""trial"",""time""
""focus"",""7"",""33469""
","""event"",""trial"",""time""
""fullscreenenter"",""1"",""2437""
","
","","","-1","","","10","3756","1462","&#9826;","elianto","#f73b6a7A","-1","-1","1","-10","[]","0","0","3","","","","","","","",""
"pit-trial","68","566811","0.0-2.0-14.1-4.1","battery-v0.2","","""event"",""trial"",""time""
""fullscreenenter"",""1"",""2437""
""blur"",""7"",""28811""
""focus"",""7"",""33469""
","""event"",""trial"",""time""
""blur"",""7"",""28811""
","""event"",""trial"",""time""
""focus"",""7"",""33469""
","""event"",""trial"",""time""
""fullscreenenter"",""1"",""2437""
","
","","","-1","","","10","3756","1462","&#9826;","elianto","#f73b6a7A","-1","-1","1","0","[]","0","0","3","","","","","","","",""
"pit-trial","69","571676","0.0-2.0-14.2-0.2","battery-v0.2","","""event"",""trial"",""time""
""fullscreenenter"",""1"",""2437""
""blur"",""7"",""28811""
""focus"",""7"",""33469""
","""event"",""trial"",""time""
""blur"",""7"",""28811""
","""event"",""trial"",""time""
""focus"",""7"",""33469""
","""event"",""trial"",""time""
""fullscreenenter"",""1"",""2437""
","
","","","-1","","","10","3756","1462","&#9826;","elianto","#f73b6a7A","-1","-1","1","0","[]","0","0","3","","","","","","","",""
"pit-trial","70","576546","0.0-2.0-14.2-1.2","battery-v0.2","","""event"",""trial"",""time""
""fullscreenenter"",""1"",""2437""
""blur"",""7"",""28811""
""focus"",""7"",""33469""
","""event"",""trial"",""time""
""blur"",""7"",""28811""
","""event"",""trial"",""time""
""focus"",""7"",""33469""
","""event"",""trial"",""time""
""fullscreenenter"",""1"",""2437""
","
","","","-1","","","10","3756","1462","&#9826;","elianto","#f73b6a7A","-1","-1","1","0","[]","0","0","3","","","","","","","",""
"pit-trial","71","581432","0.0-2.0-14.2-2.2","battery-v0.2","","""event"",""trial"",""time""
""fullscreenenter"",""1"",""2437""
""blur"",""7"",""28811""
""focus"",""7"",""33469""
","""event"",""trial"",""time""
""blur"",""7"",""28811""
","""event"",""trial"",""time""
""focus"",""7"",""33469""
","""event"",""trial"",""time""
""fullscreenenter"",""1"",""2437""
","
","","","-1","","","10","3756","1462","&#9826;","elianto","#f73b6a7A","-1","-1","1","0","[]","0","0","3","","","","","","","",""
"pit-trial","72","586313","0.0-2.0-14.2-3.2","battery-v0.2","","""event"",""trial"",""time""
""fullscreenenter"",""1"",""2437""
""blur"",""7"",""28811""
""focus"",""7"",""33469""
","""event"",""trial"",""time""
""blur"",""7"",""28811""
","""event"",""trial"",""time""
""focus"",""7"",""33469""
","""event"",""trial"",""time""
""fullscreenenter"",""1"",""2437""
","
","","","-1","","","10","3756","1462","&#9826;","elianto","#f73b6a7A","-1","-1","1","-10","[]","0","0","3","","","","","","","",""
"pit-trial","73","591182","0.0-2.0-14.2-4.2","battery-v0.2","","""event"",""trial"",""time""
""fullscreenenter"",""1"",""2437""
""blur"",""7"",""28811""
""focus"",""7"",""33469""
","""event"",""trial"",""time""
""blur"",""7"",""28811""
","""event"",""trial"",""time""
""focus"",""7"",""33469""
","""event"",""trial"",""time""
""fullscreenenter"",""1"",""2437""
","
","","","-1","","","10","3756","1462","&#9826;","elianto","#f73b6a7A","-1","-1","1","0","[]","0","0","3","","","","","","","",""
"pit-trial","74","596057","0.0-2.0-14.3-0.3","battery-v0.2","","""event"",""trial"",""time""
""fullscreenenter"",""1"",""2437""
""blur"",""7"",""28811""
""focus"",""7"",""33469""
","""event"",""trial"",""time""
""blur"",""7"",""28811""
","""event"",""trial"",""time""
""focus"",""7"",""33469""
","""event"",""trial"",""time""
""fullscreenenter"",""1"",""2437""
","
","","","-1","","","10","3756","1462","&#9826;","elianto","#f73b6a7A","-1","-1","1","0","[]","0","0","3","","","","","","","",""
"pit-trial","75","600937","0.0-2.0-14.3-1.3","battery-v0.2","","""event"",""trial"",""time""
""fullscreenenter"",""1"",""2437""
""blur"",""7"",""28811""
""focus"",""7"",""33469""
","""event"",""trial"",""time""
""blur"",""7"",""28811""
","""event"",""trial"",""time""
""focus"",""7"",""33469""
","""event"",""trial"",""time""
""fullscreenenter"",""1"",""2437""
","
","","","-1","","","10","3756","1462","&#9826;","elianto","#f73b6a7A","-1","-1","1","0","[]","0","0","3","","","","","","","",""
"pit-trial","76","605814","0.0-2.0-14.3-2.3","battery-v0.2","","""event"",""trial"",""time""
""fullscreenenter"",""1"",""2437""
""blur"",""7"",""28811""
""focus"",""7"",""33469""
","""event"",""trial"",""time""
""blur"",""7"",""28811""
","""event"",""trial"",""time""
""focus"",""7"",""33469""
","""event"",""trial"",""time""
""fullscreenenter"",""1"",""2437""
","
","","","-1","","","10","3756","1462","&#9826;","elianto","#f73b6a7A","-1","-1","1","0","[]","0","0","3","","","","","","","",""
"pit-trial","77","610690","0.0-2.0-14.3-3.3","battery-v0.2","","""event"",""trial"",""time""
""fullscreenenter"",""1"",""2437""
""blur"",""7"",""28811""
""focus"",""7"",""33469""
","""event"",""trial"",""time""
""blur"",""7"",""28811""
","""event"",""trial"",""time""
""focus"",""7"",""33469""
","""event"",""trial"",""time""
""fullscreenenter"",""1"",""2437""
","
","","","-1","","","10","3756","1462","&#9826;","elianto","#f73b6a7A","-1","-1","1","-10","[]","0","0","3","","","","","","","",""
"pit-trial","78","615570","0.0-2.0-14.3-4.3","battery-v0.2","","""event"",""trial"",""time""
""fullscreenenter"",""1"",""2437""
""blur"",""7"",""28811""
""focus"",""7"",""33469""
","""event"",""trial"",""time""
""blur"",""7"",""28811""
","""event"",""trial"",""time""
""focus"",""7"",""33469""
","""event"",""trial"",""time""
""fullscreenenter"",""1"",""2437""
","
","","","-1","","","10","3756","1462","&#9826;","elianto","#f73b6a7A","-1","-1","1","0","[]","0","0","3","","","","","","","",""
"call-function","79","615575","0.0-2.0-15.0","battery-v0.2","","""event"",""trial"",""time""
""fullscreenenter"",""1"",""2437""
""blur"",""7"",""28811""
""focus"",""7"",""33469""
","""event"",""trial"",""time""
""blur"",""7"",""28811""
","""event"",""trial"",""time""
""focus"",""7"",""33469""
","""event"",""trial"",""time""
""fullscreenenter"",""1"",""2437""
","
","","","","","","","","","","","","","","","","","","","","","","","","","","",""
"pit-instructions","80","646566","0.0-2.0-16.0","battery-v0.2","","""event"",""trial"",""time""
""fullscreenenter"",""1"",""2437""
""blur"",""7"",""28811""
""focus"",""7"",""33469""
","""event"",""trial"",""time""
""blur"",""7"",""28811""
","""event"",""trial"",""time""
""focus"",""7"",""33469""
","""event"",""trial"",""time""
""fullscreenenter"",""1"",""2437""
","
","","[{""page_index"":0,""viewing_time"":7911.800000000047},{""page_index"":1,""viewing_time"":9660.199999999953},{""page_index"":2,""viewing_time"":5108.300000000047},{""page_index"":3,""viewing_time"":8308.5}]","30989.199999999953","","","","","","","","","","","","","","","","","","","","","","","",""
"pit-trial","81","650243","0.0-2.0-17.0-0.0","battery-v0.2","","""event"",""trial"",""time""
""fullscreenenter"",""1"",""2437""
""blur"",""7"",""28811""
""focus"",""7"",""33469""
","""event"",""trial"",""time""
""blur"",""7"",""28811""
","""event"",""trial"",""time""
""focus"",""7"",""33469""
","""event"",""trial"",""time""
""fullscreenenter"",""1"",""2437""
","
","","","800.3000000000466","","","10","3756","1462","&#9789;","elianto","#f73b6a7A"," "," ","1","0","[1650.5]","1","0","4","","","","","","","",""
"pit-trial","82","653784","0.0-2.0-17.0-1.0","battery-v0.2","","""event"",""trial"",""time""
""fullscreenenter"",""1"",""2437""
""blur"",""7"",""28811""
""focus"",""7"",""33469""
","""event"",""trial"",""time""
""blur"",""7"",""28811""
","""event"",""trial"",""time""
""focus"",""7"",""33469""
","""event"",""trial"",""time""
""fullscreenenter"",""1"",""2437""
","
","","","664.8999999999069","","","10","3756","1462","&#9789;","elianto","#f73b6a7A"," "," ","1","0","[1516.5]","1","0","4","","","","","","","",""
"pit-trial","83","657634","0.0-2.0-17.0-2.0","battery-v0.2","","""event"",""trial"",""time""
""fullscreenenter"",""1"",""2437""
""blur"",""7"",""28811""
""focus"",""7"",""33469""
","""event"",""trial"",""time""
""blur"",""7"",""28811""
","""event"",""trial"",""time""
""focus"",""7"",""33469""
","""event"",""trial"",""time""
""fullscreenenter"",""1"",""2437""
","
","","","972.1999999999534","","","10","3756","1462","&#9789;","elianto","#f73b6a7A"," "," ","1","0","[1826.8000000000466]","1","0","4","","","","","","","",""
"pit-trial","84","660973","0.0-2.0-17.0-3.0","battery-v0.2","","""event"",""trial"",""time""
""fullscreenenter"",""1"",""2437""
""blur"",""7"",""28811""
""focus"",""7"",""33469""
","""event"",""trial"",""time""
""blur"",""7"",""28811""
","""event"",""trial"",""time""
""focus"",""7"",""33469""
","""event"",""trial"",""time""
""fullscreenenter"",""1"",""2437""
","
","","","464.19999999995343","","","10","3756","1462","&#9789;","elianto","#f73b6a7A"," "," ","1","-10","[1318.5]","1","0","4","","","","","","","",""
"pit-trial","85","665363","0.0-2.0-17.0-4.0","battery-v0.2","","""event"",""trial"",""time""
""fullscreenenter"",""1"",""2437""
""blur"",""7"",""28811""
""focus"",""7"",""33469""
","""event"",""trial"",""time""
""blur"",""7"",""28811""
","""event"",""trial"",""time""
""focus"",""7"",""33469""
","""event"",""trial"",""time""
""fullscreenenter"",""1"",""2437""
","
","","","1524.6999999999534","","","10","3756","1462","&#9789;","elianto","#f73b6a7A"," "," ","1","0","[2376.600000000093]","1","0","4","","","","","","","",""
"pit-trial","86","670200","0.0-2.0-17.1-0.1","battery-v0.2","","""event"",""trial"",""time""
""fullscreenenter"",""1"",""2437""
""blur"",""7"",""28811""
""focus"",""7"",""33469""
","""event"",""trial"",""time""
""blur"",""7"",""28811""
","""event"",""trial"",""time""
""focus"",""7"",""33469""
","""event"",""trial"",""time""
""fullscreenenter"",""1"",""2437""
","
","","","1969.8999999999069","","","10","3756","1462","&#9789;","elianto","#f73b6a7A"," "," ","1","0","[2826.5]","1","0","4","","","","","","","",""
"pit-trial","87","674088","0.0-2.0-17.1-1.1","battery-v0.2","","""event"",""trial"",""time""
""fullscreenenter"",""1"",""2437""
""blur"",""7"",""28811""
""focus"",""7"",""33469""
","""event"",""trial"",""time""
""blur"",""7"",""28811""
","""event"",""trial"",""time""
""focus"",""7"",""33469""
","""event"",""trial"",""time""
""fullscreenenter"",""1"",""2437""
","
","","","1020.0999999998603","","","10","3756","1462","&#9789;","elianto","#f73b6a7A"," "," ","1","0","[1871.4000000001397]","1","0","4","","","","","","","",""
"pit-trial","88","677379","0.0-2.0-17.1-2.1","battery-v0.2","","""event"",""trial"",""time""
""fullscreenenter"",""1"",""2437""
""blur"",""7"",""28811""
""focus"",""7"",""33469""
","""event"",""trial"",""time""
""blur"",""7"",""28811""
","""event"",""trial"",""time""
""focus"",""7"",""33469""
","""event"",""trial"",""time""
""fullscreenenter"",""1"",""2437""
","
","","","423.89999999990687","","","10","3756","1462","&#9789;","elianto","#f73b6a7A"," "," ","1","0","[1274.5]","1","0","4","","","","","","","",""
"pit-trial","89","680710","0.0-2.0-17.1-3.1","battery-v0.2","","""event"",""trial"",""time""
""fullscreenenter"",""1"",""2437""
""blur"",""7"",""28811""
""focus"",""7"",""33469""
","""event"",""trial"",""time""
""blur"",""7"",""28811""
","""event"",""trial"",""time""
""focus"",""7"",""33469""
","""event"",""trial"",""time""
""fullscreenenter"",""1"",""2437""
","
","","","468.10000000009313","","","10","3756","1462","&#9789;","elianto","#f73b6a7A"," "," ","1","-10","[447.69999999995343,1320]","2","0","4","","","","","","","",""
"pit-trial","90","684904","0.0-2.0-17.1-4.1","battery-v0.2","","""event"",""trial"",""time""
""fullscreenenter"",""1"",""2437""
""blur"",""7"",""28811""
""focus"",""7"",""33469""
","""event"",""trial"",""time""
""blur"",""7"",""28811""
","""event"",""trial"",""time""
""focus"",""7"",""33469""
","""event"",""trial"",""time""
""fullscreenenter"",""1"",""2437""
","
","","","1328","","","10","3756","1462","&#9789;","elianto","#f73b6a7A"," "," ","1","0","[2180.8000000000466]","1","0","4","","","","","","","",""
"pit-trial","91","688464","0.0-2.0-17.2-0.2","battery-v0.2","","""event"",""trial"",""time""
""fullscreenenter"",""1"",""2437""
""blur"",""7"",""28811""
""focus"",""7"",""33469""
","""event"",""trial"",""time""
""blur"",""7"",""28811""
","""event"",""trial"",""time""
""focus"",""7"",""33469""
","""event"",""trial"",""time""
""fullscreenenter"",""1"",""2437""
","
","","","692.2999999998137","","","10","3756","1462","&#9789;","elianto","#f73b6a7A"," "," ","1","0","[1549.3000000000466]","1","0","4","","","","","","","",""
"pit-trial","92","691838","0.0-2.0-17.2-1.2","battery-v0.2","","""event"",""trial"",""time""
""fullscreenenter"",""1"",""2437""
""blur"",""7"",""28811""
""focus"",""7"",""33469""
","""event"",""trial"",""time""
""blur"",""7"",""28811""
","""event"",""trial"",""time""
""focus"",""7"",""33469""
","""event"",""trial"",""time""
""fullscreenenter"",""1"",""2437""
","
","","","509.5999999998603","","","10","3756","1462","&#9789;","elianto","#f73b6a7A"," "," ","1","0","[1360.5]","1","0","4","","","","","","","",""
"pit-trial","93","695561","0.0-2.0-17.2-2.2","battery-v0.2","","""event"",""trial"",""time""
""fullscreenenter"",""1"",""2437""
""blur"",""7"",""28811""
""focus"",""7"",""33469""
","""event"",""trial"",""time""
""blur"",""7"",""28811""
","""event"",""trial"",""time""
""focus"",""7"",""33469""
","""event"",""trial"",""time""
""fullscreenenter"",""1"",""2437""
","
","","","847.5","","","10","3756","1462","&#9789;","elianto","#f73b6a7A"," "," ","1","0","[1699.6000000000931]","1","0","4","","","","","","","",""
"pit-trial","94","699064","0.0-2.0-17.2-3.2","battery-v0.2","","""event"",""trial"",""time""
""fullscreenenter"",""1"",""2437""
""blur"",""7"",""28811""
""focus"",""7"",""33469""
","""event"",""trial"",""time""
""blur"",""7"",""28811""
","""event"",""trial"",""time""
""focus"",""7"",""33469""
","""event"",""trial"",""time""
""fullscreenenter"",""1"",""2437""
","
","","","642.3999999999069","","","10","3756","1462","&#9789;","elianto","#f73b6a7A"," "," ","1","-10","[1492.9000000001397]","1","0","4","","","","","","","",""
"pit-trial","95","702514","0.0-2.0-17.2-4.2","battery-v0.2","","""event"",""trial"",""time""
""fullscreenenter"",""1"",""2437""
""blur"",""7"",""28811""
""focus"",""7"",""33469""
","""event"",""trial"",""time""
""blur"",""7"",""28811""
","""event"",""trial"",""time""
""focus"",""7"",""33469""
","""event"",""trial"",""time""
""fullscreenenter"",""1"",""2437""
","
","","","587.6999999999534","","","10","3756","1462","&#9789;","elianto","#f73b6a7A"," "," ","1","0","[1445.5]","1","0","4","","","","","","","",""
"pit-trial","96","705851","0.0-2.0-17.3-0.3","battery-v0.2","","""event"",""trial"",""time""
""fullscreenenter"",""1"",""2437""
""blur"",""7"",""28811""
""focus"",""7"",""33469""
","""event"",""trial"",""time""
""blur"",""7"",""28811""
","""event"",""trial"",""time""
""focus"",""7"",""33469""
","""event"",""trial"",""time""
""fullscreenenter"",""1"",""2437""
","
","","","473.80000000004657","","","10","3756","1462","&#9789;","elianto","#f73b6a7A"," "," ","1","0","[1326.3000000000466]","1","0","4","","","","","","","",""
"pit-trial","97","709387","0.0-2.0-17.3-1.3","battery-v0.2","","""event"",""trial"",""time""
""fullscreenenter"",""1"",""2437""
""blur"",""7"",""28811""
""focus"",""7"",""33469""
","""event"",""trial"",""time""
""blur"",""7"",""28811""
","""event"",""trial"",""time""
""focus"",""7"",""33469""
","""event"",""trial"",""time""
""fullscreenenter"",""1"",""2437""
","
","","","670.8999999999069","","","10","3756","1462","&#9789;","elianto","#f73b6a7A"," "," ","1","0","[1525.2000000001863]","1","0","4","","","","","","","",""
"pit-trial","98","712741","0.0-2.0-17.3-2.3","battery-v0.2","","""event"",""trial"",""time""
""fullscreenenter"",""1"",""2437""
""blur"",""7"",""28811""
""focus"",""7"",""33469""
","""event"",""trial"",""time""
""blur"",""7"",""28811""
","""event"",""trial"",""time""
""focus"",""7"",""33469""
","""event"",""trial"",""time""
""fullscreenenter"",""1"",""2437""
","
","","","488.10000000009313","","","10","3756","1462","&#9789;","elianto","#f73b6a7A"," "," ","1","0","[1342.6000000000931]","1","0","4","","","","","","","",""
"pit-trial","99","716416","0.0-2.0-17.3-3.3","battery-v0.2","","""event"",""trial"",""time""
""fullscreenenter"",""1"",""2437""
""blur"",""7"",""28811""
""focus"",""7"",""33469""
","""event"",""trial"",""time""
""blur"",""7"",""28811""
","""event"",""trial"",""time""
""focus"",""7"",""33469""
","""event"",""trial"",""time""
""fullscreenenter"",""1"",""2437""
","
","","","805.5","","","10","3756","1462","&#9789;","elianto","#f73b6a7A"," "," ","1","-10","[1661.1000000000931]","1","0","4","","","","","","","",""
"pit-trial","100","719752","0.0-2.0-17.3-4.3","battery-v0.2","","""event"",""trial"",""time""
""fullscreenenter"",""1"",""2437""
""blur"",""7"",""28811""
""focus"",""7"",""33469""
","""event"",""trial"",""time""
""blur"",""7"",""28811""
","""event"",""trial"",""time""
""focus"",""7"",""33469""
","""event"",""trial"",""time""
""fullscreenenter"",""1"",""2437""
","
","","","474.19999999995343","","","10","3756","1462","&#9789;","elianto","#f73b6a7A"," "," ","1","0","[1324.8000000000466]","1","0","4","","","","","","","",""
"call-function","101","719756","0.0-2.0-18.0","battery-v0.2","","""event"",""trial"",""time""
""fullscreenenter"",""1"",""2437""
""blur"",""7"",""28811""
""focus"",""7"",""33469""
","""event"",""trial"",""time""
""blur"",""7"",""28811""
","""event"",""trial"",""time""
""focus"",""7"",""33469""
","""event"",""trial"",""time""
""fullscreenenter"",""1"",""2437""
","
","","","","","","","","","","","","","","","","","","","","","","","","","","",""
"pit-instructions","102","779334","0.0-2.0-19.0","battery-v0.2","","""event"",""trial"",""time""
""fullscreenenter"",""1"",""2437""
""blur"",""7"",""28811""
""focus"",""7"",""33469""
","""event"",""trial"",""time""
""blur"",""7"",""28811""
","""event"",""trial"",""time""
""focus"",""7"",""33469""
","""event"",""trial"",""time""
""fullscreenenter"",""1"",""2437""
","
","","[{""page_index"":0,""viewing_time"":6272},{""page_index"":1,""viewing_time"":5646.90000000014},{""page_index"":2,""viewing_time"":10430.399999999907},{""page_index"":3,""viewing_time"":6083.100000000093},{""page_index"":4,""viewing_time"":6539.300000000047},{""page_index"":5,""viewing_time"":9806.299999999814},{""page_index"":6,""viewing_time"":6489.200000000186},{""page_index"":7,""viewing_time"":4091.6999999999534},{""page_index"":8,""viewing_time"":4218}]","59577.200000000186","","","","","","","","","","","","","","","","","","","","","","","",""
"pit-comprehension","103","783895","0.0-2.0-20.0-0.0","battery-v0.2","","""event"",""trial"",""time""
""fullscreenenter"",""1"",""2437""
""blur"",""7"",""28811""
""focus"",""7"",""33469""
","""event"",""trial"",""time""
""blur"",""7"",""28811""
","""event"",""trial"",""time""
""focus"",""7"",""33469""
","""event"",""trial"",""time""
""fullscreenenter"",""1"",""2437""
","
","","","4556.59999999986","[""SPACE""]","0","10","3756","1462","","","","","","","","","","","","","","","","","","",""
"pit-instructions","104","786954","0.0-2.0-20.0-1.0","battery-v0.2","","""event"",""trial"",""time""
""fullscreenenter"",""1"",""2437""
""blur"",""7"",""28811""
""focus"",""7"",""33469""
","""event"",""trial"",""time""
""blur"",""7"",""28811""
","""event"",""trial"",""time""
""focus"",""7"",""33469""
","""event"",""trial"",""time""
""fullscreenenter"",""1"",""2437""
","
","","[{""page_index"":0,""viewing_time"":2960.5}]","2961.100000000093","","","","","","","","","","","","","","","","","","","","","","","",""
"pit-comprehension","105","792150","0.0-2.0-21.0-0.0","battery-v0.2","","""event"",""trial"",""time""
""fullscreenenter"",""1"",""2437""
""blur"",""7"",""28811""
""focus"",""7"",""33469""
","""event"",""trial"",""time""
""blur"",""7"",""28811""
","""event"",""trial"",""time""
""focus"",""7"",""33469""
","""event"",""trial"",""time""
""fullscreenenter"",""1"",""2437""
","
","","","5187.100000000093","[""10""]","0","10","3756","1462","","","","","","","","","","","","","","","","","","",""
"pit-instructions","106","794025","0.0-2.0-21.0-1.0","battery-v0.2","","""event"",""trial"",""time""
""fullscreenenter"",""1"",""2437""
""blur"",""7"",""28811""
""focus"",""7"",""33469""
","""event"",""trial"",""time""
""blur"",""7"",""28811""
","""event"",""trial"",""time""
""focus"",""7"",""33469""
","""event"",""trial"",""time""
""fullscreenenter"",""1"",""2437""
","
","","[{""page_index"":0,""viewing_time"":1803.1999999999534}]","1803.5","","","","","","","","","","","","","","","","","","","","","","","",""
"pit-comprehension","107","805117","0.0-2.0-22.0-0.0","battery-v0.2","","""event"",""trial"",""time""
""fullscreenenter"",""1"",""2437""
""blur"",""7"",""28811""
""focus"",""7"",""33469""
","""event"",""trial"",""time""
""blur"",""7"",""28811""
","""event"",""trial"",""time""
""focus"",""7"",""33469""
","""event"",""trial"",""time""
""fullscreenenter"",""1"",""2437""
","
","","","11087.800000000047","[""0""]","0","10","3756","1462","","","","","","","","","","","","","","","","","","",""
"pit-instructions","108","807416","0.0-2.0-22.0-1.0","battery-v0.2","","""event"",""trial"",""time""
""fullscreenenter"",""1"",""2437""
""blur"",""7"",""28811""
""focus"",""7"",""33469""
","""event"",""trial"",""time""
""blur"",""7"",""28811""
","""event"",""trial"",""time""
""focus"",""7"",""33469""
","""event"",""trial"",""time""
""fullscreenenter"",""1"",""2437""
","
","","[{""page_index"":0,""viewing_time"":2241.9000000001397}]","2242.5","","","","","","","","","","","","","","","","","","","","","","","",""
"pit-comprehension","109","818878","0.0-2.0-23.0-0.0","battery-v0.2","","""event"",""trial"",""time""
""fullscreenenter"",""1"",""2437""
""blur"",""7"",""28811""
""focus"",""7"",""33469""
","""event"",""trial"",""time""
""blur"",""7"",""28811""
","""event"",""trial"",""time""
""focus"",""7"",""33469""
","""event"",""trial"",""time""
""fullscreenenter"",""1"",""2437""
","
","","","11455.899999999907","[""False""]","1","10","3756","1462","","","","","","","","","","","","","","","","","","",""
"pit-instructions","110","821083","0.0-2.0-23.0-1.0","battery-v0.2","","""event"",""trial"",""time""
""fullscreenenter"",""1"",""2437""
""blur"",""7"",""28811""
""focus"",""7"",""33469""
","""event"",""trial"",""time""
""blur"",""7"",""28811""
","""event"",""trial"",""time""
""focus"",""7"",""33469""
","""event"",""trial"",""time""
""fullscreenenter"",""1"",""2437""
","
","","[{""page_index"":0,""viewing_time"":2141.0999999998603}]","2141.399999999907","","","","","","","","","","","","","","","","","","","","","","","",""
"pit-instructions","111","822212","0.0-2.0-23.0-2.0-0.0","battery-v0.2","","""event"",""trial"",""time""
""fullscreenenter"",""1"",""2437""
""blur"",""7"",""28811""
""focus"",""7"",""33469""
","""event"",""trial"",""time""
""blur"",""7"",""28811""
","""event"",""trial"",""time""
""focus"",""7"",""33469""
","""event"",""trial"",""time""
""fullscreenenter"",""1"",""2437""
","
","","[{""page_index"":0,""viewing_time"":1127.3000000000466}]","1127.8999999999069","","","","","","","","","","","","","","","","","","","","","","","",""
"pit-comprehension","112","830696","0.0-2.0-23.1-0.1","battery-v0.2","","""event"",""trial"",""time""
""fullscreenenter"",""1"",""2437""
""blur"",""7"",""28811""
""focus"",""7"",""33469""
","""event"",""trial"",""time""
""blur"",""7"",""28811""
","""event"",""trial"",""time""
""focus"",""7"",""33469""
","""event"",""trial"",""time""
""fullscreenenter"",""1"",""2437""
","
","","","8478.40000000014","[""True""]","0","10","3756","1462","","","","","","","","","","","","","","","","","","",""
"pit-instructions","113","832803","0.0-2.0-23.1-1.1","battery-v0.2","","""event"",""trial"",""time""
""fullscreenenter"",""1"",""2437""
""blur"",""7"",""28811""
""focus"",""7"",""33469""
","""event"",""trial"",""time""
""blur"",""7"",""28811""
","""event"",""trial"",""time""
""focus"",""7"",""33469""
","""event"",""trial"",""time""
""fullscreenenter"",""1"",""2437""
","
","","[{""page_index"":0,""viewing_time"":2052.1999999999534}]","2052.600000000093","","","","","","","","","","","","","","","","","","","","","","","",""
"pit-comprehension","114","840238","0.0-2.0-24.0-0.0","battery-v0.2","","""event"",""trial"",""time""
""fullscreenenter"",""1"",""2437""
""blur"",""7"",""28811""
""focus"",""7"",""33469""
","""event"",""trial"",""time""
""blur"",""7"",""28811""
","""event"",""trial"",""time""
""focus"",""7"",""33469""
","""event"",""trial"",""time""
""fullscreenenter"",""1"",""2437""
","
","","","7428.899999999907","[""True""]","0","10","3756","1462","","","","","","","","","","","","","","","","","","",""
"pit-instructions","115","841812","0.0-2.0-24.0-1.0","battery-v0.2","","""event"",""trial"",""time""
""fullscreenenter"",""1"",""2437""
""blur"",""7"",""28811""
""focus"",""7"",""33469""
","""event"",""trial"",""time""
""blur"",""7"",""28811""
","""event"",""trial"",""time""
""focus"",""7"",""33469""
","""event"",""trial"",""time""
""fullscreenenter"",""1"",""2437""
","
","","[{""page_index"":0,""viewing_time"":1516.4000000001397}]","1516.9000000001397","","","","","","","","","","","","","","","","","","","","","","","",""
"pit-comprehension","116","848223","0.0-2.0-25.0-0.0","battery-v0.2","","""event"",""trial"",""time""
""fullscreenenter"",""1"",""2437""
""blur"",""7"",""28811""
""focus"",""7"",""33469""
","""event"",""trial"",""time""
""blur"",""7"",""28811""
","""event"",""trial"",""time""
""focus"",""7"",""33469""
","""event"",""trial"",""time""
""fullscreenenter"",""1"",""2437""
","
","","","6404.899999999907","[""True""]","0","10","3756","1462","","","","","","","","","","","","","","","","","","",""
"pit-instructions","117","849794","0.0-2.0-25.0-1.0","battery-v0.2","","""event"",""trial"",""time""
""fullscreenenter"",""1"",""2437""
""blur"",""7"",""28811""
""focus"",""7"",""33469""
","""event"",""trial"",""time""
""blur"",""7"",""28811""
","""event"",""trial"",""time""
""focus"",""7"",""33469""
","""event"",""trial"",""time""
""fullscreenenter"",""1"",""2437""
","
","","[{""page_index"":0,""viewing_time"":1460.8999999999069}]","1461.3000000000466","","","","","","","","","","","","","","","","","","","","","","","",""
"pit-comprehension","118","854291","0.0-2.0-26.0-0.0","battery-v0.2","","""event"",""trial"",""time""
""fullscreenenter"",""1"",""2437""
""blur"",""7"",""28811""
""focus"",""7"",""33469""
","""event"",""trial"",""time""
""blur"",""7"",""28811""
","""event"",""trial"",""time""
""focus"",""7"",""33469""
","""event"",""trial"",""time""
""fullscreenenter"",""1"",""2437""
","
","","","4490.5","[""False""]","0","10","3756","1462","","","","","","","","","","","","","","","","","","",""
"pit-instructions","119","855947","0.0-2.0-26.0-1.0","battery-v0.2","","""event"",""trial"",""time""
""fullscreenenter"",""1"",""2437""
""blur"",""7"",""28811""
""focus"",""7"",""33469""
","""event"",""trial"",""time""
""blur"",""7"",""28811""
","""event"",""trial"",""time""
""focus"",""7"",""33469""
","""event"",""trial"",""time""
""fullscreenenter"",""1"",""2437""
","
","","[{""page_index"":0,""viewing_time"":1517.6000000000931}]","1517.8999999999069","","","","","","","","","","","","","","","","","","","","","","","",""
"pit-instructions","120","873308","0.0-3.0","battery-v0.2","","""event"",""trial"",""time""
""fullscreenenter"",""1"",""2437""
""blur"",""7"",""28811""
""focus"",""7"",""33469""
","""event"",""trial"",""time""
""blur"",""7"",""28811""
","""event"",""trial"",""time""
""focus"",""7"",""33469""
","""event"",""trial"",""time""
""fullscreenenter"",""1"",""2437""
","
","","[{""page_index"":0,""viewing_time"":3853.600000000093},{""page_index"":1,""viewing_time"":5587.399999999907},{""page_index"":2,""viewing_time"":7918.199999999953}]","17359.5","","","","","","","","","","","","","","","","","","","","","","","",""
"pit-trial","121","877516","0.0-4.0","battery-v0.2","","""event"",""trial"",""time""
""fullscreenenter"",""1"",""2437""
""blur"",""7"",""28811""
""focus"",""7"",""33469""
","""event"",""trial"",""time""
""blur"",""7"",""28811""
","""event"",""trial"",""time""
""focus"",""7"",""33469""
","""event"",""trial"",""time""
""fullscreenenter"",""1"",""2437""
","
","","","1341.2999999998137","","","10","3756","1462","&#9752;","elianto","#f73b6a7A"," "," ","1","0","[2195.8000000000466]","1","1","","","3756","1","3","3","lose","go","0"
"pit-trial","122","881377","0.0-5.0","battery-v0.2","","""event"",""trial"",""time""
""fullscreenenter"",""1"",""2437""
""blur"",""7"",""28811""
""focus"",""7"",""33469""
","""event"",""trial"",""time""
""blur"",""7"",""28811""
","""event"",""trial"",""time""
""focus"",""7"",""33469""
","""event"",""trial"",""time""
""fullscreenenter"",""1"",""2437""
","
","","","994.9000000001397","","","10","3756","1462","&#9733;","elianto","#3366ff99","-1"," ","0","0","[1850.6000000000931]","1","1","","","3756","2","2","2","win","no-go","0"
"pit-trial","123","884988","0.0-6.0","battery-v0.2","","""event"",""trial"",""time""
""fullscreenenter"",""1"",""2437""
""blur"",""7"",""28811""
""focus"",""7"",""33469""
","""event"",""trial"",""time""
""blur"",""7"",""28811""
","""event"",""trial"",""time""
""focus"",""7"",""33469""
","""event"",""trial"",""time""
""fullscreenenter"",""1"",""2437""
","
","","","727.8999999999069","","","10","3756","1462","&#9730;","elianto","#3366ff99"," "," ","1","+10","[1587.6999999999534]","1","1","","","3756","3","1","1","win","go","0"
"pit-trial","124","888811","0.0-7.0","battery-v0.2","","""event"",""trial"",""time""
""fullscreenenter"",""1"",""2437""
""blur"",""7"",""28811""
""focus"",""7"",""33469""
","""event"",""trial"",""time""
""blur"",""7"",""28811""
","""event"",""trial"",""time""
""focus"",""7"",""33469""
","""event"",""trial"",""time""
""fullscreenenter"",""1"",""2437""
","
","","","944.9000000001397","","","10","3756","1462","&#9728;","elianto","#f73b6a7A","-1"," ","0","-10","[1806.1999999999534]","1","1","","","3756","4","0","4","lose","no-go","0"
"pit-trial","125","892246","0.0-8.0","battery-v0.2","","""event"",""trial"",""time""
""fullscreenenter"",""1"",""2437""
""blur"",""7"",""28811""
""focus"",""7"",""33469""
","""event"",""trial"",""time""
""blur"",""7"",""28811""
","""event"",""trial"",""time""
""focus"",""7"",""33469""
","""event"",""trial"",""time""
""fullscreenenter"",""1"",""2437""
","
","","","566.6000000000931","","","10","3756","1462","&#9730;","elianto","#3366ff99"," "," ","1","+10","[1424.3000000000466]","1","1","","","3756","5","1","1","win","go","0"
"pit-trial","126","895739","0.0-9.0","battery-v0.2","","""event"",""trial"",""time""
""fullscreenenter"",""1"",""2437""
""blur"",""7"",""28811""
""focus"",""7"",""33469""
","""event"",""trial"",""time""
""blur"",""7"",""28811""
","""event"",""trial"",""time""
""focus"",""7"",""33469""
","""event"",""trial"",""time""
""fullscreenenter"",""1"",""2437""
","
","","","621.1000000000931","","","10","3756","1462","&#9733;","elianto","#3366ff99","-1"," ","0","0","[1480.0999999998603]","1","1","","","3756","6","2","2","win","no-go","0"
"pit-trial","127","899315","0.0-10.0","battery-v0.2","","""event"",""trial"",""time""
""fullscreenenter"",""1"",""2437""
""blur"",""7"",""28811""
""focus"",""7"",""33469""
","""event"",""trial"",""time""
""blur"",""7"",""28811""
","""event"",""trial"",""time""
""focus"",""7"",""33469""
","""event"",""trial"",""time""
""fullscreenenter"",""1"",""2437""
","
","","","707.7000000001863","","","10","3756","1462","&#9752;","elianto","#f73b6a7A"," "," ","1","0","[1565.8999999999069]","1","1","","","3756","7","3","3","lose","go","0"
"pit-trial","128","904186","0.0-11.0","battery-v0.2","","""event"",""trial"",""time""
""fullscreenenter"",""1"",""2437""
""blur"",""7"",""28811""
""focus"",""7"",""33469""
","""event"",""trial"",""time""
""blur"",""7"",""28811""
","""event"",""trial"",""time""
""focus"",""7"",""33469""
","""event"",""trial"",""time""
""fullscreenenter"",""1"",""2437""
","
","","","-1","","","10","3756","1462","&#9728;","elianto","#f73b6a7A","-1","-1","1","-10","[]","0","1","","","3756","8","0","4","lose","no-go","1"
"pit-trial","129","909063","0.0-12.0","battery-v0.2","","""event"",""trial"",""time""
""fullscreenenter"",""1"",""2437""
""blur"",""7"",""28811""
""focus"",""7"",""33469""
","""event"",""trial"",""time""
""blur"",""7"",""28811""
","""event"",""trial"",""time""
""focus"",""7"",""33469""
","""event"",""trial"",""time""
""fullscreenenter"",""1"",""2437""
","
","","","-1","","","10","3756","1462","&#9728;","elianto","#f73b6a7A","-1","-1","1","0","[]","0","1","","","3756","9","0","4","lose","no-go","0"
"pit-trial","130","912578","0.0-13.0","battery-v0.2","","""event"",""trial"",""time""
""fullscreenenter"",""1"",""2437""
""blur"",""7"",""28811""
""focus"",""7"",""33469""
","""event"",""trial"",""time""
""blur"",""7"",""28811""
","""event"",""trial"",""time""
""focus"",""7"",""33469""
","""event"",""trial"",""time""
""fullscreenenter"",""1"",""2437""
","
","","","637.1999999999534","","","10","3756","1462","&#9733;","elianto","#3366ff99","-1"," ","0","0","[1496]","1","1","","","3756","10","2","2","win","no-go","0"
"pit-trial","131","917448","0.0-14.0","battery-v0.2","","""event"",""trial"",""time""
""fullscreenenter"",""1"",""2437""
""blur"",""7"",""28811""
""focus"",""7"",""33469""
","""event"",""trial"",""time""
""blur"",""7"",""28811""
","""event"",""trial"",""time""
""focus"",""7"",""33469""
","""event"",""trial"",""time""
""fullscreenenter"",""1"",""2437""
","
","","","-1","","","10","3756","1462","&#9752;","elianto","#f73b6a7A"," ","-1","0","0","[]","0","1","","","3756","11","3","3","lose","go","1"
"pit-trial","132","920905","0.0-15.0","battery-v0.2","","""event"",""trial"",""time""
""fullscreenenter"",""1"",""2437""
""blur"",""7"",""28811""
""focus"",""7"",""33469""
","""event"",""trial"",""time""
""blur"",""7"",""28811""
","""event"",""trial"",""time""
""focus"",""7"",""33469""
","""event"",""trial"",""time""
""fullscreenenter"",""1"",""2437""
","
","","","582.3999999999069","","","10","3756","1462","&#9730;","elianto","#3366ff99"," "," ","1","+10","[1438]","1","1","","","3756","12","1","1","win","go","0"
"pit-trial","133","924384","0.0-16.0","battery-v0.2","","""event"",""trial"",""time""
""fullscreenenter"",""1"",""2437""
""blur"",""7"",""28811""
""focus"",""7"",""33469""
","""event"",""trial"",""time""
""blur"",""7"",""28811""
","""event"",""trial"",""time""
""focus"",""7"",""33469""
","""event"",""trial"",""time""
""fullscreenenter"",""1"",""2437""
","
","","","609.7999999998137","","","10","3756","1462","&#9730;","elianto","#3366ff99"," "," ","1","+10","[1462.2999999998137]","1","1","","","3756","13","1","1","win","go","0"
"pit-trial","134","929257","0.0-17.0","battery-v0.2","","""event"",""trial"",""time""
""fullscreenenter"",""1"",""2437""
""blur"",""7"",""28811""
""focus"",""7"",""33469""
","""event"",""trial"",""time""
""blur"",""7"",""28811""
","""event"",""trial"",""time""
""focus"",""7"",""33469""
","""event"",""trial"",""time""
""fullscreenenter"",""1"",""2437""
","
","","","-1","","","10","3756","1462","&#9728;","elianto","#f73b6a7A","-1","-1","1","0","[]","0","1","","","3756","14","0","4","lose","no-go","0"
"pit-trial","135","934134","0.0-18.0","battery-v0.2","","""event"",""trial"",""time""
""fullscreenenter"",""1"",""2437""
""blur"",""7"",""28811""
""focus"",""7"",""33469""
","""event"",""trial"",""time""
""blur"",""7"",""28811""
","""event"",""trial"",""time""
""focus"",""7"",""33469""
","""event"",""trial"",""time""
""fullscreenenter"",""1"",""2437""
","
","","","-1","","","10","3756","1462","&#9733;","elianto","#3366ff99","-1","-1","1","+10","[]","0","1","","","3756","15","2","2","win","no-go","0"
"pit-trial","136","938687","0.0-19.0","battery-v0.2","","""event"",""trial"",""time""
""fullscreenenter"",""1"",""2437""
""blur"",""7"",""28811""
""focus"",""7"",""33469""
","""event"",""trial"",""time""
""blur"",""7"",""28811""
","""event"",""trial"",""time""
""focus"",""7"",""33469""
","""event"",""trial"",""time""
""fullscreenenter"",""1"",""2437""
","
","","","1690.8999999999069","","","10","3756","1462","&#9752;","elianto","#f73b6a7A"," "," ","1","-10","[2542.2000000001863]","1","1","","","3756","16","3","3","lose","go","1"
"pit-trial","137","942866","0.0-20.0","battery-v0.2","","""event"",""trial"",""time""
""fullscreenenter"",""1"",""2437""
""blur"",""7"",""28811""
""focus"",""7"",""33469""
","""event"",""trial"",""time""
""blur"",""7"",""28811""
","""event"",""trial"",""time""
""focus"",""7"",""33469""
","""event"",""trial"",""time""
""fullscreenenter"",""1"",""2437""
","
","","","1315","","","10","3756","1462","&#9733;","elianto","#3366ff99","-1"," ","0","0","[2170.8000000000466]","1","1","","","3756","17","2","2","win","no-go","0"
"pit-trial","138","947708","0.0-21.0","battery-v0.2","","""event"",""trial"",""time""
""fullscreenenter"",""1"",""2437""
""blur"",""7"",""28811""
""focus"",""7"",""33469""
","""event"",""trial"",""time""
""blur"",""7"",""28811""
","""event"",""trial"",""time""
""focus"",""7"",""33469""
","""event"",""trial"",""time""
""fullscreenenter"",""1"",""2437""
","
","","","1971.0999999998603","","","10","3756","1462","&#9752;","elianto","#f73b6a7A"," "," ","1","0","[2830.9000000001397]","1","1","","","3756","18","3","3","lose","go","0"
"pit-trial","139","952587","0.0-22.0","battery-v0.2","","""event"",""trial"",""time""
""fullscreenenter"",""1"",""2437""
""blur"",""7"",""28811""
""focus"",""7"",""33469""
","""event"",""trial"",""time""
""blur"",""7"",""28811""
","""event"",""trial"",""time""
""focus"",""7"",""33469""
","""event"",""trial"",""time""
""fullscreenenter"",""1"",""2437""
","
","","","-1","","","10","3756","1462","&#9728;","elianto","#f73b6a7A","-1","-1","1","0","[]","0","1","","","3756","19","0","4","lose","no-go","0"
"pit-trial","140","956071","0.0-23.0","battery-v0.2","","""event"",""trial"",""time""
""fullscreenenter"",""1"",""2437""
""blur"",""7"",""28811""
""focus"",""7"",""33469""
","""event"",""trial"",""time""
""blur"",""7"",""28811""
","""event"",""trial"",""time""
""focus"",""7"",""33469""
","""event"",""trial"",""time""
""fullscreenenter"",""1"",""2437""
","
","","","615.8000000000466","","","10","3756","1462","&#9730;","elianto","#3366ff99"," "," ","1","+10","[1467.3999999999069]","1","1","","","3756","20","1","1","win","go","0"
"pit-instructions","141","970823","0.0-24.0","battery-v0.2","","""event"",""trial"",""time""
""fullscreenenter"",""1"",""2437""
""blur"",""7"",""28811""
""focus"",""7"",""33469""
","""event"",""trial"",""time""
""blur"",""7"",""28811""
","""event"",""trial"",""time""
""focus"",""7"",""33469""
","""event"",""trial"",""time""
""fullscreenenter"",""1"",""2437""
","
","","[{""page_index"":0,""viewing_time"":7149.300000000047},{""page_index"":1,""viewing_time"":7598.899999999907}]","14749","","","","","","","","","","","","","","","","","","","","","","","",""
"pit-trial","142","975135","0.0-25.0","battery-v0.2","","""event"",""trial"",""time""
""fullscreenenter"",""1"",""2437""
""blur"",""7"",""28811""
""focus"",""7"",""33469""
","""event"",""trial"",""time""
""blur"",""7"",""28811""
","""event"",""trial"",""time""
""focus"",""7"",""33469""
","""event"",""trial"",""time""
""fullscreenenter"",""1"",""2437""
","
","","","1431.6000000000931","","","10","3756","1462","h","elianto","#f73b6a7A"," "," ","1","0","[2283]","1","2","","","3756","21","3","3","lose","go","0"
"pit-trial","143","978805","0.0-26.0","battery-v0.2","","""event"",""trial"",""time""
""fullscreenenter"",""1"",""2437""
""blur"",""7"",""28811""
""focus"",""7"",""33469""
","""event"",""trial"",""time""
""blur"",""7"",""28811""
","""event"",""trial"",""time""
""focus"",""7"",""33469""
","""event"",""trial"",""time""
""fullscreenenter"",""1"",""2437""
","
","","","796.0999999998603","","","10","3756","1462","m","elianto","#f73b6a7A","-1"," ","0","-10","[1653]","1","2","","","3756","22","0","4","lose","no-go","0"
"pit-trial","144","982285","0.0-27.0","battery-v0.2","","""event"",""trial"",""time""
""fullscreenenter"",""1"",""2437""
""blur"",""7"",""28811""
""focus"",""7"",""33469""
","""event"",""trial"",""time""
""blur"",""7"",""28811""
","""event"",""trial"",""time""
""focus"",""7"",""33469""
","""event"",""trial"",""time""
""fullscreenenter"",""1"",""2437""
","
","","","615.2000000001863","","","10","3756","1462","r","elianto","#3366ff99"," "," ","1","+10","[1469.6999999999534]","1","2","","","3756","23","1","1","win","go","0"
"pit-trial","145","985645","0.0-28.0","battery-v0.2","","""event"",""trial"",""time""
""fullscreenenter"",""1"",""2437""
""blur"",""7"",""28811""
""focus"",""7"",""33469""
","""event"",""trial"",""time""
""blur"",""7"",""28811""
","""event"",""trial"",""time""
""focus"",""7"",""33469""
","""event"",""trial"",""time""
""fullscreenenter"",""1"",""2437""
","
","","","495.29999999981374","","","10","3756","1462","y","elianto","#f73b6a7A","-1"," ","0","-10","[1351.9000000001397]","1","2","","","3756","24","2","4","lose","no-go","0"
"pit-trial","146","989191","0.0-29.0","battery-v0.2","","""event"",""trial"",""time""
""fullscreenenter"",""1"",""2437""
""blur"",""7"",""28811""
""focus"",""7"",""33469""
","""event"",""trial"",""time""
""blur"",""7"",""28811""
","""event"",""trial"",""time""
""focus"",""7"",""33469""
","""event"",""trial"",""time""
""fullscreenenter"",""1"",""2437""
","
","","","672.6000000000931","","","10","3756","1462","y","elianto","#f73b6a7A","-1"," ","0","-10","[1522.8000000000466]","1","2","","","3756","25","2","4","lose","no-go","0"
"pit-trial","147","992635","0.0-30.0","battery-v0.2","","""event"",""trial"",""time""
""fullscreenenter"",""1"",""2437""
""blur"",""7"",""28811""
""focus"",""7"",""33469""
","""event"",""trial"",""time""
""blur"",""7"",""28811""
","""event"",""trial"",""time""
""focus"",""7"",""33469""
","""event"",""trial"",""time""
""fullscreenenter"",""1"",""2437""
","
","","","569.2999999998137","","","10","3756","1462","r","elianto","#3366ff99"," "," ","1","+10","[1420.5]","1","2","","","3756","26","1","1","win","go","0"
"pit-trial","148","996085","0.0-31.0","battery-v0.2","","""event"",""trial"",""time""
""fullscreenenter"",""1"",""2437""
""blur"",""7"",""28811""
""focus"",""7"",""33469""
","""event"",""trial"",""time""
""blur"",""7"",""28811""
","""event"",""trial"",""time""
""focus"",""7"",""33469""
","""event"",""trial"",""time""
""fullscreenenter"",""1"",""2437""
","
","","","583.1000000000931","","","10","3756","1462","h","elianto","#f73b6a7A"," "," ","1","0","[1435]","1","2","","","3756","27","3","3","lose","go","0"
"pit-trial","149","999695","0.0-32.0","battery-v0.2","","""event"",""trial"",""time""
""fullscreenenter"",""1"",""2437""
""blur"",""7"",""28811""
""focus"",""7"",""33469""
","""event"",""trial"",""time""
""blur"",""7"",""28811""
","""event"",""trial"",""time""
""focus"",""7"",""33469""
","""event"",""trial"",""time""
""fullscreenenter"",""1"",""2437""
","
","","","732.2000000001863","","","10","3756","1462","m","elianto","#f73b6a7A","-1"," ","0","-10","[1586.1999999999534]","1","2","","","3756","28","0","4","lose","no-go","0"
"pit-trial","150","1003177","0.0-33.0","battery-v0.2","","""event"",""trial"",""time""
""fullscreenenter"",""1"",""2437""
""blur"",""7"",""28811""
""focus"",""7"",""33469""
","""event"",""trial"",""time""
""blur"",""7"",""28811""
","""event"",""trial"",""time""
""focus"",""7"",""33469""
","""event"",""trial"",""time""
""fullscreenenter"",""1"",""2437""
","
","","","614.4000000001397","","","10","3756","1462","r","elianto","#3366ff99"," "," ","1","+10","[1469.1999999999534]","1","2","","","3756","29","1","1","win","go","0"
"pit-trial","151","1008050","0.0-34.0","battery-v0.2","","""event"",""trial"",""time""
""fullscreenenter"",""1"",""2437""
""blur"",""7"",""28811""
""focus"",""7"",""33469""
","""event"",""trial"",""time""
""blur"",""7"",""28811""
","""event"",""trial"",""time""
""focus"",""7"",""33469""
","""event"",""trial"",""time""
""fullscreenenter"",""1"",""2437""
","
","","","-1","","","10","3756","1462","m","elianto","#f73b6a7A","-1","-1","1","0","[]","0","2","","","3756","30","0","4","lose","no-go","0"
"pit-trial","152","1011402","0.0-35.0","battery-v0.2","","""event"",""trial"",""time""
""fullscreenenter"",""1"",""2437""
""blur"",""7"",""28811""
""focus"",""7"",""33469""
","""event"",""trial"",""time""
""blur"",""7"",""28811""
","""event"",""trial"",""time""
""focus"",""7"",""33469""
","""event"",""trial"",""time""
""fullscreenenter"",""1"",""2437""
","
","","","496.10000000009313","","","10","3756","1462","h","elianto","#f73b6a7A"," "," ","1","-10","[1346.8999999999069]","1","2","","","3756","31","3","3","lose","go","1"
"pit-trial","153","1016275","0.0-36.0","battery-v0.2","","""event"",""trial"",""time""
""fullscreenenter"",""1"",""2437""
""blur"",""7"",""28811""
""focus"",""7"",""33469""
","""event"",""trial"",""time""
""blur"",""7"",""28811""
","""event"",""trial"",""time""
""focus"",""7"",""33469""
","""event"",""trial"",""time""
""fullscreenenter"",""1"",""2437""
","
","","","-1","","","10","3756","1462","y","elianto","#f73b6a7A","-1","-1","1","0","[]","0","2","","","3756","32","2","4","lose","no-go","0"
"pit-trial","154","1019642","0.0-37.0","battery-v0.2","","""event"",""trial"",""time""
""fullscreenenter"",""1"",""2437""
""blur"",""7"",""28811""
""focus"",""7"",""33469""
","""event"",""trial"",""time""
""blur"",""7"",""28811""
","""event"",""trial"",""time""
""focus"",""7"",""33469""
","""event"",""trial"",""time""
""fullscreenenter"",""1"",""2437""
","
","","","500.89999999990687","","","10","3756","1462","h","elianto","#f73b6a7A"," "," ","1","0","[1355.7999999998137]","1","2","","","3756","33","3","3","lose","go","0"
"pit-trial","155","1023013","0.0-38.0","battery-v0.2","","""event"",""trial"",""time""
""fullscreenenter"",""1"",""2437""
""blur"",""7"",""28811""
""focus"",""7"",""33469""
","""event"",""trial"",""time""
""blur"",""7"",""28811""
","""event"",""trial"",""time""
""focus"",""7"",""33469""
","""event"",""trial"",""time""
""fullscreenenter"",""1"",""2437""
","
","","","504.89999999990687","","","10","3756","1462","r","elianto","#3366ff99"," "," ","1","+10","[1355.1000000000931]","1","2","","","3756","34","1","1","win","go","0"
"pit-trial","156","1027888","0.0-39.0","battery-v0.2","","""event"",""trial"",""time""
""fullscreenenter"",""1"",""2437""
""blur"",""7"",""28811""
""focus"",""7"",""33469""
","""event"",""trial"",""time""
""blur"",""7"",""28811""
","""event"",""trial"",""time""
""focus"",""7"",""33469""
","""event"",""trial"",""time""
""fullscreenenter"",""1"",""2437""
","
","","","-1","","","10","3756","1462","m","elianto","#f73b6a7A","-1","-1","1","0","[]","0","2","","","3756","35","0","4","lose","no-go","0"
"pit-trial","157","1032755","0.0-40.0","battery-v0.2","","""event"",""trial"",""time""
""fullscreenenter"",""1"",""2437""
""blur"",""7"",""28811""
""focus"",""7"",""33469""
","""event"",""trial"",""time""
""blur"",""7"",""28811""
","""event"",""trial"",""time""
""focus"",""7"",""33469""
","""event"",""trial"",""time""
""fullscreenenter"",""1"",""2437""
","
","","","-1","","","10","3756","1462","y","elianto","#f73b6a7A","-1","-1","1","-10","[]","0","2","","","3756","36","2","4","lose","no-go","1"
"pit-trial","158","1036139","0.0-41.0","battery-v0.2","","""event"",""trial"",""time""
""fullscreenenter"",""1"",""2437""
""blur"",""7"",""28811""
""focus"",""7"",""33469""
","""event"",""trial"",""time""
""blur"",""7"",""28811""
","""event"",""trial"",""time""
""focus"",""7"",""33469""
","""event"",""trial"",""time""
""fullscreenenter"",""1"",""2437""
","
","","","525.1000000000931","","","10","3756","1462","r","elianto","#3366ff99"," "," ","1","+10","[1377]","1","2","","","3756","37","1","1","win","go","0"
"pit-trial","159","1041014","0.0-42.0","battery-v0.2","","""event"",""trial"",""time""
""fullscreenenter"",""1"",""2437""
""blur"",""7"",""28811""
""focus"",""7"",""33469""
","""event"",""trial"",""time""
""blur"",""7"",""28811""
","""event"",""trial"",""time""
""focus"",""7"",""33469""
","""event"",""trial"",""time""
""fullscreenenter"",""1"",""2437""
","
","","","-1","","","10","3756","1462","y","elianto","#f73b6a7A","-1","-1","1","0","[]","0","2","","","3756","38","2","4","lose","no-go","0"
"pit-trial","160","1044450","0.0-43.0","battery-v0.2","","""event"",""trial"",""time""
""fullscreenenter"",""1"",""2437""
""blur"",""7"",""28811""
""focus"",""7"",""33469""
","""event"",""trial"",""time""
""blur"",""7"",""28811""
","""event"",""trial"",""time""
""focus"",""7"",""33469""
","""event"",""trial"",""time""
""fullscreenenter"",""1"",""2437""
","
","","","571.3000000000466","","","10","3756","1462","h","elianto","#f73b6a7A"," "," ","1","0","[1426.6000000000931]","1","2","","","3756","39","3","3","lose","go","0"
"pit-trial","161","1049329","0.0-44.0","battery-v0.2","","""event"",""trial"",""time""
""fullscreenenter"",""1"",""2437""
""blur"",""7"",""28811""
""focus"",""7"",""33469""
","""event"",""trial"",""time""
""blur"",""7"",""28811""
","""event"",""trial"",""time""
""focus"",""7"",""33469""
","""event"",""trial"",""time""
""fullscreenenter"",""1"",""2437""
","
","","","-1","","","10","3756","1462","m","elianto","#f73b6a7A","-1","-1","1","-10","[]","0","2","","","3756","40","0","4","lose","no-go","1"
"pit-trial","162","1052669","0.0-45.0","battery-v0.2","","""event"",""trial"",""time""
""fullscreenenter"",""1"",""2437""
""blur"",""7"",""28811""
""focus"",""7"",""33469""
","""event"",""trial"",""time""
""blur"",""7"",""28811""
","""event"",""trial"",""time""
""focus"",""7"",""33469""
","""event"",""trial"",""time""
""fullscreenenter"",""1"",""2437""
","
","","","475.4000000001397","","","10","3756","1462","r","elianto","#3366ff99"," "," ","1","+10","[1326.5]","1","2","","","3756","41","1","1","win","go","0"
"pit-trial","163","1057539","0.0-46.0","battery-v0.2","","""event"",""trial"",""time""
""fullscreenenter"",""1"",""2437""
""blur"",""7"",""28811""
""focus"",""7"",""33469""
","""event"",""trial"",""time""
""blur"",""7"",""28811""
","""event"",""trial"",""time""
""focus"",""7"",""33469""
","""event"",""trial"",""time""
""fullscreenenter"",""1"",""2437""
","
","","","-1","","","10","3756","1462","y","elianto","#f73b6a7A","-1","-1","1","0","[]","0","2","","","3756","42","2","4","lose","no-go","0"
"pit-trial","164","1062419","0.0-47.0","battery-v0.2","","""event"",""trial"",""time""
""fullscreenenter"",""1"",""2437""
""blur"",""7"",""28811""
""focus"",""7"",""33469""
","""event"",""trial"",""time""
""blur"",""7"",""28811""
","""event"",""trial"",""time""
""focus"",""7"",""33469""
","""event"",""trial"",""time""
""fullscreenenter"",""1"",""2437""
","
","","","-1","","","10","3756","1462","m","elianto","#f73b6a7A","-1","-1","1","0","[]","0","2","","","3756","43","0","4","lose","no-go","0"
"pit-trial","165","1065804","0.0-48.0","battery-v0.2","","""event"",""trial"",""time""
""fullscreenenter"",""1"",""2437""
""blur"",""7"",""28811""
""focus"",""7"",""33469""
","""event"",""trial"",""time""
""blur"",""7"",""28811""
","""event"",""trial"",""time""
""focus"",""7"",""33469""
","""event"",""trial"",""time""
""fullscreenenter"",""1"",""2437""
","
","","","523.6000000000931","","","10","3756","1462","h","elianto","#f73b6a7A"," "," ","1","0","[1374.6000000000931]","1","2","","","3756","44","3","3","lose","go","0"
"pit-trial","166","1069589","0.0-49.0","battery-v0.2","","""event"",""trial"",""time""
""fullscreenenter"",""1"",""2437""
""blur"",""7"",""28811""
""focus"",""7"",""33469""
","""event"",""trial"",""time""
""blur"",""7"",""28811""
","""event"",""trial"",""time""
""focus"",""7"",""33469""
","""event"",""trial"",""time""
""fullscreenenter"",""1"",""2437""
","
","","","921.7000000001863","","","10","3756","1462","z","elianto","#3366ff99","-1"," ","0","+10","[1772.3000000000466]","1","2","","","3756","45","4","2","win","no-go","1"
"pit-trial","167","1072991","0.0-50.0","battery-v0.2","","""event"",""trial"",""time""
""fullscreenenter"",""1"",""2437""
""blur"",""7"",""28811""
""focus"",""7"",""33469""
","""event"",""trial"",""time""
""blur"",""7"",""28811""
","""event"",""trial"",""time""
""focus"",""7"",""33469""
","""event"",""trial"",""time""
""fullscreenenter"",""1"",""2437""
","
","","","535.3000000000466","","","10","3756","1462","h","elianto","#f73b6a7A"," "," ","1","0","[1386.1999999999534]","1","2","","","3756","46","3","3","lose","go","0"
"pit-trial","168","1077878","0.0-51.0","battery-v0.2","","""event"",""trial"",""time""
""fullscreenenter"",""1"",""2437""
""blur"",""7"",""28811""
""focus"",""7"",""33469""
","""event"",""trial"",""time""
""blur"",""7"",""28811""
","""event"",""trial"",""time""
""focus"",""7"",""33469""
","""event"",""trial"",""time""
""fullscreenenter"",""1"",""2437""
","
","","","-1","","","10","3756","1462","y","elianto","#f73b6a7A","-1","-1","1","0","[]","0","2","","","3756","47","2","4","lose","no-go","0"
"pit-trial","169","1082750","0.0-52.0","battery-v0.2","","""event"",""trial"",""time""
""fullscreenenter"",""1"",""2437""
""blur"",""7"",""28811""
""focus"",""7"",""33469""
","""event"",""trial"",""time""
""blur"",""7"",""28811""
","""event"",""trial"",""time""
""focus"",""7"",""33469""
","""event"",""trial"",""time""
""fullscreenenter"",""1"",""2437""
","
","","","-1","","","10","3756","1462","m","elianto","#f73b6a7A","-1","-1","1","0","[]","0","2","","","3756","48","0","4","lose","no-go","0"
"pit-trial","170","1086187","0.0-53.0","battery-v0.2","","""event"",""trial"",""time""
""fullscreenenter"",""1"",""2437""
""blur"",""7"",""28811""
""focus"",""7"",""33469""
","""event"",""trial"",""time""
""blur"",""7"",""28811""
","""event"",""trial"",""time""
""focus"",""7"",""33469""
","""event"",""trial"",""time""
""fullscreenenter"",""1"",""2437""
","
","","","564.0999999998603","","","10","3756","1462","z","elianto","#3366ff99","-1"," ","0","0","[1415.7000000001863]","1","2","","","3756","49","4","2","win","no-go","0"
"pit-trial","171","1091049","0.0-54.0","battery-v0.2","","""event"",""trial"",""time""
""fullscreenenter"",""1"",""2437""
""blur"",""7"",""28811""
""focus"",""7"",""33469""
","""event"",""trial"",""time""
""blur"",""7"",""28811""
","""event"",""trial"",""time""
""focus"",""7"",""33469""
","""event"",""trial"",""time""
""fullscreenenter"",""1"",""2437""
","
","","","-1","","","10","3756","1462","m","elianto","#f73b6a7A","-1","-1","1","0","[]","0","2","","","3756","50","0","4","lose","no-go","0"
"pit-trial","172","1094434","0.0-55.0","battery-v0.2","","""event"",""trial"",""time""
""fullscreenenter"",""1"",""2437""
""blur"",""7"",""28811""
""focus"",""7"",""33469""
","""event"",""trial"",""time""
""blur"",""7"",""28811""
","""event"",""trial"",""time""
""focus"",""7"",""33469""
","""event"",""trial"",""time""
""fullscreenenter"",""1"",""2437""
","
","","","510.4000000001397","","","10","3756","1462","h","elianto","#f73b6a7A"," "," ","1","-10","[1368.6999999999534]","1","2","","","3756","51","3","3","lose","go","1"
"pit-trial","173","1098930","0.0-56.0","battery-v0.2","","""event"",""trial"",""time""
""fullscreenenter"",""1"",""2437""
""blur"",""7"",""28811""
""focus"",""7"",""33469""
","""event"",""trial"",""time""
""blur"",""7"",""28811""
","""event"",""trial"",""time""
""focus"",""7"",""33469""
","""event"",""trial"",""time""
""fullscreenenter"",""1"",""2437""
","
","","","1629.4000000001397","","","10","3756","1462","r","elianto","#3366ff99"," "," ","1","+10","[2485.0999999998603]","1","2","","","3756","52","1","1","win","go","0"
"pit-trial","174","1103801","0.0-57.0","battery-v0.2","","""event"",""trial"",""time""
""fullscreenenter"",""1"",""2437""
""blur"",""7"",""28811""
""focus"",""7"",""33469""
","""event"",""trial"",""time""
""blur"",""7"",""28811""
","""event"",""trial"",""time""
""focus"",""7"",""33469""
","""event"",""trial"",""time""
""fullscreenenter"",""1"",""2437""
","
","","","-1","","","10","3756","1462","m","elianto","#f73b6a7A","-1","-1","1","0","[]","0","2","","","3756","53","0","4","lose","no-go","0"
"pit-trial","175","1108666","0.0-58.0","battery-v0.2","","""event"",""trial"",""time""
""fullscreenenter"",""1"",""2437""
""blur"",""7"",""28811""
""focus"",""7"",""33469""
","""event"",""trial"",""time""
""blur"",""7"",""28811""
","""event"",""trial"",""time""
""focus"",""7"",""33469""
","""event"",""trial"",""time""
""fullscreenenter"",""1"",""2437""
","
","","","-1","","","10","3756","1462","y","elianto","#f73b6a7A","-1","-1","1","0","[]","0","2","","","3756","54","2","4","lose","no-go","0"
"pit-trial","176","1112526","0.0-59.0","battery-v0.2","","""event"",""trial"",""time""
""fullscreenenter"",""1"",""2437""
""blur"",""7"",""28811""
""focus"",""7"",""33469""
","""event"",""trial"",""time""
""blur"",""7"",""28811""
","""event"",""trial"",""time""
""focus"",""7"",""33469""
","""event"",""trial"",""time""
""fullscreenenter"",""1"",""2437""
","
","","","991.0999999998603","","","10","3756","1462","z","elianto","#3366ff99","-1"," ","0","+10","[1847.2999999998137]","1","2","","","3756","55","4","2","win","no-go","1"
"pit-trial","177","1115945","0.0-60.0","battery-v0.2","","""event"",""trial"",""time""
""fullscreenenter"",""1"",""2437""
""blur"",""7"",""28811""
""focus"",""7"",""33469""
","""event"",""trial"",""time""
""blur"",""7"",""28811""
","""event"",""trial"",""time""
""focus"",""7"",""33469""
","""event"",""trial"",""time""
""fullscreenenter"",""1"",""2437""
","
","","","556.6000000000931","","","10","3756","1462","r","elianto","#3366ff99"," "," ","1","+10","[1411.8000000000466]","1","2","","","3756","56","1","1","win","go","0"
"pit-trial","178","1119353","0.0-61.0","battery-v0.2","","""event"",""trial"",""time""
""fullscreenenter"",""1"",""2437""
""blur"",""7"",""28811""
""focus"",""7"",""33469""
","""event"",""trial"",""time""
""blur"",""7"",""28811""
","""event"",""trial"",""time""
""focus"",""7"",""33469""
","""event"",""trial"",""time""
""fullscreenenter"",""1"",""2437""
","
","","","538.2999999998137","","","10","3756","1462","h","elianto","#f73b6a7A"," "," ","1","-10","[1389.5]","1","2","","","3756","57","3","3","lose","go","1"
"pit-trial","179","1123060","0.0-62.0","battery-v0.2","","""event"",""trial"",""time""
""fullscreenenter"",""1"",""2437""
""blur"",""7"",""28811""
""focus"",""7"",""33469""
","""event"",""trial"",""time""
""blur"",""7"",""28811""
","""event"",""trial"",""time""
""focus"",""7"",""33469""
","""event"",""trial"",""time""
""fullscreenenter"",""1"",""2437""
","
","","","834","","","10","3756","1462","z","elianto","#3366ff99","-1"," ","0","0","[1692.8000000000466]","1","2","","","3756","58","4","2","win","no-go","0"
"pit-trial","180","1126516","0.0-63.0","battery-v0.2","","""event"",""trial"",""time""
""fullscreenenter"",""1"",""2437""
""blur"",""7"",""28811""
""focus"",""7"",""33469""
","""event"",""trial"",""time""
""blur"",""7"",""28811""
","""event"",""trial"",""time""
""focus"",""7"",""33469""
","""event"",""trial"",""time""
""fullscreenenter"",""1"",""2437""
","
","","","589.5","","","10","3756","1462","r","elianto","#3366ff99"," "," ","1","+10","[1444.6999999999534]","1","2","","","3756","59","1","1","win","go","0"
"pit-trial","181","1131389","0.0-64.0","battery-v0.2","","""event"",""trial"",""time""
""fullscreenenter"",""1"",""2437""
""blur"",""7"",""28811""
""focus"",""7"",""33469""
","""event"",""trial"",""time""
""blur"",""7"",""28811""
","""event"",""trial"",""time""
""focus"",""7"",""33469""
","""event"",""trial"",""time""
""fullscreenenter"",""1"",""2437""
","
","","","-1","","","10","3756","1462","m","elianto","#f73b6a7A","-1","-1","1","0","[]","0","2","","","3756","60","0","4","lose","no-go","0"
"pit-trial","182","1136265","0.0-65.0","battery-v0.2","","""event"",""trial"",""time""
""fullscreenenter"",""1"",""2437""
""blur"",""7"",""28811""
""focus"",""7"",""33469""
","""event"",""trial"",""time""
""blur"",""7"",""28811""
","""event"",""trial"",""time""
""focus"",""7"",""33469""
","""event"",""trial"",""time""
""fullscreenenter"",""1"",""2437""
","
","","","-1","","","10","3756","1462","y","elianto","#f73b6a7A","-1","-1","1","-10","[]","0","2","","","3756","61","2","4","lose","no-go","1"
"pit-trial","183","1139681","0.0-66.0","battery-v0.2","","""event"",""trial"",""time""
""fullscreenenter"",""1"",""2437""
""blur"",""7"",""28811""
""focus"",""7"",""33469""
","""event"",""trial"",""time""
""blur"",""7"",""28811""
","""event"",""trial"",""time""
""focus"",""7"",""33469""
","""event"",""trial"",""time""
""fullscreenenter"",""1"",""2437""
","
","","","541.0999999998603","","","10","3756","1462","r","elianto","#3366ff99"," "," ","1","+10","[1398.5]","1","2","","","3756","62","1","1","win","go","0"
"pit-trial","184","1143169","0.0-67.0","battery-v0.2","","""event"",""trial"",""time""
""fullscreenenter"",""1"",""2437""
""blur"",""7"",""28811""
""focus"",""7"",""33469""
","""event"",""trial"",""time""
""blur"",""7"",""28811""
","""event"",""trial"",""time""
""focus"",""7"",""33469""
","""event"",""trial"",""time""
""fullscreenenter"",""1"",""2437""
","
","","","621.0999999998603","","","10","3756","1462","z","elianto","#3366ff99","-1"," ","0","0","[1475.1000000000931]","1","2","","","3756","63","4","2","win","no-go","0"
"pit-trial","185","1147241","0.0-68.0","battery-v0.2","","""event"",""trial"",""time""
""fullscreenenter"",""1"",""2437""
""blur"",""7"",""28811""
""focus"",""7"",""33469""
","""event"",""trial"",""time""
""blur"",""7"",""28811""
","""event"",""trial"",""time""
""focus"",""7"",""33469""
","""event"",""trial"",""time""
""fullscreenenter"",""1"",""2437""
","
","","","1197.3000000000466","","","10","3756","1462","h","elianto","#f73b6a7A"," "," ","1","0","[2055.600000000093]","1","2","","","3756","64","3","3","lose","go","0"
"pit-trial","186","1150816","0.0-69.0","battery-v0.2","","""event"",""trial"",""time""
""fullscreenenter"",""1"",""2437""
""blur"",""7"",""28811""
""focus"",""7"",""33469""
","""event"",""trial"",""time""
""blur"",""7"",""28811""
","""event"",""trial"",""time""
""focus"",""7"",""33469""
","""event"",""trial"",""time""
""fullscreenenter"",""1"",""2437""
","
