"trial_type","trial_index","time_elapsed","internal_node_id","task_version","success","view_history","rt","responses","num_errors","age","subject","participantId","rune","rune_set","hex","correct","choice","accuracy","outcome","keys","total_keys","block","practice","value","sub","trial","stimulus","robot","valence","action","sham","browser_interactions"
"pavlovia","0","26","0.0-0.0","battery-v0.2","","","","","","","","","","","","","","","","","","","","","","","","","","","",""
"fullscreen","1","3563","0.0-1.0","battery-v0.2","true","","","","","","","","","","","","","","","","","","","","","","","","","","",""
"pit-instructions","2","8650","0.0-2.0-0.0","battery-v0.2","","[{""page_index"":0,""viewing_time"":5076.199999999255}]","5078","","","","","","","","","","","","","","","","","","","","","","","","",""
"pit-comprehension","3","12728","0.0-2.0-1.0-0.0","battery-v0.2","","","4069.5","[""shark""]","0","18","1050","1250","","","","","","","","","","","","","","","","","","","",""
"pit-instructions","4","14215","0.0-2.0-1.0-1.0","battery-v0.2","","[{""page_index"":0,""viewing_time"":1452.7999999988824}]","1453.4000000003725","","","","","","","","","","","","","","","","","","","","","","","","",""
"pit-comprehension","5","18882","0.0-2.0-2.0-0.0","battery-v0.2","","","4647.9000000003725","[""tiger""]","0","18","1050","1250","","","","","","","","","","","","","","","","","","","",""
"pit-instructions","6","20276","0.0-2.0-2.0-1.0","battery-v0.2","","[{""page_index"":0,""viewing_time"":1386.5}]","1387.5","","","","","","","","","","","","","","","","","","","","","","","","",""
"pit-instructions","7","415606","0.0-2.0-3.0","battery-v0.2","","[{""page_index"":0,""viewing_time"":10892.599999999627},{""page_index"":1,""viewing_time"":7630.5999999996275},{""page_index"":2,""viewing_time"":8206.800000000745},{""page_index"":3,""viewing_time"":6042.299999998882},{""page_index"":4,""viewing_time"":22555.700000001118},{""page_index"":5,""viewing_time"":33338.09999999963},{""page_index"":6,""viewing_time"":8258.699999999255},{""page_index"":7,""viewing_time"":26860},{""page_index"":8,""viewing_time"":52970.90000000037},{""page_index"":9,""viewing_time"":10608.900000000373},{""page_index"":10,""viewing_time"":2118},{""page_index"":9,""viewing_time"":8642.799999998882},{""page_index"":10,""viewing_time"":174627.30000000075},{""page_index"":11,""viewing_time"":9789.199999999255},{""page_index"":12,""viewing_time"":6552.700000001118},{""page_index"":13,""viewing_time"":6227}]","395323.2999999989","","","","","","","","","","","","","","","","","","","","","","","","",""
"pit-trial","8","418992","0.0-2.0-4.0-0.0","battery-v0.2","","","529.1999999992549","","","18","1050","1250","&#9784;","elianto","#FFFFF080"," "," ","1","&#10004","[1379.0999999996275]","1","0","0","","","","","","","","",""
"pit-trial","9","422389","0.0-2.0-4.1-0.1","battery-v0.2","","","537.5999999996275","","","18","1050","1250","&#9784;","elianto","#FFFFF080"," "," ","1","&#10004","[1387.9000000003725]","1","0","0","","","","","","","","",""
"pit-trial","10","425634","0.0-2.0-4.2-0.2","battery-v0.2","","","388.59999999962747","","","18","1050","1250","&#9784;","elianto","#FFFFF080"," "," ","1","&#10004","[1238.800000000745]","1","0","0","","","","","","","","",""
"pit-trial","11","428840","0.0-2.0-4.3-0.3","battery-v0.2","","","347.8999999985099","","","18","1050","1250","&#9784;","elianto","#FFFFF080"," "," ","1","&#10004","[1198.0999999996275]","1","0","0","","","","","","","","",""
"pit-trial","12","432068","0.0-2.0-4.4-0.4","battery-v0.2","","","371.59999999962747","","","18","1050","1250","&#9784;","elianto","#FFFFF080"," "," ","1","&#10004","[1221.7999999988824]","1","0","0","","","","","","","","",""
"pit-instructions","13","495053","0.0-2.0-5.0","battery-v0.2","","[{""page_index"":0,""viewing_time"":27935.900000000373},{""page_index"":1,""viewing_time"":12704.400000000373},{""page_index"":2,""viewing_time"":9155.699999999255},{""page_index"":3,""viewing_time"":13179.900000000373}]","62977.20000000112","","","","","","","","","","","","","","","","","","","","","","","","",""
"pit-trial","14","499909","0.0-2.0-6.0-0.0","battery-v0.2","","","-1","","","18","1050","1250","&#9854;","elianto","#FFFFF080","-1","-1","1","&#10004","[]","0","0","1","","","","","","","","",""
"pit-trial","15","504767","0.0-2.0-6.1-0.1","battery-v0.2","","","-1","","","18","1050","1250","&#9854;","elianto","#FFFFF080","-1","-1","1","&#10004","[]","0","0","1","","","","","","","","",""
"pit-trial","16","509626","0.0-2.0-6.2-0.2","battery-v0.2","","","-1","","","18","1050","1250","&#9854;","elianto","#FFFFF080","-1","-1","1","&#10004","[]","0","0","1","","","","","","","","",""
"pit-trial","17","514482","0.0-2.0-6.3-0.3","battery-v0.2","","","-1","","","18","1050","1250","&#9854;","elianto","#FFFFF080","-1","-1","1","&#10004","[]","0","0","1","","","","","","","","",""
"pit-trial","18","519339","0.0-2.0-6.4-0.4","battery-v0.2","","","-1","","","18","1050","1250","&#9854;","elianto","#FFFFF080","-1","-1","1","&#10004","[]","0","0","1","","","","","","","","",""
"pit-instructions","19","880277","0.0-2.0-7.0","battery-v0.2","","[{""page_index"":0,""viewing_time"":6936.60000000149},{""page_index"":1,""viewing_time"":16247.599999999627},{""page_index"":2,""viewing_time"":50077.59999999963},{""page_index"":3,""viewing_time"":7556.800000000745},{""page_index"":4,""viewing_time"":80249.5},{""page_index"":5,""viewing_time"":8121.0999999996275},{""page_index"":6,""viewing_time"":13378.799999998882},{""page_index"":7,""viewing_time"":8867},{""page_index"":8,""viewing_time"":99705.90000000037},{""page_index"":9,""viewing_time"":6433.800000000745},{""page_index"":10,""viewing_time"":7025.9000000003725},{""page_index"":11,""viewing_time"":5791.39999999851},{""page_index"":12,""viewing_time"":7526.200000001118},{""page_index"":13,""viewing_time"":9768.900000000373},{""page_index"":14,""viewing_time"":9478.299999998882},{""page_index"":15,""viewing_time"":7188.9000000003725},{""page_index"":16,""viewing_time"":6870.5},{""page_index"":17,""viewing_time"":9704.800000000745}]","360930.80000000075","","","","","","","","","","","","","","","","","","","","","","","","",""
"pit-trial","20","883434","0.0-2.0-8.0-0.0","battery-v0.2","","","302.2999999988824","","","18","1050","1250","&#9776;","elianto","#3366ff99"," "," ","1","+10","[1152.4000000003725]","1","0","1","","","","","","","","",""
"pit-trial","21","888291","0.0-2.0-8.0-1.0","battery-v0.2","","","-1","","","18","1050","1250","&#9776;","elianto","#3366ff99"," ","-1","0","0","[]","0","0","1","","","","","","","","",""
"pit-trial","22","891563","0.0-2.0-8.0-2.0","battery-v0.2","","","417.80000000074506","","","18","1050","1250","&#9776;","elianto","#3366ff99"," "," ","1","+10","[1267.800000000745]","1","0","1","","","","","","","","",""
"pit-trial","23","894892","0.0-2.0-8.0-3.0","battery-v0.2","","","471.40000000037253","","","18","1050","1250","&#9776;","elianto","#3366ff99"," "," ","1","0","[1321.5]","1","0","1","","","","","","","","",""
"pit-trial","24","898167","0.0-2.0-8.0-4.0","battery-v0.2","","","419.19999999925494","","","18","1050","1250","&#9776;","elianto","#3366ff99"," "," ","1","+10","[1269.5999999996275]","1","0","1","","","","","","","","",""
"pit-trial","25","901685","0.0-2.0-8.1-0.1","battery-v0.2","","","659.4000000003725","","","18","1050","1250","&#9776;","elianto","#3366ff99"," "," ","1","+10","[1511]","1","0","1","","","","","","","","",""
"pit-trial","26","905123","0.0-2.0-8.1-1.1","battery-v0.2","","","582.5999999996275","","","18","1050","1250","&#9776;","elianto","#3366ff99"," "," ","1","+10","[1432.5999999996275]","1","0","1","","","","","","","","",""
"pit-trial","27","908754","0.0-2.0-8.1-2.1","battery-v0.2","","","775.6000000014901","","","18","1050","1250","&#9776;","elianto","#3366ff99"," "," ","1","+10","[1625.699999999255]","1","0","1","","","","","","","","",""
"pit-trial","28","912127","0.0-2.0-8.1-3.1","battery-v0.2","","","512.8999999985099","","","18","1050","1250","&#9776;","elianto","#3366ff99"," "," ","1","0","[1367.5]","1","0","1","","","","","","","","",""
"pit-trial","29","915624","0.0-2.0-8.1-4.1","battery-v0.2","","","642.0999999996275","","","18","1050","1250","&#9776;","elianto","#3366ff99"," "," ","1","+10","[1492.2999999988824]","1","0","1","","","","","","","","",""
"call-function","30","915627","0.0-2.0-9.0","battery-v0.2","","","","","","","","","","","","","","","","","","","","","","","","","","","",""
"pit-instructions","31","1113206","0.0-2.0-10.0","battery-v0.2","","[{""page_index"":0,""viewing_time"":140302.09999999963},{""page_index"":1,""viewing_time"":29815},{""page_index"":2,""viewing_time"":9756.900000000373},{""page_index"":3,""viewing_time"":9044.099999999627},{""page_index"":4,""viewing_time"":8658.200000001118}]","197577.59999999963","","","","","","","","","","","","","","","","","","","","","","","","",""
"pit-trial","32","1116473","0.0-2.0-11.0-0.0","battery-v0.2","","","410.40000000037253","","","18","1050","1250","&#9761;","elianto","#3366ff99","-1"," ","0","0","[1261.199999999255]","1","0","2","","","","","","","","",""
"pit-trial","33","1119729","0.0-2.0-11.0-1.0","battery-v0.2","","","400.40000000037253","","","18","1050","1250","&#9761;","elianto","#3366ff99","-1"," ","0","0","[1250.7000000011176]","1","0","2","","","","","","","","",""
"pit-trial","34","1124584","0.0-2.0-11.0-2.0","battery-v0.2","","","-1","","","18","1050","1250","&#9761;","elianto","#3366ff99","-1","-1","1","+10","[]","0","0","2","","","","","","","","",""
"pit-trial","35","1129441","0.0-2.0-11.0-3.0","battery-v0.2","","","-1","","","18","1050","1250","&#9761;","elianto","#3366ff99","-1","-1","1","0","[]","0","0","2","","","","","","","","",""
"pit-trial","36","1132670","0.0-2.0-11.0-4.0","battery-v0.2","","","373","","","18","1050","1250","&#9761;","elianto","#3366ff99","-1"," ","0","0","[1223]","1","0","2","","","","","","","","",""
"pit-trial","37","1137528","0.0-2.0-11.1-0.1","battery-v0.2","","","-1","","","18","1050","1250","&#9761;","elianto","#3366ff99","-1","-1","1","+10","[]","0","0","2","","","","","","","","",""
"pit-trial","38","1142385","0.0-2.0-11.1-1.1","battery-v0.2","","","-1","","","18","1050","1250","&#9761;","elianto","#3366ff99","-1","-1","1","+10","[]","0","0","2","","","","","","","","",""
"pit-trial","39","1147241","0.0-2.0-11.1-2.1","battery-v0.2","","","-1","","","18","1050","1250","&#9761;","elianto","#3366ff99","-1","-1","1","+10","[]","0","0","2","","","","","","","","",""
"pit-trial","40","1152096","0.0-2.0-11.1-3.1","battery-v0.2","","","-1","","","18","1050","1250","&#9761;","elianto","#3366ff99","-1","-1","1","0","[]","0","0","2","","","","","","","","",""
"pit-trial","41","1156951","0.0-2.0-11.1-4.1","battery-v0.2","","","-1","","","18","1050","1250","&#9761;","elianto","#3366ff99","-1","-1","1","+10","[]","0","0","2","","","","","","","","",""
"call-function","42","1156955","0.0-2.0-12.0","battery-v0.2","","","","","","","","","","","","","","","","","","","","","","","","","","","",""
"pit-instructions","43","1387280","0.0-2.0-13.0","battery-v0.2","","[{""page_index"":0,""viewing_time"":63932.79999999888},{""page_index"":1,""viewing_time"":10966.700000001118},{""page_index"":2,""viewing_time"":137079.5},{""page_index"":3,""viewing_time"":11563.299999998882},{""page_index"":4,""viewing_time"":6779.300000000745}]","230323.19999999925","","","","","","","","","","","","","","","","","","","","","","","","",""
"pit-trial","44","1390636","0.0-2.0-14.0-0.0","battery-v0.2","","","500.59999999962747","","","18","1050","1250","&#9826;","elianto","#f73b6a7A","-1"," ","0","-10","[1350.7000000011176]","1","0","3","","","","","","","","",""
"pit-trial","45","1395491","0.0-2.0-14.0-1.0","battery-v0.2","","","-1","","","18","1050","1250","&#9826;","elianto","#f73b6a7A","-1","-1","1","0","[]","0","0","3","","","","","","","","",""
"pit-trial","46","1400347","0.0-2.0-14.0-2.0","battery-v0.2","","","-1","","","18","1050","1250","&#9826;","elianto","#f73b6a7A","-1","-1","1","0","[]","0","0","3","","","","","","","","",""
"pit-trial","47","1405202","0.0-2.0-14.0-3.0","battery-v0.2","","","-1","","","18","1050","1250","&#9826;","elianto","#f73b6a7A","-1","-1","1","-10","[]","0","0","3","","","","","","","","",""
"pit-trial","48","1410058","0.0-2.0-14.0-4.0","battery-v0.2","","","-1","","","18","1050","1250","&#9826;","elianto","#f73b6a7A","-1","-1","1","0","[]","0","0","3","","","","","","","","",""
"call-function","49","1410062","0.0-2.0-15.0","battery-v0.2","","","","","","","","","","","","","","","","","","","","","","","","","","","",""
"pit-instructions","50","1543809","0.0-2.0-16.0","battery-v0.2","","[{""page_index"":0,""viewing_time"":14575.099999999627},{""page_index"":1,""viewing_time"":31538.5},{""page_index"":2,""viewing_time"":80582.90000000037},{""page_index"":3,""viewing_time"":7047.4000000003725}]","133745.59999999963","","","","","","","","","","","","","","","","","","","","","","","","",""
"pit-trial","51","1546950","0.0-2.0-17.0-0.0","battery-v0.2","","","286.2000000011176","","","18","1050","1250","&#9789;","elianto","#f73b6a7A"," "," ","1","0","[1136.4000000003725]","1","0","4","","","","","","","","",""
"pit-trial","52","1550028","0.0-2.0-17.0-1.0","battery-v0.2","","","222.09999999962747","","","18","1050","1250","&#9789;","elianto","#f73b6a7A"," "," ","1","0","[1072.199999999255]","1","0","4","","","","","","","","",""
"pit-trial","53","1553054","0.0-2.0-17.0-2.0","battery-v0.2","","","171.5","","","18","1050","1250","&#9789;","elianto","#f73b6a7A"," "," ","1","0","[1021.6999999992549]","1","0","4","","","","","","","","",""
"pit-trial","54","1556016","0.0-2.0-17.0-3.0","battery-v0.2","","","102.5","","","18","1050","1250","&#9789;","elianto","#f73b6a7A"," "," ","1","-10","[955.8000000007451]","1","0","4","","","","","","","","",""
"pit-trial","55","1559844","0.0-2.0-17.0-4.0","battery-v0.2","","","968.4000000003725","","","18","1050","1250","&#9789;","elianto","#f73b6a7A"," "," ","1","0","[1823.0999999996275]","1","0","4","","","","","","","","",""
"call-function","56","1559849","0.0-2.0-18.0","battery-v0.2","","","","","","","","","","","","","","","","","","","","","","","","","","","",""
"pit-instructions","57","1708340","0.0-2.0-19.0","battery-v0.2","","[{""page_index"":0,""viewing_time"":18266.60000000149},{""page_index"":1,""viewing_time"":8413.699999999255},{""page_index"":2,""viewing_time"":57311.40000000037},{""page_index"":3,""viewing_time"":25819.099999999627},{""page_index"":4,""viewing_time"":8784.800000000745},{""page_index"":5,""viewing_time"":8647.299999998882},{""page_index"":6,""viewing_time"":10119.900000000373},{""page_index"":7,""viewing_time"":6481.800000000745},{""page_index"":8,""viewing_time"":4643.799999998882}]","148489.6000000015","","","","","","","","","","","","","","","","","","","","","","","","",""
"pit-comprehension","58","1713507","0.0-2.0-20.0-0.0","battery-v0.2","","","5158.700000001118","[""SPACE""]","0","18","1050","1250","","","","","","","","","","","","","","","","","","","",""
"pit-instructions","59","1721236","0.0-2.0-20.0-1.0","battery-v0.2","","[{""page_index"":0,""viewing_time"":7707.4000000003725}]","7709","","","","","","","","","","","","","","","","","","","","","","","","",""
"pit-comprehension","60","1727266","0.0-2.0-21.0-0.0","battery-v0.2","","","6019.4000000003725","[""10""]","0","18","1050","1250","","","","","","","","","","","","","","","","","","","",""
"pit-instructions","61","1730410","0.0-2.0-21.0-1.0","battery-v0.2","","[{""page_index"":0,""viewing_time"":3122.300000000745}]","3123.4000000003725","","","","","","","","","","","","","","","","","","","","","","","","",""
"pit-comprehension","62","1737854","0.0-2.0-22.0-0.0","battery-v0.2","","","7433.5","[""0""]","0","18","1050","1250","","","","","","","","","","","","","","","","","","","",""
"pit-instructions","63","1740455","0.0-2.0-22.0-1.0","battery-v0.2","","[{""page_index"":0,""viewing_time"":2574.0999999996275}]","2575.699999999255","","","","","","","","","","","","","","","","","","","","","","","","",""
"pit-comprehension","64","1755056","0.0-2.0-23.0-0.0","battery-v0.2","","","14591.900000000373","[""True""]","0","18","1050","1250","","","","","","","","","","","","","","","","","","","",""
"pit-instructions","65","1758924","0.0-2.0-23.0-1.0","battery-v0.2","","[{""page_index"":0,""viewing_time"":3844.7000000011176}]","3846","","","","","","","","","","","","","","","","","","","","","","","","",""
"pit-comprehension","66","1768527","0.0-2.0-24.0-0.0","battery-v0.2","","","9593.599999999627","[""True""]","0","18","1050","1250","","","","","","","","","","","","","","","","","","","",""
"pit-instructions","67","1773643","0.0-2.0-24.0-1.0","battery-v0.2","","[{""page_index"":0,""viewing_time"":5093.89999999851}]","5095.199999999255","","","","","","","","","","","","","","","","","","","","","","","","",""
"pit-comprehension","68","1805800","0.0-2.0-25.0-0.0","battery-v0.2","","","32146.400000000373","[""True""]","0","18","1050","1250","","","","","","","","","","","","","","","","","","","",""
"pit-instructions","69","1809871","0.0-2.0-25.0-1.0","battery-v0.2","","[{""page_index"":0,""viewing_time"":4046.5999999996275}]","4048.0999999996275","","","","","","","","","","","","","","","","","","","","","","","","",""
"pit-comprehension","70","1816097","0.0-2.0-26.0-0.0","battery-v0.2","","","6216.4000000003725","[""False""]","0","18","1050","1250","","","","","","","","","","","","","","","","","","","",""
"pit-instructions","71","1839641","0.0-2.0-26.0-1.0","battery-v0.2","","[{""page_index"":0,""viewing_time"":23520.699999999255}]","23521.699999999255","","","","","","","","","","","","","","","","","","","","","","","","",""
"pit-instructions","72","1895103","0.0-3.0","battery-v0.2","","[{""page_index"":0,""viewing_time"":8959.5},{""page_index"":1,""viewing_time"":34299.40000000037},{""page_index"":2,""viewing_time"":12196.800000000745}]","55456.800000000745","","","","","","","","","","","","","","","","","","","","","","","","",""
"pit-trial","73","1899273","0.0-4.0","battery-v0.2","","","1311.6000000014901","","","18","1050","1250","&#9728;","elianto","#f73b6a7A","-1"," ","0","-10","[2161.89999999851]","1","1","","","1050","1","0","4","lose","no-go","0","[]"
"pit-trial","74","1903161","0.0-5.0","battery-v0.2","","","1032.199999999255","","","18","1050","1250","&#9733;","elianto","#3366ff99","-1"," ","0","0","[1882.2999999988824]","1","1","","","1050","2","2","2","win","no-go","0","0"
"pit-trial","75","1907532","0.0-6.0","battery-v0.2","","","1514.5999999996275","","","18","1050","1250","&#9752;","elianto","#f73b6a7A"," "," ","1","0","[2365.800000000745]","1","1","","","1050","3","3","3","lose","go","0","0"
"pit-trial","76","1911254","0.0-7.0","battery-v0.2","","","866.2999999988824","","","18","1050","1250","&#9730;","elianto","#3366ff99"," "," ","1","+10","[1716.5999999996275]","1","1","","","1050","4","1","1","win","go","0","0"
"pit-trial","77","1915321","0.0-8.0","battery-v0.2","","","1211.5","","","18","1050","1250","&#9752;","elianto","#f73b6a7A"," "," ","1","0","[2062]","1","1","","","1050","5","3","3","lose","go","0","0"
"pit-trial","78","1920176","0.0-9.0","battery-v0.2","","","-1","","","18","1050","1250","&#9733;","elianto","#3366ff99","-1","-1","1","+10","[]","0","1","","","1050","6","2","2","win","no-go","0","0"
"pit-trial","79","1924079","0.0-10.0","battery-v0.2","","","1047.1000000014901","","","18","1050","1250","&#9730;","elianto","#3366ff99"," "," ","1","+10","[1897.199999999255]","1","1","","","1050","7","1","1","win","go","0","0"
"pit-trial","80","1928934","0.0-11.0","battery-v0.2","","","-1","","","18","1050","1250","&#9728;","elianto","#f73b6a7A","-1","-1","1","-10","[]","0","1","","","1050","8","0","4","lose","no-go","1","0"
"pit-trial","81","1933790","0.0-12.0","battery-v0.2","","","-1","","","18","1050","1250","&#9728;","elianto","#f73b6a7A","-1","-1","1","0","[]","0","1","","","1050","9","0","4","lose","no-go","0","0"
"pit-trial","82","1937387","0.0-13.0","battery-v0.2","","","741.3000000007451","","","18","1050","1250","&#9730;","elianto","#3366ff99"," "," ","1","+10","[1591.5999999996275]","1","1","","","1050","10","1","1","win","go","0","0"
"pit-trial","83","1941114","0.0-14.0","battery-v0.2","","","871.1999999992549","","","18","1050","1250","&#9752;","elianto","#f73b6a7A"," "," ","1","0","[1721.5999999996275]","1","1","","","1050","11","3","3","lose","go","0","0"
"pit-trial","84","1945970","0.0-15.0","battery-v0.2","","","-1","","","18","1050","1250","&#9733;","elianto","#3366ff99","-1","-1","1","0","[]","0","1","","","1050","12","2","2","win","no-go","1","0"
"pit-trial","85","1950826","0.0-16.0","battery-v0.2","","","-1","","","18","1050","1250","&#9733;","elianto","#3366ff99","-1","-1","1","0","[]","0","1","","","1050","13","2","2","win","no-go","1","0"
"pit-trial","86","1955683","0.0-17.0","battery-v0.2","","","-1","","","18","1050","1250","&#9728;","elianto","#f73b6a7A","-1","-1","1","0","[]","0","1","","","1050","14","0","4","lose","no-go","0","0"
"pit-trial","87","1959509","0.0-18.0","battery-v0.2","","","970","","","18","1050","1250","&#9730;","elianto","#3366ff99"," "," ","1","0","[1820.4000000003725]","1","1","","","1050","15","1","1","win","go","1","0"
"pit-trial","88","1963482","0.0-19.0","battery-v0.2","","","1117.800000000745","","","18","1050","1250","&#9752;","elianto","#f73b6a7A"," "," ","1","-10","[1968]","1","1","","","1050","16","3","3","lose","go","1","0"
"pit-trial","89","1967149","0.0-20.0","battery-v0.2","","","809.2000000011176","","","18","1050","1250","&#9733;","elianto","#3366ff99","-1"," ","0","+10","[1659.5999999996275]","1","1","","","1050","17","2","2","win","no-go","1","0"
"pit-trial","90","1971055","0.0-21.0","battery-v0.2","","","1050.2999999988824","","","18","1050","1250","&#9752;","elianto","#f73b6a7A"," "," ","1","0","[1900.4000000003725]","1","1","","","1050","18","3","3","lose","go","0","0"
"pit-trial","91","1974742","0.0-22.0","battery-v0.2","","","830.0999999996275","","","18","1050","1250","&#9730;","elianto","#3366ff99"," "," ","1","+10","[1680.5]","1","1","","","1050","19","1","1","win","go","0","0"
"pit-trial","92","1979598","0.0-23.0","battery-v0.2","","","-1","","","18","1050","1250","&#9728;","elianto","#f73b6a7A","-1","-1","1","-10","[]","0","1","","","1050","20","0","4","lose","no-go","1","0"
"pit-instructions","93","2097231","0.0-24.0","battery-v0.2","","[{""page_index"":0,""viewing_time"":22814},{""page_index"":1,""viewing_time"":94813.59999999963}]","117629.19999999925","","","","","","","","","","","","","","","","","","","","","","","","",""
"pit-trial","94","2102090","0.0-25.0","battery-v0.2","","","-1","","","18","1050","1250","n","elianto","#f73b6a7A"," ","-1","0","-10","[]","0","2","","","1050","21","1","3","lose","go","0","0"
"pit-trial","95","2105665","0.0-26.0","battery-v0.2","","","719.5","","","18","1050","1250","q","elianto","#3366ff99","-1"," ","0","0","[1569.5]","1","2","","","1050","22","0","2","win","no-go","0","0"
"pit-trial","96","2109142","0.0-27.0","battery-v0.2","","","621.8999999985099","","","18","1050","1250","x","elianto","#3366ff99"," "," ","1","0","[1472.2999999988824]","1","2","","","1050","23","3","1","win","go","1","0"
"pit-trial","97","2113228","0.0-28.0","battery-v0.2","","","1231.0999999996275","","","18","1050","1250","f","elianto","#f73b6a7A","-1"," ","0","-10","[2081.199999999255]","1","2","","","1050","24","2","4","lose","no-go","0","0"
"pit-trial","98","2118083","0.0-29.0","battery-v0.2","","","-1","","","18","1050","1250","n","elianto","#f73b6a7A"," ","-1","0","-10","[]","0","2","","","1050","25","1","3","lose","go","0","0"
"pit-trial","99","2121681","0.0-30.0","battery-v0.2","","","742.5","","","18","1050","1250","x","elianto","#3366ff99"," "," ","1","+10","[1592.5]","1","2","","","1050","26","3","1","win","go","0","0"
"pit-trial","100","2126536","0.0-31.0","battery-v0.2","","","-1","","","18","1050","1250","f","elianto","#f73b6a7A","-1","-1","1","0","[]","0","2","","","1050","27","2","4","lose","no-go","0","0"
"pit-trial","101","2130007","0.0-32.0","battery-v0.2","","","610.8999999985099","","","18","1050","1250","q","elianto","#3366ff99","-1"," ","0","0","[1461.8999999985099]","1","2","","","1050","28","0","2","win","no-go","0","0"
"pit-trial","102","2134453","0.0-33.0","battery-v0.2","","","1590.5","","","18","1050","1250","q","elianto","#3366ff99","-1"," ","0","0","[2440.9000000003725]","1","2","","","1050","29","0","2","win","no-go","0","0"
"pit-trial","103","2139308","0.0-34.0","battery-v0.2","","","-1","","","18","1050","1250","f","elianto","#f73b6a7A","-1","-1","1","0","[]","0","2","","","1050","30","2","4","lose","no-go","0","0"
"pit-trial","104","2143478","0.0-35.0","battery-v0.2","","","1310.6000000014901","","","18","1050","1250","n","elianto","#f73b6a7A"," "," ","1","0","[2163.5]","1","2","","","1050","31","1","3","lose","go","0","0"
"pit-trial","105","2148049","0.0-36.0","battery-v0.2","","","1715.1000000014901","","","18","1050","1250","x","elianto","#3366ff99"," "," ","1","0","[2565.300000000745]","1","2","","","1050","32","3","1","win","go","1","0"
"pit-trial","106","2152667","0.0-37.0","battery-v0.2","","","1757.300000000745","","","18","1050","1250","f","elianto","#f73b6a7A","-1"," ","0","-10","[2611.39999999851]","1","2","","","1050","33","2","4","lose","no-go","0","0"
"pit-trial","107","2156276","0.0-38.0","battery-v0.2","","","754.5","","","18","1050","1250","x","elianto","#3366ff99"," "," ","1","+10","[1604.699999999255]","1","2","","","1050","34","3","1","win","go","0","0"
"pit-trial","108","2160873","0.0-39.0","battery-v0.2","","","1739.6000000014901","","","18","1050","1250","n","elianto","#f73b6a7A"," "," ","1","0","[2590.9000000003725]","1","2","","","1050","35","1","3","lose","go","0","0"
"pit-trial","109","2164685","0.0-40.0","battery-v0.2","","","955.8000000007451","","","18","1050","1250","q","elianto","#3366ff99","-1"," ","0","+10","[1805.9000000003725]","1","2","","","1050","36","0","2","win","no-go","1","0"
"pit-trial","110","2169541","0.0-41.0","battery-v0.2","","","-1","","","18","1050","1250","n","elianto","#f73b6a7A"," ","-1","0","-10","[]","0","2","","","1050","37","1","3","lose","go","0","0"
"pit-trial","111","2172913","0.0-42.0","battery-v0.2","","","515.0999999996275","","","18","1050","1250","x","elianto","#3366ff99"," "," ","1","+10","[1365.2999999988824]","1","2","","","1050","38","3","1","win","go","0","0"
"pit-trial","112","2177769","0.0-43.0","battery-v0.2","","","-1","","","18","1050","1250","f","elianto","#f73b6a7A","-1","-1","1","0","[]","0","2","","","1050","39","2","4","lose","no-go","0","0"
"pit-trial","113","2181192","0.0-44.0","battery-v0.2","","","561.5","","","18","1050","1250","q","elianto","#3366ff99","-1"," ","0","+10","[1416.5]","1","2","","","1050","40","0","2","win","no-go","1","0"
"pit-trial","114","2184652","0.0-45.0","battery-v0.2","","","604.7999999988824","","","18","1050","1250","x","elianto","#3366ff99"," "," ","1","+10","[1455]","1","2","","","1050","41","3","1","win","go","0","0"
"pit-trial","115","2189509","0.0-46.0","battery-v0.2","","","-1","","","18","1050","1250","f","elianto","#f73b6a7A","-1","-1","1","-10","[]","0","2","","","1050","42","2","4","lose","no-go","1","0"
"pit-trial","116","2192930","0.0-47.0","battery-v0.2","","","560.7999999988824","","","18","1050","1250","q","elianto","#3366ff99","-1"," ","0","0","[1414.4000000003725]","1","2","","","1050","43","0","2","win","no-go","0","0"
"pit-trial","117","2197618","0.0-48.0","battery-v0.2","","","1831","","","18","1050","1250","n","elianto","#f73b6a7A"," "," ","1","0","[2681.39999999851]","1","2","","","1050","44","1","3","lose","go","0","0"
"pit-trial","118","2201234","0.0-49.0","battery-v0.2","","","758.4000000003725","","","18","1050","1250","x","elianto","#3366ff99"," "," ","1","+10","[1609.4000000003725]","1","2","","","1050","45","3","1","win","go","0","0"
"pit-trial","119","2205424","0.0-50.0","battery-v0.2","","","1333.5","","","18","1050","1250","n","elianto","#f73b6a7A"," "," ","1","0","[2183.699999999255]","1","2","","","1050","46","1","3","lose","go","0","0"
"pit-trial","120","2209024","0.0-51.0","battery-v0.2","","","737.5","","","18","1050","1250","q","elianto","#3366ff99","-1"," ","0","+10","[1593.5]","1","2","","","1050","47","0","2","win","no-go","1","0"
"pit-trial","121","2213881","0.0-52.0","battery-v0.2","","","-1","","","18","1050","1250","f","elianto","#f73b6a7A","-1","-1","1","-10","[]","0","2","","","1050","48","2","4","lose","no-go","1","0"
"pit-trial","122","2217464","0.0-53.0","battery-v0.2","","","726.6000000014901","","","18","1050","1250","n","elianto","#f73b6a7A"," "," ","1","0","[1577]","1","2","","","1050","49","1","3","lose","go","0","0"
"pit-trial","123","2220977","0.0-54.0","battery-v0.2","","","654.6999999992549","","","18","1050","1250","f","elianto","#f73b6a7A","-1"," ","0","-10","[1508.300000000745]","1","2","","","1050","50","2","4","lose","no-go","0","0"
"pit-trial","124","2224326","0.0-55.0","battery-v0.2","","","489.09999999962747","","","18","1050","1250","q","elianto","#3366ff99","-1"," ","0","0","[1343.0999999996275]","1","2","","","1050","51","0","2","win","no-go","0","0"
"pit-trial","125","2227723","0.0-56.0","battery-v0.2","","","538.8000000007451","","","18","1050","1250","x","elianto","#3366ff99"," "," ","1","0","[1391.300000000745]","1","2","","","1050","52","3","1","win","go","1","0"
"pit-trial","126","2231871","0.0-57.0","battery-v0.2","","","1291.9000000003725","","","18","1050","1250","n","elianto","#f73b6a7A"," "," ","1","0","[2143.0999999996275]","1","2","","","1050","53","1","3","lose","go","0","0"
"pit-trial","127","2236725","0.0-58.0","battery-v0.2","","","-1","","","18","1050","1250","t","elianto","#f73b6a7A"," ","-1","0","-10","[]","0","2","","","1050","54","4","3","lose","go","0","0"
"pit-trial","128","2240374","0.0-59.0","battery-v0.2","","","792.8000000007451","","","18","1050","1250","f","elianto","#f73b6a7A","-1"," ","0","0","[1643.300000000745]","1","2","","","1050","55","2","4","lose","no-go","1","0"
"pit-trial","129","2244077","0.0-60.0","battery-v0.2","","","848","","","18","1050","1250","b","elianto","#f73b6a7A","-1"," ","0","-10","[1698.3999999985099]","1","2","","","1050","56","5","4","lose","no-go","0","0"
"pit-trial","130","2247698","0.0-61.0","battery-v0.2","","","765.2000000011176","","","18","1050","1250","f","elianto","#f73b6a7A","-1"," ","0","-10","[1615.199999999255]","1","2","","","1050","57","2","4","lose","no-go","0","0"
"pit-trial","131","2251402","0.0-62.0","battery-v0.2","","","848.5","","","18","1050","1250","t","elianto","#f73b6a7A"," "," ","1","0","[1698.9000000003725]","1","2","","","1050","58","4","3","lose","go","0","0"
"pit-trial","132","2255071","0.0-63.0","battery-v0.2","","","813.1999999992549","","","18","1050","1250","n","elianto","#f73b6a7A"," "," ","1","0","[1663.1000000014901]","1","2","","","1050","59","1","3","lose","go","0","0"
"pit-trial","133","2259926","0.0-64.0","battery-v0.2","","","-1","","","18","1050","1250","b","elianto","#f73b6a7A","-1","-1","1","0","[]","0","2","","","1050","60","5","4","lose","no-go","0","0"
"pit-trial","134","2263329","0.0-65.0","battery-v0.2","","","545.9000000003725","","","18","1050","1250","c","elianto","#3366ff99","-1"," ","0","0","[1396.699999999255]","1","2","","","1050","61","6","2","win","no-go","0","0"
"pit-trial","135","2267132","0.0-66.0","battery-v0.2","","","947.9000000003725","","","18","1050","1250","f","elianto","#f73b6a7A","-1"," ","0","-10","[1798.0999999996275]","1","2","","","1050","62","2","4","lose","no-go","0","0"
"pit-trial","136","2271989","0.0-67.0","battery-v0.2","","","-1","","","18","1050","1250","t","elianto","#f73b6a7A"," ","-1","0","-10","[]","0","2","","","1050","63","4","3","lose","go","0","0"
"pit-trial","137","2275915","0.0-68.0","battery-v0.2","","","1069.0999999996275","","","18","1050","1250","b","elianto","#f73b6a7A","-1"," ","0","-10","[1919.5]","1","2","","","1050","64","5","4","lose","no-go","0","0"
"pit-trial","138","2279824","0.0-69.0","battery-v0.2","","","1053.2999999988824","","","18","1050","1250","f","elianto","#f73b6a7A","-1"," ","0","-10","[1903.699999999255]","1","2","","","1050","65","2","4","lose","no-go","0","0"
"pit-trial","139","2284680","0.0-70.0","battery-v0.2","","","-1","","","18","1050","1250","b","elianto","#f73b6a7A","-1","-1","1","0","[]","0","2","","","1050","66","5","4","lose","no-go","0","0"
"pit-trial","140","2289537","0.0-71.0","battery-v0.2","","","-1","","","18","1050","1250","t","elianto","#f73b6a7A"," ","-1","0","-10","[]","0","2","","","1050","67","4","3","lose","go","0","0"
"pit-trial","141","2292760","0.0-72.0","battery-v0.2","","","366.5","","","18","1050","1250","c","elianto","#3366ff99","-1"," ","0","0","[1216.699999999255]","1","2","","","1050","68","6","2","win","no-go","0","0"
"pit-trial","142","2296199","0.0-73.0","battery-v0.2","","","583.0999999996275","","","18","1050","1250","c","elianto","#3366ff99","-1"," ","0","0","[1433.0999999996275]","1","2","","","1050","69","6","2","win","no-go","0","0"
"pit-trial","143","2300267","0.0-74.0","battery-v0.2","","","1211.4000000003725","","","18","1050","1250","t","elianto","#f73b6a7A"," "," ","1","0","[2061.800000000745]","1","2","","","1050","70","4","3","lose","go","0","0"
"pit-trial","144","2303785","0.0-75.0","battery-v0.2","","","658.3999999985099","","","18","1050","1250","z","elianto","#3366ff99"," "," ","1","+10","[1510.5]","1","2","","","1050","71","7","1","win","go","0","0"
"pit-trial","145","2307678","0.0-76.0","battery-v0.2","","","1036.5999999996275","","","18","1050","1250","b","elianto","#f73b6a7A","-1"," ","0","0","[1886.800000000745]","1","2","","","1050","72","5","4","lose","no-go","1","0"
"pit-trial","146","2312534","0.0-77.0","battery-v0.2","","","-1","","","18","1050","1250","b","elianto","#f73b6a7A","-1","-1","1","0","[]","0","2","","","1050","73","5","4","lose","no-go","0","0"
"pit-trial","147","2315984","0.0-78.0","battery-v0.2","","","593.5999999996275","","","18","1050","1250","z","elianto","#3366ff99"," "," ","1","+10","[1443.9000000003725]","1","2","","","1050","74","7","1","win","go","0","0"
"pit-trial","148","2320049","0.0-79.0","battery-v0.2","","","1206.0999999996275","","","18","1050","1250","t","elianto","#f73b6a7A"," "," ","1","0","[2058.5999999996275]","1","2","","","1050","75","4","3","lose","go","0","0"
"pit-trial","149","2324905","0.0-80.0","battery-v0.2","","","-1","","","18","1050","1250","c","elianto","#3366ff99","-1","-1","1","+10","[]","0","2","","","1050","76","6","2","win","no-go","0","0"
"pit-trial","150","2329764","0.0-81.0","battery-v0.2","","","-1","","","18","1050","1250","c","elianto","#3366ff99","-1","-1","1","+10","[]","0","2","","","1050","77","6","2","win","no-go","0","0"
"pit-trial","151","2333524","0.0-82.0","battery-v0.2","","","903","","","18","1050","1250","b","elianto","#f73b6a7A","-1"," ","0","0","[1753.2999999988824]","1","2","","","1050","78","5","4","lose","no-go","1","0"
"pit-trial","152","2337145","0.0-83.0","battery-v0.2","","","764.5","","","18","1050","1250","t","elianto","#f73b6a7A"," "," ","1","0","[1614.800000000745]","1","2","","","1050","79","4","3","lose","go","0","0"
"pit-trial","153","2340559","0.0-84.0","battery-v0.2","","","553.7999999988824","","","18","1050","1250","z","elianto","#3366ff99"," "," ","1","+10","[1409.2999999988824]","1","2","","","1050","80","7","1","win","go","0","0"
"pit-trial","154","2344013","0.0-85.0","battery-v0.2","","","594.7999999988824","","","18","1050","1250","z","elianto","#3366ff99"," "," ","1","+10","[1448.300000000745]","1","2","","","1050","81","7","1","win","go","0","0"
"pit-trial","155","2347363","0.0-86.0","battery-v0.2","","","494.80000000074506","","","18","1050","1250","c","elianto","#3366ff99","-1"," ","0","0","[1344.9000000003725]","1","2","","","1050","82","6","2","win","no-go","0","0"
"pit-trial","156","2350912","0.0-87.0","battery-v0.2","","","694.7999999988824","","","18","1050","1250","b","elianto","#f73b6a7A","-1"," ","0","0","[1545]","1","2","","","1050","83","5","4","lose","no-go","1","0"
"pit-trial","157","2354677","0.0-88.0","battery-v0.2","","","909.7999999988824","","","18","1050","1250","t","elianto","#f73b6a7A"," "," ","1","0","[1760]","1","2","","","1050","84","4","3","lose","go","0","0"
"pit-trial","158","2359533","0.0-89.0","battery-v0.2","","","-1","","","18","1050","1250","c","elianto","#3366ff99","-1","-1","1","+10","[]","0","2","","","1050","85","6","2","win","no-go","0","0"
"pit-trial","159","2363348","0.0-90.0","battery-v0.2","","","960.0999999996275","","","18","1050","1250","t","elianto","#f73b6a7A"," "," ","1","0","[1810.4000000003725]","1","2","","","1050","86","4","3","lose","go","0","0"
"pit-trial","160","2367011","0.0-91.0","battery-v0.2","","","807.7000000011176","","","18","1050","1250","z","elianto","#3366ff99"," "," ","1","+10","[1657.7999999988824]","1","2","","","1050","87","7","1","win","go","0","0"
"pit-trial","161","2370793","0.0-92.0","battery-v0.2","","","926.8000000007451","","","18","1050","1250","b","elianto","#f73b6a7A","-1"," ","0","-10","[1776.8999999985099]","1","2","","","1050","88","5","4","lose","no-go","0","0"
"pit-trial","162","2375649","0.0-93.0","battery-v0.2","","","-1","","","18","1050","1250","c","elianto","#3366ff99","-1","-1","1","0","[]","0","2","","","1050","89","6","2","win","no-go","1","0"
"pit-trial","163","2379403","0.0-94.0","battery-v0.2","","","899.1999999992549","","","18","1050","1250","t","elianto","#f73b6a7A"," "," ","1","0","[1749.5]","1","2","","","1050","90","4","3","lose","go","0","0"
"pit-trial","164","2382862","0.0-95.0","battery-v0.2","","","597.3999999985099","","","18","1050","1250","z","elianto","#3366ff99"," "," ","1","+10","[1452.7999999988824]","1","2","","","1050","91","7","1","win","go","0","0"
"pit-trial","165","2386612","0.0-96.0","battery-v0.2","","","894.0999999996275","","","18","1050","1250","b","elianto","#f73b6a7A","-1"," ","0","-10","[1744.0999999996275]","1","2","","","1050","92","5","4","lose","no-go","0","0"
"pit-trial","166","2389992","0.0-97.0","battery-v0.2","","","523.5999999996275","","","18","1050","1250","h","elianto","#3366ff99"," "," ","1","+10","[1373.9000000003725]","1","2","","","1050","93","8","1","win","go","0","0"
"pit-trial","167","2393428","0.0-98.0","battery-v0.2","","","580.3000000007451","","","18","1050","1250","z","elianto","#3366ff99"," "," ","1","+10","[1430.4000000003725]","1","2","","","1050","94","7","1","win","go","0","0"
"pit-trial","168","2398285","0.0-99.0","battery-v0.2","","","-1","","","18","1050","1250","c","elianto","#3366ff99","-1","-1","1","+10","[]","0","2","","","1050","95","6","2","win","no-go","0","0"
"pit-trial","169","2402199","0.0-100.0","battery-v0.2","","","1052.800000000745","","","18","1050","1250","t","elianto","#f73b6a7A"," "," ","1","-10","[1908.4000000003725]","1","2","","","1050","96","4","3","lose","go","1","0"
"pit-trial","170","2405980","0.0-101.0","battery-v0.2","","","920.5999999996275","","","18","1050","1250","c","elianto","#3366ff99","-1"," ","0","0","[1774.6000000014901]","1","2","","","1050","97","6","2","win","no-go","0","0"
"pit-trial","171","2409831","0.0-102.0","battery-v0.2","","","992.7000000011176","","","18","1050","1250","h","elianto","#3366ff99"," "," ","1","+10","[1844.5999999996275]","1","2","","","1050","98","8","1","win","go","0","0"
"pit-trial","172","2413498","0.0-103.0","battery-v0.2","","","811.5","","","18","1050","1250","z","elianto","#3366ff99"," "," ","1","0","[1661.5999999996275]","1","2","","","1050","99","7","1","win","go","1","0"
"pit-trial","173","2417328","0.0-104.0","battery-v0.2","","","972.4000000003725","","","18","1050","1250","t","elianto","#f73b6a7A"," "," ","1","0","[1822.5]","1","2","","","1050","100","4","3","lose","go","0","0"
"pit-trial","174","2421250","0.0-105.0","battery-v0.2","","","1065.4000000003725","","","18","1050","1250","h","elianto","#3366ff99"," "," ","1","0","[1915.7000000011176]","1","2","","","1050","101","8","1","win","go","1","0"
"pit-trial","175","2425314","0.0-106.0","battery-v0.2","","","1206.699999999255","","","18","1050","1250","y","elianto","#3366ff99","-1"," ","0","0","[2056.800000000745]","1","2","","","1050","102","9","2","win","no-go","0","0"
"pit-trial","176","2428916","0.0-107.0","battery-v0.2","","","746.5999999996275","","","18","1050","1250","z","elianto","#3366ff99"," "," ","1","+10","[1597.699999999255]","1","2","","","1050","103","7","1","win","go","0","0"
"pit-trial","177","2433773","0.0-108.0","battery-v0.2","","","-1","","","18","1050","1250","c","elianto","#3366ff99","-1","-1","1","+10","[]","0","2","","","1050","104","6","2","win","no-go","0","0"
"pit-trial","178","2437215","0.0-109.0","battery-v0.2","","","586.5","","","18","1050","1250","z","elianto","#3366ff99"," "," ","1","+10","[1436.5]","1","2","","","1050","105","7","1","win","go","0","0"
"pit-trial","179","2442048","0.0-110.0","battery-v0.2","","","1973.800000000745","","","18","1050","1250","h","elianto","#3366ff99"," "," ","1","+10","[2826.2000000011176]","1","2","","","1050","106","8","1","win","go","0","0"
"pit-trial","180","2446578","0.0-111.0","battery-v0.2","","","1672.800000000745","","","18","1050","1250","y","elianto","#3366ff99","-1"," ","0","0","[2523.2000000011176]","1","2","","","1050","107","9","2","win","no-go","0","0"
"pit-trial","181","2451433","0.0-112.0","battery-v0.2","","","-1","","","18","1050","1250","c","elianto","#3366ff99","-1","-1","1","0","[]","0","2","","","1050","108","6","2","win","no-go","1","0"
"pit-trial","182","2455219","0.0-113.0","battery-v0.2","","","925.0999999996275","","","18","1050","1250","y","elianto","#3366ff99","-1"," ","0","0","[1780.2000000011176]","1","2","","","1050","109","9","2","win","no-go","0","0"
"pit-trial","183","2460074","0.0-114.0","battery-v0.2","","","-1","","","18","1050","1250","r","elianto","#f73b6a7A"," ","-1","0","0","[]","0","2","","","1050","110","10","3","lose","go","1","0"
"pit-trial","184","2464928","0.0-115.0","battery-v0.2","","","-1","","","18","1050","1250","m","elianto","#f73b6a7A","-1","-1","1","-10","[]","0","2","","","1050","111","11","4","lose","no-go","1","0"
"pit-trial","185","2468264","0.0-116.0","battery-v0.2","","","481.69999999925494","","","18","1050","1250","h","elianto","#3366ff99"," "," ","1","+10","[1331.800000000745]","1","2","","","1050","112","8","1","win","go","0","0"
"pit-trial","186","2473119","0.0-117.0","battery-v0.2","","","-1","","","18","1050","1250","r","elianto","#f73b6a7A"," ","-1","0","-10","[]","0","2","","","1050","113","10","3","lose","go","0","0"
"pit-trial","187","2476472","0.0-118.0","battery-v0.2","","","497.69999999925494","","","18","1050","1250","h","elianto","#3366ff99"," "," ","1","0","[1347.9000000003725]","1","2","","","1050","114","8","1","win","go","1","0"
"pit-trial","188","2480219","0.0-119.0","battery-v0.2","","","891.5999999996275","","","18","1050","1250","m","elianto","#f73b6a7A","-1"," ","0","-10","[1741.9000000003725]","1","2","","","1050","115","11","4","lose","no-go","0","0"
"pit-trial","189","2483874","0.0-120.0","battery-v0.2","","","799.3000000007451","","","18","1050","1250","y","elianto","#3366ff99","-1"," ","0","0","[1649.800000000745]","1","2","","","1050","116","9","2","win","no-go","0","0"
"pit-trial","190","2488730","0.0-121.0","battery-v0.2","","","-1","","","18","1050","1250","m","elianto","#f73b6a7A","-1","-1","1","0","[]","0","2","","","1050","117","11","4","lose","no-go","0","0"
"pit-trial","191","2492060","0.0-122.0","battery-v0.2","","","469.90000000037253","","","18","1050","1250","h","elianto","#3366ff99"," "," ","1","+10","[1324.800000000745]","1","2","","","1050","118","8","1","win","go","0","0"
"pit-trial","192","2496916","0.0-123.0","battery-v0.2","","","-1","","","18","1050","1250","r","elianto","#f73b6a7A"," ","-1","0","-10","[]","0","2","","","1050","119","10","3","lose","go","0","0"
"pit-trial","193","2500537","0.0-124.0","battery-v0.2","","","764.6999999992549","","","18","1050","1250","y","elianto","#3366ff99","-1"," ","0","0","[1614.9000000003725]","1","2","","","1050","120","9","2","win","no-go","0","0"
"pit-trial","194","2505393","0.0-125.0","battery-v0.2","","","-1","","","18","1050","1250","r","elianto","#f73b6a7A"," ","-1","0","0","[]","0","2","","","1050","121","10","3","lose","go","1","0"
"pit-trial","195","2508810","0.0-126.0","battery-v0.2","","","561.3000000007451","","","18","1050","1250","h","elianto","#3366ff99"," "," ","1","+10","[1411.5999999996275]","1","2","","","1050","122","8","1","win","go","0","0"
"pit-trial","196","2513666","0.0-127.0","battery-v0.2","","","-1","","","18","1050","1250","m","elianto","#f73b6a7A","-1","-1","1","-10","[]","0","2","","","1050","123","11","4","lose","no-go","1","0"
"pit-trial","197","2517285","0.0-128.0","battery-v0.2","","","762.3000000007451","","","18","1050","1250","y","elianto","#3366ff99","-1"," ","0","0","[1612.7000000011176]","1","2","","","1050","124","9","2","win","no-go","0","0"
"pit-trial","198","2521700","0.0-129.0","battery-v0.2","","","1554.7999999988824","","","18","1050","1250","m","elianto","#f73b6a7A","-1"," ","0","-10","[2409]","1","2","","","1050","125","11","4","lose","no-go","0","0"
"pit-trial","199","2526556","0.0-130.0","battery-v0.2","","","-1","","","18","1050","1250","r","elianto","#f73b6a7A"," ","-1","0","-10","[]","0","2","","","1050","126","10","3","lose","go","0","0"
"pit-trial","200","2529876","0.0-131.0","battery-v0.2","","","463.3999999985099","","","18","1050","1250","y","elianto","#3366ff99","-1"," ","0","0","[1313.7999999988824]","1","2","","","1050","127","9","2","win","no-go","0","0"
"pit-trial","201","2533590","0.0-132.0","battery-v0.2","","","857.3999999985099","","","18","1050","1250","h","elianto","#3366ff99"," "," ","1","+10","[1707.5]","1","2","","","1050","128","8","1","win","go","0","0"
"pit-trial","202","2538446","0.0-133.0","battery-v0.2","","","-1","","","18","1050","1250","r","elianto","#f73b6a7A"," ","-1","0","-10","[]","0","2","","","1050","129","10","3","lose","go","0","0"
"pit-trial","203","2543302","0.0-134.0","battery-v0.2","","","-1","","","18","1050","1250","m","elianto","#f73b6a7A","-1","-1","1","-10","[]","0","2","","","1050","130","11","4","lose","no-go","1","0"
"pit-trial","204","2548159","0.0-135.0","battery-v0.2","","","-1","","","18","1050","1250","y","elianto","#3366ff99","-1","-1","1","+10","[]","0","2","","","1050","131","9","2","win","no-go","0","0"
"pit-trial","205","2551755","0.0-136.0","battery-v0.2","","","739.5999999996275","","","18","1050","1250","h","elianto","#3366ff99"," "," ","1","+10","[1589.699999999255]","1","2","","","1050","132","8","1","win","go","0","0"
"pit-trial","206","2556611","0.0-137.0","battery-v0.2","","","-1","","","18","1050","1250","m","elianto","#f73b6a7A","-1","-1","1","0","[]","0","2","","","1050","133","11","4","lose","no-go","0","0"
"pit-trial","207","2561467","0.0-138.0","battery-v0.2","","","-1","","","18","1050","1250","r","elianto","#f73b6a7A"," ","-1","0","-10","[]","0","2","","","1050","134","10","3","lose","go","0","0"
"pit-trial","208","2564793","0.0-139.0","battery-v0.2","","","469.09999999962747","","","18","1050","1250","h","elianto","#3366ff99"," "," ","1","+10","[1319.300000000745]","1","2","","","1050","135","8","1","win","go","0","0"
"pit-trial","209","2568421","0.0-140.0","battery-v0.2","","","771.5","","","18","1050","1250","y","elianto","#3366ff99","-1"," ","0","0","[1622.699999999255]","1","2","","","1050","136","9","2","win","no-go","0","0"
"pit-trial","210","2573277","0.0-141.0","battery-v0.2","","","-1","","","18","1050","1250","r","elianto","#f73b6a7A"," ","-1","0","-10","[]","0","2","","","1050","137","10","3","lose","go","0","0"
"pit-trial","211","2578132","0.0-142.0","battery-v0.2","","","-1","","","18","1050","1250","m","elianto","#f73b6a7A","-1","-1","1","-10","[]","0","2","","","1050","138","11","4","lose","no-go","1","0"
"pit-trial","212","2581837","0.0-143.0","battery-v0.2","","","849.8000000007451","","","18","1050","1250","h","elianto","#3366ff99"," "," ","1","+10","[1699.9000000003725]","1","2","","","1050","139","8","1","win","go","0","0"
"pit-trial","213","2585775","0.0-144.0","battery-v0.2","","","1082.2000000011176","","","18","1050","1250","y","elianto","#3366ff99","-1"," ","0","0","[1932.3999999985099]","1","2","","","1050","140","9","2","win","no-go","0","0"
"pit-instructions","214","2786055","0.0-145.0","battery-v0.2","","[{""page_index"":0,""viewing_time"":191085},{""page_index"":1,""viewing_time"":9190.89999999851}]","200276.79999999888","","","","","","","","","","","","","","","","","","","","","","","","",""
"pit-trial","215","2789884","0.0-146.0","battery-v0.2","","","967.6999999992549","","","18","1050","1250","d","elianto","#3366ff99"," "," ","1","+10","[1817.9000000003725]","1","3","","","1050","141","2","1","win","go","0","0"
"pit-trial","216","2794740","0.0-147.0","battery-v0.2","","","-1","","","18","1050","1250","j","elianto","#3366ff99","-1","-1","1","0","[]","0","3","","","1050","142","1","2","win","no-go","1","0"
"pit-trial","217","2799596","0.0-148.0","battery-v0.2","","","-1","","","18","1050","1250","k","elianto","#f73b6a7A"," ","-1","0","-10","[]","0","3","","","1050","143","3","3","lose","go","0","0"
"pit-trial","218","2804451","0.0-149.0","battery-v0.2","","","-1","","","18","1050","1250","v","elianto","#3366ff99","-1","-1","1","+10","[]","0","3","","","1050","144","0","2","win","no-go","0","0"
"pit-trial","219","2808216","0.0-150.0","battery-v0.2","","","909","","","18","1050","1250","d","elianto","#3366ff99"," "," ","1","+10","[1759.199999999255]","1","3","","","1050","145","2","1","win","go","0","0"
"pit-trial","220","2812074","0.0-151.0","battery-v0.2","","","1000.0999999996275","","","18","1050","1250","v","elianto","#3366ff99","-1"," ","0","+10","[1853.2999999988824]","1","3","","","1050","146","0","2","win","no-go","1","0"
"pit-trial","221","2815858","0.0-152.0","battery-v0.2","","","928.0999999996275","","","18","1050","1250","j","elianto","#3366ff99","-1"," ","0","0","[1778.4000000003725]","1","3","","","1050","147","1","2","win","no-go","0","0"
"pit-trial","222","2820714","0.0-153.0","battery-v0.2","","","-1","","","18","1050","1250","k","elianto","#f73b6a7A"," ","-1","0","-10","[]","0","3","","","1050","148","3","3","lose","go","0","0"
"pit-trial","223","2824534","0.0-154.0","battery-v0.2","","","964.0999999996275","","","18","1050","1250","j","elianto","#3366ff99","-1"," ","0","0","[1814.4000000003725]","1","3","","","1050","149","1","2","win","no-go","0","0"
"pit-trial","224","2828357","0.0-155.0","battery-v0.2","","","963.7000000011176","","","18","1050","1250","d","elianto","#3366ff99"," "," ","1","+10","[1816.5]","1","3","","","1050","150","2","1","win","go","0","0"
"pit-trial","225","2832171","0.0-156.0","battery-v0.2","","","958","","","18","1050","1250","v","elianto","#3366ff99","-1"," ","0","0","[1808.4000000003725]","1","3","","","1050","151","0","2","win","no-go","0","0"
"pit-trial","226","2836145","0.0-157.0","battery-v0.2","","","1118","","","18","1050","1250","k","elianto","#f73b6a7A"," "," ","1","0","[1968.0999999996275]","1","3","","","1050","152","3","3","lose","go","0","0"
"pit-trial","227","2839628","0.0-158.0","battery-v0.2","","","627.1999999992549","","","18","1050","1250","d","elianto","#3366ff99"," "," ","1","+10","[1477.4000000003725]","1","3","","","1050","153","2","1","win","go","0","0"
"pit-trial","228","2843539","0.0-159.0","battery-v0.2","","","1054.699999999255","","","18","1050","1250","k","elianto","#f73b6a7A"," "," ","1","0","[1905]","1","3","","","1050","154","3","3","lose","go","0","0"
"pit-trial","229","2847404","0.0-160.0","battery-v0.2","","","1009","","","18","1050","1250","j","elianto","#3366ff99","-1"," ","0","0","[1859.4000000003725]","1","3","","","1050","155","1","2","win","no-go","0","0"
"pit-trial","230","2851137","0.0-161.0","battery-v0.2","","","877.5999999996275","","","18","1050","1250","v","elianto","#3366ff99","-1"," ","0","0","[1727.800000000745]","1","3","","","1050","156","0","2","win","no-go","0","0"
"pit-trial","231","2854960","0.0-162.0","battery-v0.2","","","967.3999999985099","","","18","1050","1250","k","elianto","#f73b6a7A"," "," ","1","-10","[1817.5999999996275]","1","3","","","1050","157","3","3","lose","go","1","0"
"pit-trial","232","2859816","0.0-163.0","battery-v0.2","","","-1","","","18","1050","1250","v","elianto","#3366ff99","-1","-1","1","+10","[]","0","3","","","1050","158","0","2","win","no-go","0","0"
"pit-trial","233","2863617","0.0-164.0","battery-v0.2","","","942.3000000007451","","","18","1050","1250","d","elianto","#3366ff99"," "," ","1","+10","[1794.8999999985099]","1","3","","","1050","159","2","1","win","go","0","0"
"pit-trial","234","2868473","0.0-165.0","battery-v0.2","","","-1","","","18","1050","1250","j","elianto","#3366ff99","-1","-1","1","0","[]","0","3","","","1050","160","1","2","win","no-go","1","0"
"pit-trial","235","2872450","0.0-166.0","battery-v0.2","","","1117.9000000003725","","","18","1050","1250","k","elianto","#f73b6a7A"," "," ","1","0","[1969.699999999255]","1","3","","","1050","161","3","3","lose","go","0","0"
"pit-trial","236","2876458","0.0-167.0","battery-v0.2","","","1152","","","18","1050","1250","d","elianto","#3366ff99"," "," ","1","+10","[2002.2000000011176]","1","3","","","1050","162","2","1","win","go","0","0"
"pit-trial","237","2881313","0.0-168.0","battery-v0.2","","","-1","","","18","1050","1250","v","elianto","#3366ff99","-1","-1","1","+10","[]","0","3","","","1050","163","0","2","win","no-go","0","0"
"pit-trial","238","2886169","0.0-169.0","battery-v0.2","","","-1","","","18","1050","1250","j","elianto","#3366ff99","-1","-1","1","+10","[]","0","3","","","1050","164","1","2","win","no-go","0","0"
"pit-trial","239","2889987","0.0-170.0","battery-v0.2","","","963.1999999992549","","","18","1050","1250","d","elianto","#3366ff99"," "," ","1","+10","[1813.5999999996275]","1","3","","","1050","165","2","1","win","go","0","0"
"pit-trial","240","2894843","0.0-171.0","battery-v0.2","","","-1","","","18","1050","1250","v","elianto","#3366ff99","-1","-1","1","+10","[]","0","3","","","1050","166","0","2","win","no-go","0","0"
"pit-trial","241","2899698","0.0-172.0","battery-v0.2","","","-1","","","18","1050","1250","j","elianto","#3366ff99","-1","-1","1","+10","[]","0","3","","","1050","167","1","2","win","no-go","0","0"
"pit-trial","242","2904554","0.0-173.0","battery-v0.2","","","-1","","","18","1050","1250","k","elianto","#f73b6a7A"," ","-1","0","-10","[]","0","3","","","1050","168","3","3","lose","go","0","0"
"pit-trial","243","2909410","0.0-174.0","battery-v0.2","","","-1","","","18","1050","1250","v","elianto","#3366ff99","-1","-1","1","+10","[]","0","3","","","1050","169","0","2","win","no-go","0","0"
"pit-trial","244","2914265","0.0-175.0","battery-v0.2","","","-1","","","18","1050","1250","j","elianto","#3366ff99","-1","-1","1","+10","[]","0","3","","","1050","170","1","2","win","no-go","0","0"
"pit-trial","245","2918131","0.0-176.0","battery-v0.2","","","1010.3000000007451","","","18","1050","1250","k","elianto","#f73b6a7A"," "," ","1","-10","[1860.4000000003725]","1","3","","","1050","171","3","3","lose","go","1","0"
"pit-trial","246","2921868","0.0-177.0","battery-v0.2","","","881.1999999992549","","","18","1050","1250","d","elianto","#3366ff99"," "," ","1","+10","[1731.2999999988824]","1","3","","","1050","172","2","1","win","go","0","0"
"pit-trial","247","2926723","0.0-178.0","battery-v0.2","","","-1","","","18","1050","1250","v","elianto","#3366ff99","-1","-1","1","+10","[]","0","3","","","1050","173","0","2","win","no-go","0","0"
"pit-trial","248","2930886","0.0-179.0","battery-v0.2","","","1306","","","18","1050","1250","e","elianto","#f73b6a7A","-1"," ","0","-10","[2156.4000000003725]","1","3","","","1050","174","4","4","lose","no-go","0","0"
"pit-trial","249","2935741","0.0-180.0","battery-v0.2","","","-1","","","18","1050","1250","w","elianto","#f73b6a7A"," ","-1","0","-10","[]","0","3","","","1050","175","5","3","lose","go","0","0"
"pit-trial","250","2939338","0.0-181.0","battery-v0.2","","","738.7999999988824","","","18","1050","1250","d","elianto","#3366ff99"," "," ","1","+10","[1589.4000000003725]","1","3","","","1050","176","2","1","win","go","0","0"
"pit-trial","251","2943859","0.0-182.0","battery-v0.2","","","1663","","","18","1050","1250","d","elianto","#3366ff99"," "," ","1","0","[2515.7000000011176]","1","3","","","1050","177","2","1","win","go","1","0"
"pit-trial","252","2948716","0.0-183.0","battery-v0.2","","","-1","","","18","1050","1250","e","elianto","#f73b6a7A","-1","-1","1","0","[]","0","3","","","1050","178","4","4","lose","no-go","0","0"
"pit-trial","253","2953572","0.0-184.0","battery-v0.2","","","-1","","","18","1050","1250","v","elianto","#3366ff99","-1","-1","1","+10","[]","0","3","","","1050","179","0","2","win","no-go","0","0"
"pit-trial","254","2958428","0.0-185.0","battery-v0.2","","","-1","","","18","1050","1250","w","elianto","#f73b6a7A"," ","-1","0","-10","[]","0","3","","","1050","180","5","3","lose","go","0","0"
"pit-trial","255","2962908","0.0-186.0","battery-v0.2","","","1623.5999999996275","","","18","1050","1250","d","elianto","#3366ff99"," "," ","1","+10","[2473.699999999255]","1","3","","","1050","181","2","1","win","go","0","0"
"pit-trial","256","2967764","0.0-187.0","battery-v0.2","","","-1","","","18","1050","1250","w","elianto","#f73b6a7A"," ","-1","0","-10","[]","0","3","","","1050","182","5","3","lose","go","0","0"
"pit-trial","257","2972620","0.0-188.0","battery-v0.2","","","-1","","","18","1050","1250","e","elianto","#f73b6a7A","-1","-1","1","0","[]","0","3","","","1050","183","4","4","lose","no-go","0","0"
"pit-trial","258","2976408","0.0-189.0","battery-v0.2","","","927.4000000003725","","","18","1050","1250","s","elianto","#3366ff99","-1"," ","0","0","[1780.9000000003725]","1","3","","","1050","184","6","2","win","no-go","0","0"
"pit-trial","259","2981264","0.0-190.0","battery-v0.2","","","-1","","","18","1050","1250","w","elianto","#f73b6a7A"," ","-1","0","-10","[]","0","3","","","1050","185","5","3","lose","go","0","0"
"pit-trial","260","2986121","0.0-191.0","battery-v0.2","","","-1","","","18","1050","1250","e","elianto","#f73b6a7A","-1","-1","1","0","[]","0","3","","","1050","186","4","4","lose","no-go","0","0"
"pit-trial","261","2990978","0.0-192.0","battery-v0.2","","","-1","","","18","1050","1250","s","elianto","#3366ff99","-1","-1","1","+10","[]","0","3","","","1050","187","6","2","win","no-go","0","0"
"pit-trial","262","2995836","0.0-193.0","battery-v0.2","","","-1","","","18","1050","1250","d","elianto","#3366ff99"," ","-1","0","0","[]","0","3","","","1050","188","2","1","win","go","0","0"
"pit-trial","263","3000692","0.0-194.0","battery-v0.2","","","-1","","","18","1050","1250","p","elianto","#f73b6a7A","-1","-1","1","0","[]","0","3","","","1050","189","7","4","lose","no-go","0","0"
"pit-trial","264","3005549","0.0-195.0","battery-v0.2","","","-1","","","18","1050","1250","s","elianto","#3366ff99","-1","-1","1","+10","[]","0","3","","","1050","190","6","2","win","no-go","0","0"
"pit-trial","265","3010404","0.0-196.0","battery-v0.2","","","-1","","","18","1050","1250","e","elianto","#f73b6a7A","-1","-1","1","0","[]","0","3","","","1050","191","4","4","lose","no-go","0","0"
"pit-trial","266","3015259","0.0-197.0","battery-v0.2","","","-1","","","18","1050","1250","w","elianto","#f73b6a7A"," ","-1","0","-10","[]","0","3","","","1050","192","5","3","lose","go","0","0"
"pit-trial","267","3020113","0.0-198.0","battery-v0.2","","","-1","","","18","1050","1250","w","elianto","#f73b6a7A"," ","-1","0","0","[]","0","3","","","1050","193","5","3","lose","go","1","0"
"pit-trial","268","3024968","0.0-199.0","battery-v0.2","","","-1","","","18","1050","1250","p","elianto","#f73b6a7A","-1","-1","1","0","[]","0","3","","","1050","194","7","4","lose","no-go","0","0"
"pit-trial","269","3029823","0.0-200.0","battery-v0.2","","","-1","","","18","1050","1250","s","elianto","#3366ff99","-1","-1","1","+10","[]","0","3","","","1050","195","6","2","win","no-go","0","0"
"pit-trial","270","3034679","0.0-201.0","battery-v0.2","","","-1","","","18","1050","1250","e","elianto","#f73b6a7A","-1","-1","1","0","[]","0","3","","","1050","196","4","4","lose","no-go","0","0"
"pit-trial","271","3039534","0.0-202.0","battery-v0.2","","","-1","","","18","1050","1250","w","elianto","#f73b6a7A"," ","-1","0","-10","[]","0","3","","","1050","197","5","3","lose","go","0","0"
"pit-trial","272","3044389","0.0-203.0","battery-v0.2","","","-1","","","18","1050","1250","p","elianto","#f73b6a7A","-1","-1","1","-10","[]","0","3","","","1050","198","7","4","lose","no-go","1","0"
"pit-trial","273","3049245","0.0-204.0","battery-v0.2","","","-1","","","18","1050","1250","e","elianto","#f73b6a7A","-1","-1","1","0","[]","0","3","","","1050","199","4","4","lose","no-go","0","0"
"pit-trial","274","3054100","0.0-205.0","battery-v0.2","","","-1","","","18","1050","1250","s","elianto","#3366ff99","-1","-1","1","+10","[]","0","3","","","1050","200","6","2","win","no-go","0","0"
"pit-trial","275","3058690","0.0-206.0","battery-v0.2","","","1734.199999999255","","","18","1050","1250","p","elianto","#f73b6a7A","-1"," ","0","0","[2584.5999999996275]","1","3","","","1050","201","7","4","lose","no-go","1","0"
"pit-trial","276","3063546","0.0-207.0","battery-v0.2","","","-1","","","18","1050","1250","s","elianto","#3366ff99","-1","-1","1","+10","[]","0","3","","","1050","202","6","2","win","no-go","0","0"
"pit-trial","277","3068402","0.0-208.0","battery-v0.2","","","-1","","","18","1050","1250","e","elianto","#f73b6a7A","-1","-1","1","-10","[]","0","3","","","1050","203","4","4","lose","no-go","1","0"
"pit-trial","278","3072258","0.0-209.0","battery-v0.2","","","1000","","","18","1050","1250","w","elianto","#f73b6a7A"," "," ","1","0","[1850.0999999996275]","1","3","","","1050","204","5","3","lose","go","0","0"
"pit-trial","279","3076048","0.0-210.0","battery-v0.2","","","933.6999999992549","","","18","1050","1250","w","elianto","#f73b6a7A"," "," ","1","0","[1783.9000000003725]","1","3","","","1050","205","5","3","lose","go","0","0"
"pit-trial","280","3080354","0.0-211.0","battery-v0.2","","","1450.5999999996275","","","18","1050","1250","p","elianto","#f73b6a7A","-1"," ","0","-10","[2300.9000000003725]","1","3","","","1050","206","7","4","lose","no-go","0","0"
"pit-trial","281","3085210","0.0-212.0","battery-v0.2","","","-1","","","18","1050","1250","s","elianto","#3366ff99","-1","-1","1","+10","[]","0","3","","","1050","207","6","2","win","no-go","0","0"
"pit-trial","282","3089319","0.0-213.0","battery-v0.2","","","1250.0999999996275","","","18","1050","1250","e","elianto","#f73b6a7A","-1"," ","0","-10","[2102.9000000003725]","1","3","","","1050","208","4","4","lose","no-go","0","0"
"pit-trial","283","3093822","0.0-214.0","battery-v0.2","","","1646.199999999255","","","18","1050","1250","p","elianto","#f73b6a7A","-1"," ","0","-10","[2496.2000000011176]","1","3","","","1050","209","7","4","lose","no-go","0","0"
"pit-trial","284","3098678","0.0-215.0","battery-v0.2","","","-1","","","18","1050","1250","s","elianto","#3366ff99","-1","-1","1","+10","[]","0","3","","","1050","210","6","2","win","no-go","0","0"
"pit-trial","285","3102595","0.0-216.0","battery-v0.2","","","1056.5999999996275","","","18","1050","1250","e","elianto","#f73b6a7A","-1"," ","0","-10","[1910.7000000011176]","1","3","","","1050","211","4","4","lose","no-go","0","0"
"pit-trial","286","3107450","0.0-217.0","battery-v0.2","","","-1","","","18","1050","1250","w","elianto","#f73b6a7A"," ","-1","0","-10","[]","0","3","","","1050","212","5","3","lose","go","0","0"
"pit-trial","287","3112306","0.0-218.0","battery-v0.2","","","-1","","","18","1050","1250","g","elianto","#f73b6a7A","-1","-1","1","0","[]","0","3","","","1050","213","8","4","lose","no-go","0","0"
"pit-trial","288","3116366","0.0-219.0","battery-v0.2","","","1203.6000000014901","","","18","1050","1250","w","elianto","#f73b6a7A"," "," ","1","0","[2053.9000000003725]","1","3","","","1050","214","5","3","lose","go","0","0"
"pit-trial","289","3121221","0.0-220.0","battery-v0.2","","","-1","","","18","1050","1250","s","elianto","#3366ff99","-1","-1","1","+10","[]","0","3","","","1050","215","6","2","win","no-go","0","0"
"pit-trial","290","3126078","0.0-221.0","battery-v0.2","","","-1","","","18","1050","1250","p","elianto","#f73b6a7A","-1","-1","1","0","[]","0","3","","","1050","216","7","4","lose","no-go","0","0"
"pit-trial","291","3130776","0.0-222.0","battery-v0.2","","","1842.199999999255","","","18","1050","1250","p","elianto","#f73b6a7A","-1"," ","0","-10","[2692.300000000745]","1","3","","","1050","217","7","4","lose","no-go","0","0"
"pit-trial","292","3134760","0.0-223.0","battery-v0.2","","","1127","","","18","1050","1250","w","elianto","#f73b6a7A"," "," ","1","0","[1977.4000000003725]","1","3","","","1050","218","5","3","lose","go","0","0"
"pit-trial","293","3139617","0.0-224.0","battery-v0.2","","","-1","","","18","1050","1250","g","elianto","#f73b6a7A","-1","-1","1","0","[]","0","3","","","1050","219","8","4","lose","no-go","0","0"
"pit-trial","294","3144472","0.0-225.0","battery-v0.2","","","-1","","","18","1050","1250","s","elianto","#3366ff99","-1","-1","1","+10","[]","0","3","","","1050","220","6","2","win","no-go","0","0"
"pit-trial","295","3149327","0.0-226.0","battery-v0.2","","","-1","","","18","1050","1250","s","elianto","#3366ff99","-1","-1","1","+10","[]","0","3","","","1050","221","6","2","win","no-go","0","0"
"pit-trial","296","3154183","0.0-227.0","battery-v0.2","","","-1","","","18","1050","1250","l","elianto","#f73b6a7A"," ","-1","0","-10","[]","0","3","","","1050","222","10","3","lose","go","0","0"
"pit-trial","297","3159038","0.0-228.0","battery-v0.2","","","-1","","","18","1050","1250","g","elianto","#f73b6a7A","-1","-1","1","0","[]","0","3","","","1050","223","8","4","lose","no-go","0","0"
"pit-trial","298","3162763","0.0-229.0","battery-v0.2","","","867.5","","","18","1050","1250","a","elianto","#3366ff99"," "," ","1","0","[1720.699999999255]","1","3","","","1050","224","9","1","win","go","1","0"
"pit-trial","299","3167618","0.0-230.0","battery-v0.2","","","-1","","","18","1050","1250","l","elianto","#f73b6a7A"," ","-1","0","0","[]","0","3","","","1050","225","10","3","lose","go","1","0"
"pit-trial","300","3171327","0.0-231.0","battery-v0.2","","","853.8999999985099","","","18","1050","1250","a","elianto","#3366ff99"," "," ","1","0","[1704.0999999996275]","1","3","","","1050","226","9","1","win","go","1","0"
"pit-trial","301","3176183","0.0-232.0","battery-v0.2","","","-1","","","18","1050","1250","s","elianto","#3366ff99","-1","-1","1","+10","[]","0","3","","","1050","227","6","2","win","no-go","0","0"
"pit-trial","302","3181039","0.0-233.0","battery-v0.2","","","-1","","","18","1050","1250","g","elianto","#f73b6a7A","-1","-1","1","0","[]","0","3","","","1050","228","8","4","lose","no-go","0","0"
"pit-trial","303","3185894","0.0-234.0","battery-v0.2","","","-1","","","18","1050","1250","a","elianto","#3366ff99"," ","-1","0","+10","[]","0","3","","","1050","229","9","1","win","go","1","0"
"pit-trial","304","3189839","0.0-235.0","battery-v0.2","","","1085.1000000014901","","","18","1050","1250","u","elianto","#3366ff99"," "," ","1","+10","[1938.7000000011176]","1","3","","","1050","230","11","1","win","go","0","0"
"pit-trial","305","3194695","0.0-236.0","battery-v0.2","","","-1","","","18","1050","1250","l","elianto","#f73b6a7A"," ","-1","0","0","[]","0","3","","","1050","231","10","3","lose","go","1","0"
"pit-trial","306","3199551","0.0-237.0","battery-v0.2","","","-1","","","18","1050","1250","g","elianto","#f73b6a7A","-1","-1","1","-10","[]","0","3","","","1050","232","8","4","lose","no-go","1","0"
"pit-trial","307","3204407","0.0-238.0","battery-v0.2","","","-1","","","18","1050","1250","l","elianto","#f73b6a7A"," ","-1","0","-10","[]","0","3","","","1050","233","10","3","lose","go","0","0"
"pit-trial","308","3208132","0.0-239.0","battery-v0.2","","","864.7999999988824","","","18","1050","1250","u","elianto","#3366ff99"," "," ","1","+10","[1720]","1","3","","","1050","234","11","1","win","go","0","0"
"pit-trial","309","3212988","0.0-240.0","battery-v0.2","","","-1","","","18","1050","1250","a","elianto","#3366ff99"," ","-1","0","0","[]","0","3","","","1050","235","9","1","win","go","0","0"
"pit-trial","310","3217844","0.0-241.0","battery-v0.2","","","-1","","","18","1050","1250","g","elianto","#f73b6a7A","-1","-1","1","0","[]","0","3","","","1050","236","8","4","lose","no-go","0","0"
"pit-trial","311","3222700","0.0-242.0","battery-v0.2","","","-1","","","18","1050","1250","a","elianto","#3366ff99"," ","-1","0","0","[]","0","3","","","1050","237","9","1","win","go","0","0"
"pit-trial","312","3226487","0.0-243.0","battery-v0.2","","","931.2000000011176","","","18","1050","1250","u","elianto","#3366ff99"," "," ","1","+10","[1781.6000000014901]","1","3","","","1050","238","11","1","win","go","0","0"
"pit-trial","313","3231343","0.0-244.0","battery-v0.2","","","-1","","","18","1050","1250","l","elianto","#f73b6a7A"," ","-1","0","-10","[]","0","3","","","1050","239","10","3","lose","go","0","0"
"pit-trial","314","3236199","0.0-245.0","battery-v0.2","","","-1","","","18","1050","1250","g","elianto","#f73b6a7A","-1","-1","1","-10","[]","0","3","","","1050","240","8","4","lose","no-go","1","0"
"pit-trial","315","3241055","0.0-246.0","battery-v0.2","","","-1","","","18","1050","1250","a","elianto","#3366ff99"," ","-1","0","0","[]","0","3","","","1050","241","9","1","win","go","0","0"
"pit-trial","316","3244597","0.0-247.0","battery-v0.2","","","682.2000000011176","","","18","1050","1250","u","elianto","#3366ff99"," "," ","1","+10","[1535]","1","3","","","1050","242","11","1","win","go","0","0"
"pit-trial","317","3249453","0.0-248.0","battery-v0.2","","","-1","","","18","1050","1250","l","elianto","#f73b6a7A"," ","-1","0","-10","[]","0","3","","","1050","243","10","3","lose","go","0","0"
"pit-trial","318","3253145","0.0-249.0","battery-v0.2","","","836","","","18","1050","1250","g","elianto","#f73b6a7A","-1"," ","0","-10","[1686.199999999255]","1","3","","","1050","244","8","4","lose","no-go","0","0"
"pit-trial","319","3256799","0.0-250.0","battery-v0.2","","","795.9000000003725","","","18","1050","1250","u","elianto","#3366ff99"," "," ","1","0","[1647.199999999255]","1","3","","","1050","245","11","1","win","go","1","0"
"pit-trial","320","3260540","0.0-251.0","battery-v0.2","","","884.5999999996275","","","18","1050","1250","a","elianto","#3366ff99"," "," ","1","+10","[1734.9000000003725]","1","3","","","1050","246","9","1","win","go","0","0"
"pit-trial","321","3265397","0.0-252.0","battery-v0.2","","","-1","","","18","1050","1250","g","elianto","#f73b6a7A","-1","-1","1","0","[]","0","3","","","1050","247","8","4","lose","no-go","0","0"
"pit-trial","322","3269328","0.0-253.0","battery-v0.2","","","1070.199999999255","","","18","1050","1250","l","elianto","#f73b6a7A"," "," ","1","0","[1924.7999999988824]","1","3","","","1050","248","10","3","lose","go","0","0"
"pit-trial","323","3273052","0.0-254.0","battery-v0.2","","","865.1000000014901","","","18","1050","1250","u","elianto","#3366ff99"," "," ","1","+10","[1716.800000000745]","1","3","","","1050","249","11","1","win","go","0","0"
"pit-trial","324","3277095","0.0-255.0","battery-v0.2","","","1186.199999999255","","","18","1050","1250","l","elianto","#f73b6a7A"," "," ","1","0","[2036.5]","1","3","","","1050","250","10","3","lose","go","0","0"
"pit-trial","325","3281950","0.0-256.0","battery-v0.2","","","-1","","","18","1050","1250","g","elianto","#f73b6a7A","-1","-1","1","0","[]","0","3","","","1050","251","8","4","lose","no-go","0","0"
"pit-trial","326","3285976","0.0-257.0","battery-v0.2","","","1168","","","18","1050","1250","a","elianto","#3366ff99"," "," ","1","+10","[2019.5999999996275]","1","3","","","1050","252","9","1","win","go","0","0"
"pit-trial","327","3290044","0.0-258.0","battery-v0.2","","","1212.300000000745","","","18","1050","1250","l","elianto","#f73b6a7A"," "," ","1","0","[2062.39999999851]","1","3","","","1050","253","10","3","lose","go","0","0"
"pit-trial","328","3294900","0.0-259.0","battery-v0.2","","","-1","","","18","1050","1250","g","elianto","#f73b6a7A","-1","-1","1","-10","[]","0","3","","","1050","254","8","4","lose","no-go","1","0"
"pit-trial","329","3298679","0.0-260.0","battery-v0.2","","","923.2000000011176","","","18","1050","1250","a","elianto","#3366ff99"," "," ","1","+10","[1773.3999999985099]","1","3","","","1050","255","9","1","win","go","0","0"
"pit-trial","330","3302458","0.0-261.0","battery-v0.2","","","924.1999999992549","","","18","1050","1250","u","elianto","#3366ff99"," "," ","1","+10","[1774.5]","1","3","","","1050","256","11","1","win","go","0","0"
"pit-trial","331","3306327","0.0-262.0","battery-v0.2","","","1013.5","","","18","1050","1250","a","elianto","#3366ff99"," "," ","1","0","[1863.9000000003725]","1","3","","","1050","257","9","1","win","go","1","0"
"pit-trial","332","3310259","0.0-263.0","battery-v0.2","","","1075.800000000745","","","18","1050","1250","u","elianto","#3366ff99"," "," ","1","+10","[1925.9000000003725]","1","3","","","1050","258","11","1","win","go","0","0"
"pit-trial","333","3314436","0.0-264.0","battery-v0.2","","","1321.2999999988824","","","18","1050","1250","g","elianto","#f73b6a7A","-1"," ","0","-10","[2171.199999999255]","1","3","","","1050","259","8","4","lose","no-go","0","0"
"pit-trial","334","3318906","0.0-265.0","battery-v0.2","","","1614.5","","","18","1050","1250","l","elianto","#f73b6a7A"," "," ","1","0","[2464.800000000745]","1","3","","","1050","260","10","3","lose","go","0","0"
"pit-instructions","335","3330789","0.0-266.0","battery-v0.2","","[{""page_index"":0,""viewing_time"":11878.200000001118}]","11879.5","","","","","","","","","","","","","","","","","","","","","","","","",""
