"trial_type","trial_index","time_elapsed","internal_node_id","task_version","subject_id","interactions","blur_events","focus_events","fullscreenenter_events","fullscreenexit_events","success","view_history","rt","responses","num_errors","age","subject","participantId","rune","rune_set","hex","correct","choice","accuracy","outcome","keys","total_keys","block","practice","value","sub","trial","stimulus","robot","valence","action","sham","browser_interactions"
"pavlovia","0","34","0.0-0.0","battery-v0.2","","""event"",""trial"",""time""
""fullscreenenter"",""1"",""3855""
","
","
","""event"",""trial"",""time""
""fullscreenenter"",""1"",""3855""
","
","","","","","","","","","","","","","","","","","","","","","","","","","","","",""
"fullscreen","1","4847","0.0-1.0","battery-v0.2","","""event"",""trial"",""time""
""fullscreenenter"",""1"",""3855""
","
","
","""event"",""trial"",""time""
""fullscreenenter"",""1"",""3855""
","
","true","","","","","","","","","","","","","","","","","","","","","","","","","","",""
"pit-instructions","2","9021","0.0-2.0-0.0","battery-v0.2","","""event"",""trial"",""time""
""fullscreenenter"",""1"",""3855""
","
","
","""event"",""trial"",""time""
""fullscreenenter"",""1"",""3855""
","
","","[{""page_index"":0,""viewing_time"":4169.30000000447}]","4170.10000000149","","","","","","","","","","","","","","","","","","","","","","","","",""
"pit-comprehension","3","12500","0.0-2.0-1.0-0.0","battery-v0.2","","""event"",""trial"",""time""
""fullscreenenter"",""1"",""3855""
","
","
","""event"",""trial"",""time""
""fullscreenenter"",""1"",""3855""
","
","","","3475.6999999955297","[""shark""]","0","25","1239","145","","","","","","","","","","","","","","","","","","","",""
"pit-instructions","4","13859","0.0-2.0-1.0-1.0","battery-v0.2","","""event"",""trial"",""time""
""fullscreenenter"",""1"",""3855""
","
","
","""event"",""trial"",""time""
""fullscreenenter"",""1"",""3855""
","
","","[{""page_index"":0,""viewing_time"":1350}]","1350.3999999985099","","","","","","","","","","","","","","","","","","","","","","","","",""
"pit-comprehension","5","16176","0.0-2.0-2.0-0.0","battery-v0.2","","""event"",""trial"",""time""
""fullscreenenter"",""1"",""3855""
","
","
","""event"",""trial"",""time""
""fullscreenenter"",""1"",""3855""
","
","","","2312.5999999940395","[""tiger""]","0","25","1239","145","","","","","","","","","","","","","","","","","","","",""
"pit-instructions","6","16825","0.0-2.0-2.0-1.0","battery-v0.2","","""event"",""trial"",""time""
""fullscreenenter"",""1"",""3855""
","
","
","""event"",""trial"",""time""
""fullscreenenter"",""1"",""3855""
","
","","[{""page_index"":0,""viewing_time"":644.5}]","644.7000000029802","","","","","","","","","","","","","","","","","","","","","","","","",""
"pit-instructions","7","113914","0.0-2.0-3.0","battery-v0.2","","""event"",""trial"",""time""
""fullscreenenter"",""1"",""3855""
","
","
","""event"",""trial"",""time""
""fullscreenenter"",""1"",""3855""
","
","","[{""page_index"":0,""viewing_time"":8698.39999999851},{""page_index"":1,""viewing_time"":5947.4000000059605},{""page_index"":2,""viewing_time"":9264.69999999553},{""page_index"":3,""viewing_time"":5149.30000000447},{""page_index"":4,""viewing_time"":6085.89999999851},{""page_index"":5,""viewing_time"":5537},{""page_index"":6,""viewing_time"":7110.19999999553},{""page_index"":7,""viewing_time"":6575.70000000298},{""page_index"":8,""viewing_time"":7192.79999999702},{""page_index"":9,""viewing_time"":9491.10000000149},{""page_index"":10,""viewing_time"":7566.70000000298},{""page_index"":11,""viewing_time"":7191.89999999851},{""page_index"":12,""viewing_time"":6833.70000000298},{""page_index"":13,""viewing_time"":4439.69999999553}]","97085","","","","","","","","","","","","","","","","","","","","","","","","",""
"pit-trial","8","116832","0.0-2.0-4.0-0.0","battery-v0.2","","""event"",""trial"",""time""
""fullscreenenter"",""1"",""3855""
","
","
","""event"",""trial"",""time""
""fullscreenenter"",""1"",""3855""
","
","","","57.399999998509884","","","25","1239","145","&#9784;","elianto","#FFFFF080"," "," ","1","&#10004","[909.1000000014901]","1","0","0","","","","","","","","",""
"pit-trial","9","119820","0.0-2.0-4.1-0.1","battery-v0.2","","""event"",""trial"",""time""
""fullscreenenter"",""1"",""3855""
","
","
","""event"",""trial"",""time""
""fullscreenenter"",""1"",""3855""
","
","","","130.29999999701977","","","25","1239","145","&#9784;","elianto","#FFFFF080"," "," ","1","&#10004","[981.1000000014901]","1","0","0","","","","","","","","",""
"pit-trial","10","123385","0.0-2.0-4.2-0.2","battery-v0.2","","""event"",""trial"",""time""
""fullscreenenter"",""1"",""3855""
","
","
","""event"",""trial"",""time""
""fullscreenenter"",""1"",""3855""
","
","","","707.8000000044703","","","25","1239","145","&#9784;","elianto","#FFFFF080"," "," ","1","&#10004","[1558.5]","1","0","0","","","","","","","","",""
"pit-trial","11","126432","0.0-2.0-4.3-0.3","battery-v0.2","","""event"",""trial"",""time""
""fullscreenenter"",""1"",""3855""
","
","
","""event"",""trial"",""time""
""fullscreenenter"",""1"",""3855""
","
","","","191.89999999850988","","","25","1239","145","&#9784;","elianto","#FFFFF080"," "," ","1","&#10004","[1043]","1","0","0","","","","","","","","",""
"pit-trial","12","129531","0.0-2.0-4.4-0.4","battery-v0.2","","""event"",""trial"",""time""
""fullscreenenter"",""1"",""3855""
","
","
","""event"",""trial"",""time""
""fullscreenenter"",""1"",""3855""
","
","","","242.20000000298023","","","25","1239","145","&#9784;","elianto","#FFFFF080"," "," ","1","&#10004","[1093.7000000029802]","1","0","0","","","","","","","","",""
"pit-instructions","13","152855","0.0-2.0-5.0","battery-v0.2","","""event"",""trial"",""time""
""fullscreenenter"",""1"",""3855""
","
","
","""event"",""trial"",""time""
""fullscreenenter"",""1"",""3855""
","
","","[{""page_index"":0,""viewing_time"":4816.39999999851},{""page_index"":1,""viewing_time"":7265.70000000298},{""page_index"":2,""viewing_time"":5786.5},{""page_index"":3,""viewing_time"":5451.89999999851}]","23320.89999999851","","","","","","","","","","","","","","","","","","","","","","","","",""
"pit-trial","14","157711","0.0-2.0-6.0-0.0","battery-v0.2","","""event"",""trial"",""time""
""fullscreenenter"",""1"",""3855""
","
","
","""event"",""trial"",""time""
""fullscreenenter"",""1"",""3855""
","
","","","-1","","","25","1239","145","&#9854;","elianto","#FFFFF080","-1","-1","1","&#10004","[]","0","0","1","","","","","","","","",""
"pit-trial","15","162569","0.0-2.0-6.1-0.1","battery-v0.2","","""event"",""trial"",""time""
""fullscreenenter"",""1"",""3855""
","
","
","""event"",""trial"",""time""
""fullscreenenter"",""1"",""3855""
","
","","","-1","","","25","1239","145","&#9854;","elianto","#FFFFF080","-1","-1","1","&#10004","[]","0","0","1","","","","","","","","",""
"pit-trial","16","167430","0.0-2.0-6.2-0.2","battery-v0.2","","""event"",""trial"",""time""
""fullscreenenter"",""1"",""3855""
","
","
","""event"",""trial"",""time""
""fullscreenenter"",""1"",""3855""
","
","","","-1","","","25","1239","145","&#9854;","elianto","#FFFFF080","-1","-1","1","&#10004","[]","0","0","1","","","","","","","","",""
"pit-trial","17","172286","0.0-2.0-6.3-0.3","battery-v0.2","","""event"",""trial"",""time""
""fullscreenenter"",""1"",""3855""
","
","
","""event"",""trial"",""time""
""fullscreenenter"",""1"",""3855""
","
","","","-1","","","25","1239","145","&#9854;","elianto","#FFFFF080","-1","-1","1","&#10004","[]","0","0","1","","","","","","","","",""
"pit-trial","18","177145","0.0-2.0-6.4-0.4","battery-v0.2","","""event"",""trial"",""time""
""fullscreenenter"",""1"",""3855""
","
","
","""event"",""trial"",""time""
""fullscreenenter"",""1"",""3855""
","
","","","-1","","","25","1239","145","&#9854;","elianto","#FFFFF080","-1","-1","1","&#10004","[]","0","0","1","","","","","","","","",""
"pit-instructions","19","297024","0.0-2.0-7.0","battery-v0.2","","""event"",""trial"",""time""
""fullscreenenter"",""1"",""3855""
","
","
","""event"",""trial"",""time""
""fullscreenenter"",""1"",""3855""
","
","","[{""page_index"":0,""viewing_time"":6207.20000000298},{""page_index"":1,""viewing_time"":7432.79999999702},{""page_index"":2,""viewing_time"":7308.20000000298},{""page_index"":3,""viewing_time"":7102.19999999553},{""page_index"":4,""viewing_time"":5634.4000000059605},{""page_index"":5,""viewing_time"":5255.39999999851},{""page_index"":6,""viewing_time"":4464.79999999702},{""page_index"":7,""viewing_time"":7370},{""page_index"":8,""viewing_time"":6110.70000000298},{""page_index"":9,""viewing_time"":6627.89999999851},{""page_index"":10,""viewing_time"":6045.5},{""page_index"":11,""viewing_time"":5517.5},{""page_index"":12,""viewing_time"":7356.39999999851},{""page_index"":13,""viewing_time"":7119.39999999851},{""page_index"":14,""viewing_time"":6893.80000000447},{""page_index"":15,""viewing_time"":7323.10000000149},{""page_index"":16,""viewing_time"":8160.29999999702},{""page_index"":17,""viewing_time"":7942.70000000298}]","119872.70000000298","","","","","","","","","","","","","","","","","","","","","","","","",""
"pit-trial","20","301598","0.0-2.0-8.0-0.0","battery-v0.2","","""event"",""trial"",""time""
""fullscreenenter"",""1"",""3855""
","
","
","""event"",""trial"",""time""
""fullscreenenter"",""1"",""3855""
","
","","","1717.1000000014901","","","25","1239","145","&#9776;","elianto","#3366ff99"," "," ","1","+10","[2567.7999999970198]","1","0","1","","","","","","","","",""
"pit-trial","21","304986","0.0-2.0-8.0-1.0","battery-v0.2","","""event"",""trial"",""time""
""fullscreenenter"",""1"",""3855""
","
","
","""event"",""trial"",""time""
""fullscreenenter"",""1"",""3855""
","
","","","535","","","25","1239","145","&#9776;","elianto","#3366ff99"," "," ","1","+10","[1385.2000000029802]","1","0","1","","","","","","","","",""
"pit-trial","22","308261","0.0-2.0-8.0-2.0","battery-v0.2","","""event"",""trial"",""time""
""fullscreenenter"",""1"",""3855""
","
","
","""event"",""trial"",""time""
""fullscreenenter"",""1"",""3855""
","
","","","422.20000000298023","","","25","1239","145","&#9776;","elianto","#3366ff99"," "," ","1","+10","[1272.5]","1","0","1","","","","","","","","",""
"pit-trial","23","311660","0.0-2.0-8.0-3.0","battery-v0.2","","""event"",""trial"",""time""
""fullscreenenter"",""1"",""3855""
","
","
","""event"",""trial"",""time""
""fullscreenenter"",""1"",""3855""
","
","","","543.5","","","25","1239","145","&#9776;","elianto","#3366ff99"," "," ","1","0","[1393.7000000029802]","1","0","1","","","","","","","","",""
"pit-trial","24","315701","0.0-2.0-8.0-4.0","battery-v0.2","","""event"",""trial"",""time""
""fullscreenenter"",""1"",""3855""
","
","
","""event"",""trial"",""time""
""fullscreenenter"",""1"",""3855""
","
","","","1179.8000000044703","","","25","1239","145","&#9776;","elianto","#3366ff99"," "," ","1","+10","[2033.2000000029802,2545]","2","0","1","","","","","","","","",""
"call-function","25","315703","0.0-2.0-9.0","battery-v0.2","","""event"",""trial"",""time""
""fullscreenenter"",""1"",""3855""
","
","
","""event"",""trial"",""time""
""fullscreenenter"",""1"",""3855""
","
","","","","","","","","","","","","","","","","","","","","","","","","","","","",""
"pit-instructions","26","359045","0.0-2.0-10.0","battery-v0.2","","""event"",""trial"",""time""
""fullscreenenter"",""1"",""3855""
","
","
","""event"",""trial"",""time""
""fullscreenenter"",""1"",""3855""
","
","","[{""page_index"":0,""viewing_time"":7509.70000000298},{""page_index"":1,""viewing_time"":8291.5},{""page_index"":2,""viewing_time"":10066.29999999702},{""page_index"":3,""viewing_time"":10115.20000000298},{""page_index"":4,""viewing_time"":7357.89999999851}]","43341.20000000298","","","","","","","","","","","","","","","","","","","","","","","","",""
"pit-trial","27","362678","0.0-2.0-11.0-0.0","battery-v0.2","","""event"",""trial"",""time""
""fullscreenenter"",""1"",""3855""
","
","
","""event"",""trial"",""time""
""fullscreenenter"",""1"",""3855""
","
","","","778.1999999955297","","","25","1239","145","&#9761;","elianto","#3366ff99","-1"," ","0","0","[1628.2000000029802]","1","0","2","","","","","","","","",""
"pit-trial","28","367537","0.0-2.0-11.0-1.0","battery-v0.2","","""event"",""trial"",""time""
""fullscreenenter"",""1"",""3855""
","
","
","""event"",""trial"",""time""
""fullscreenenter"",""1"",""3855""
","
","","","-1","","","25","1239","145","&#9761;","elianto","#3366ff99","-1","-1","1","+10","[]","0","0","2","","","","","","","","",""
"pit-trial","29","372397","0.0-2.0-11.0-2.0","battery-v0.2","","""event"",""trial"",""time""
""fullscreenenter"",""1"",""3855""
","
","
","""event"",""trial"",""time""
""fullscreenenter"",""1"",""3855""
","
","","","-1","","","25","1239","145","&#9761;","elianto","#3366ff99","-1","-1","1","+10","[]","0","0","2","","","","","","","","",""
"pit-trial","30","377259","0.0-2.0-11.0-3.0","battery-v0.2","","""event"",""trial"",""time""
""fullscreenenter"",""1"",""3855""
","
","
","""event"",""trial"",""time""
""fullscreenenter"",""1"",""3855""
","
","","","-1","","","25","1239","145","&#9761;","elianto","#3366ff99","-1","-1","1","0","[]","0","0","2","","","","","","","","",""
"pit-trial","31","382118","0.0-2.0-11.0-4.0","battery-v0.2","","""event"",""trial"",""time""
""fullscreenenter"",""1"",""3855""
","
","
","""event"",""trial"",""time""
""fullscreenenter"",""1"",""3855""
","
","","","-1","","","25","1239","145","&#9761;","elianto","#3366ff99","-1","-1","1","+10","[]","0","0","2","","","","","","","","",""
"call-function","32","382120","0.0-2.0-12.0","battery-v0.2","","""event"",""trial"",""time""
""fullscreenenter"",""1"",""3855""
""blur"",""33"",""404646""
""focus"",""33"",""405195""
","""event"",""trial"",""time""
""blur"",""33"",""404646""
","""event"",""trial"",""time""
""focus"",""33"",""405195""
","""event"",""trial"",""time""
""fullscreenenter"",""1"",""3855""
","
","","","","","","","","","","","","","","","","","","","","","","","","","","","",""
"pit-instructions","33","420683","0.0-2.0-13.0","battery-v0.2","","""event"",""trial"",""time""
""fullscreenenter"",""1"",""3855""
""blur"",""33"",""404646""
""focus"",""33"",""405195""
","""event"",""trial"",""time""
""blur"",""33"",""404646""
","""event"",""trial"",""time""
""focus"",""33"",""405195""
","""event"",""trial"",""time""
""fullscreenenter"",""1"",""3855""
","
","","[{""page_index"":0,""viewing_time"":6393.19999999553},{""page_index"":1,""viewing_time"":8800.20000000298},{""page_index"":2,""viewing_time"":4924.39999999851},{""page_index"":3,""viewing_time"":10803.5},{""page_index"":4,""viewing_time"":7639.20000000298}]","38560.89999999851","","","","","","","","","","","","","","","","","","","","","","","","",""
"pit-trial","34","424125","0.0-2.0-14.0-0.0","battery-v0.2","","""event"",""trial"",""time""
""fullscreenenter"",""1"",""3855""
""blur"",""33"",""404646""
""focus"",""33"",""405195""
","""event"",""trial"",""time""
""blur"",""33"",""404646""
","""event"",""trial"",""time""
""focus"",""33"",""405195""
","""event"",""trial"",""time""
""fullscreenenter"",""1"",""3855""
","
","","","584.7000000029802","","","25","1239","145","&#9826;","elianto","#f73b6a7A","-1"," ","0","-10","[1435.3999999985099]","1","0","3","","","","","","","","",""
"pit-trial","35","427346","0.0-2.0-14.0-1.0","battery-v0.2","","""event"",""trial"",""time""
""fullscreenenter"",""1"",""3855""
""blur"",""33"",""404646""
""focus"",""33"",""405195""
","""event"",""trial"",""time""
""blur"",""33"",""404646""
","""event"",""trial"",""time""
""focus"",""33"",""405195""
","""event"",""trial"",""time""
""fullscreenenter"",""1"",""3855""
","
","","","364.20000000298023","","","25","1239","145","&#9826;","elianto","#f73b6a7A","-1"," ","0","-10","[1217.7999999970198]","1","0","3","","","","","","","","",""
"pit-trial","36","432205","0.0-2.0-14.0-2.0","battery-v0.2","","""event"",""trial"",""time""
""fullscreenenter"",""1"",""3855""
""blur"",""33"",""404646""
""focus"",""33"",""405195""
","""event"",""trial"",""time""
""blur"",""33"",""404646""
","""event"",""trial"",""time""
""focus"",""33"",""405195""
","""event"",""trial"",""time""
""fullscreenenter"",""1"",""3855""
","
","","","-1","","","25","1239","145","&#9826;","elianto","#f73b6a7A","-1","-1","1","0","[]","0","0","3","","","","","","","","",""
"pit-trial","37","437064","0.0-2.0-14.0-3.0","battery-v0.2","","""event"",""trial"",""time""
""fullscreenenter"",""1"",""3855""
""blur"",""33"",""404646""
""focus"",""33"",""405195""
","""event"",""trial"",""time""
""blur"",""33"",""404646""
","""event"",""trial"",""time""
""focus"",""33"",""405195""
","""event"",""trial"",""time""
""fullscreenenter"",""1"",""3855""
","
","","","-1","","","25","1239","145","&#9826;","elianto","#f73b6a7A","-1","-1","1","-10","[]","0","0","3","","","","","","","","",""
"pit-trial","38","441923","0.0-2.0-14.0-4.0","battery-v0.2","","""event"",""trial"",""time""
""fullscreenenter"",""1"",""3855""
""blur"",""33"",""404646""
""focus"",""33"",""405195""
","""event"",""trial"",""time""
""blur"",""33"",""404646""
","""event"",""trial"",""time""
""focus"",""33"",""405195""
","""event"",""trial"",""time""
""fullscreenenter"",""1"",""3855""
","
","","","-1","","","25","1239","145","&#9826;","elianto","#f73b6a7A","-1","-1","1","0","[]","0","0","3","","","","","","","","",""
"pit-trial","39","446781","0.0-2.0-14.1-0.1","battery-v0.2","","""event"",""trial"",""time""
""fullscreenenter"",""1"",""3855""
""blur"",""33"",""404646""
""focus"",""33"",""405195""
","""event"",""trial"",""time""
""blur"",""33"",""404646""
","""event"",""trial"",""time""
""focus"",""33"",""405195""
","""event"",""trial"",""time""
""fullscreenenter"",""1"",""3855""
","
","","","-1","","","25","1239","145","&#9826;","elianto","#f73b6a7A","-1","-1","1","0","[]","0","0","3","","","","","","","","",""
"pit-trial","40","451641","0.0-2.0-14.1-1.1","battery-v0.2","","""event"",""trial"",""time""
""fullscreenenter"",""1"",""3855""
""blur"",""33"",""404646""
""focus"",""33"",""405195""
","""event"",""trial"",""time""
""blur"",""33"",""404646""
","""event"",""trial"",""time""
""focus"",""33"",""405195""
","""event"",""trial"",""time""
""fullscreenenter"",""1"",""3855""
","
","","","-1","","","25","1239","145","&#9826;","elianto","#f73b6a7A","-1","-1","1","0","[]","0","0","3","","","","","","","","",""
"pit-trial","41","456500","0.0-2.0-14.1-2.1","battery-v0.2","","""event"",""trial"",""time""
""fullscreenenter"",""1"",""3855""
""blur"",""33"",""404646""
""focus"",""33"",""405195""
","""event"",""trial"",""time""
""blur"",""33"",""404646""
","""event"",""trial"",""time""
""focus"",""33"",""405195""
","""event"",""trial"",""time""
""fullscreenenter"",""1"",""3855""
","
","","","-1","","","25","1239","145","&#9826;","elianto","#f73b6a7A","-1","-1","1","0","[]","0","0","3","","","","","","","","",""
"pit-trial","42","461359","0.0-2.0-14.1-3.1","battery-v0.2","","""event"",""trial"",""time""
""fullscreenenter"",""1"",""3855""
""blur"",""33"",""404646""
""focus"",""33"",""405195""
","""event"",""trial"",""time""
""blur"",""33"",""404646""
","""event"",""trial"",""time""
""focus"",""33"",""405195""
","""event"",""trial"",""time""
""fullscreenenter"",""1"",""3855""
","
","","","-1","","","25","1239","145","&#9826;","elianto","#f73b6a7A","-1","-1","1","-10","[]","0","0","3","","","","","","","","",""
"pit-trial","43","466212","0.0-2.0-14.1-4.1","battery-v0.2","","""event"",""trial"",""time""
""fullscreenenter"",""1"",""3855""
""blur"",""33"",""404646""
""focus"",""33"",""405195""
","""event"",""trial"",""time""
""blur"",""33"",""404646""
","""event"",""trial"",""time""
""focus"",""33"",""405195""
","""event"",""trial"",""time""
""fullscreenenter"",""1"",""3855""
","
","","","-1","","","25","1239","145","&#9826;","elianto","#f73b6a7A","-1","-1","1","0","[]","0","0","3","","","","","","","","",""
"call-function","44","466214","0.0-2.0-15.0","battery-v0.2","","""event"",""trial"",""time""
""fullscreenenter"",""1"",""3855""
""blur"",""33"",""404646""
""focus"",""33"",""405195""
","""event"",""trial"",""time""
""blur"",""33"",""404646""
","""event"",""trial"",""time""
""focus"",""33"",""405195""
","""event"",""trial"",""time""
""fullscreenenter"",""1"",""3855""
","
","","","","","","","","","","","","","","","","","","","","","","","","","","","",""
"pit-instructions","45","504561","0.0-2.0-16.0","battery-v0.2","","""event"",""trial"",""time""
""fullscreenenter"",""1"",""3855""
""blur"",""33"",""404646""
""focus"",""33"",""405195""
","""event"",""trial"",""time""
""blur"",""33"",""404646""
","""event"",""trial"",""time""
""focus"",""33"",""405195""
","""event"",""trial"",""time""
""fullscreenenter"",""1"",""3855""
","
","","[{""page_index"":0,""viewing_time"":11787},{""page_index"":1,""viewing_time"":8482.80000000447},{""page_index"":2,""viewing_time"":10876.19999999553},{""page_index"":3,""viewing_time"":7198.9000000059605}]","38345.10000000149","","","","","","","","","","","","","","","","","","","","","","","","",""
"pit-trial","46","508089","0.0-2.0-17.0-0.0","battery-v0.2","","""event"",""trial"",""time""
""fullscreenenter"",""1"",""3855""
""blur"",""33"",""404646""
""focus"",""33"",""405195""
","""event"",""trial"",""time""
""blur"",""33"",""404646""
","""event"",""trial"",""time""
""focus"",""33"",""405195""
","""event"",""trial"",""time""
""fullscreenenter"",""1"",""3855""
","
","","","667.6000000014901","","","25","1239","145","&#9789;","elianto","#f73b6a7A"," "," ","1","0","[1522]","1","0","4","","","","","","","","",""
"pit-trial","47","511307","0.0-2.0-17.0-1.0","battery-v0.2","","""event"",""trial"",""time""
""fullscreenenter"",""1"",""3855""
""blur"",""33"",""404646""
""focus"",""33"",""405195""
","""event"",""trial"",""time""
""blur"",""33"",""404646""
","""event"",""trial"",""time""
""focus"",""33"",""405195""
","""event"",""trial"",""time""
""fullscreenenter"",""1"",""3855""
","
","","","363.5","","","25","1239","145","&#9789;","elianto","#f73b6a7A"," "," ","1","0","[1214.2999999970198]","1","0","4","","","","","","","","",""
"pit-trial","48","514646","0.0-2.0-17.0-2.0","battery-v0.2","","""event"",""trial"",""time""
""fullscreenenter"",""1"",""3855""
""blur"",""33"",""404646""
""focus"",""33"",""405195""
","""event"",""trial"",""time""
""blur"",""33"",""404646""
","""event"",""trial"",""time""
""focus"",""33"",""405195""
","""event"",""trial"",""time""
""fullscreenenter"",""1"",""3855""
","
","","","481.69999999552965","","","25","1239","145","&#9789;","elianto","#f73b6a7A"," "," ","1","0","[1332.2999999970198]","1","0","4","","","","","","","","",""
"pit-trial","49","518179","0.0-2.0-17.0-3.0","battery-v0.2","","""event"",""trial"",""time""
""fullscreenenter"",""1"",""3855""
""blur"",""33"",""404646""
""focus"",""33"",""405195""
","""event"",""trial"",""time""
""blur"",""33"",""404646""
","""event"",""trial"",""time""
""focus"",""33"",""405195""
","""event"",""trial"",""time""
""fullscreenenter"",""1"",""3855""
","
","","","678.1000000014901","","","25","1239","145","&#9789;","elianto","#f73b6a7A"," "," ","1","-10","[1528.2999999970198]","1","0","4","","","","","","","","",""
"pit-trial","50","521547","0.0-2.0-17.0-4.0","battery-v0.2","","""event"",""trial"",""time""
""fullscreenenter"",""1"",""3855""
""blur"",""33"",""404646""
""focus"",""33"",""405195""
","""event"",""trial"",""time""
""blur"",""33"",""404646""
","""event"",""trial"",""time""
""focus"",""33"",""405195""
","""event"",""trial"",""time""
""fullscreenenter"",""1"",""3855""
","
","","","512.6000000014901","","","25","1239","145","&#9789;","elianto","#f73b6a7A"," "," ","1","0","[1363.0999999940395]","1","0","4","","","","","","","","",""
"call-function","51","521549","0.0-2.0-18.0","battery-v0.2","","""event"",""trial"",""time""
""fullscreenenter"",""1"",""3855""
""blur"",""33"",""404646""
""focus"",""33"",""405195""
","""event"",""trial"",""time""
""blur"",""33"",""404646""
","""event"",""trial"",""time""
""focus"",""33"",""405195""
","""event"",""trial"",""time""
""fullscreenenter"",""1"",""3855""
","
","","","","","","","","","","","","","","","","","","","","","","","","","","","",""
"pit-instructions","52","600767","0.0-2.0-19.0","battery-v0.2","","""event"",""trial"",""time""
""fullscreenenter"",""1"",""3855""
""blur"",""33"",""404646""
""focus"",""33"",""405195""
","""event"",""trial"",""time""
""blur"",""33"",""404646""
","""event"",""trial"",""time""
""focus"",""33"",""405195""
","""event"",""trial"",""time""
""fullscreenenter"",""1"",""3855""
","
","","[{""page_index"":0,""viewing_time"":7158},{""page_index"":1,""viewing_time"":6711.20000000298},{""page_index"":2,""viewing_time"":14759.09999999404},{""page_index"":3,""viewing_time"":9246.20000000298},{""page_index"":4,""viewing_time"":9263.5},{""page_index"":5,""viewing_time"":8278.70000000298},{""page_index"":6,""viewing_time"":10056.29999999702},{""page_index"":7,""viewing_time"":7729.60000000149},{""page_index"":8,""viewing_time"":6012.60000000149}]","79215.89999999851","","","","","","","","","","","","","","","","","","","","","","","","",""
"pit-comprehension","53","605993","0.0-2.0-20.0-0.0","battery-v0.2","","""event"",""trial"",""time""
""fullscreenenter"",""1"",""3855""
""blur"",""33"",""404646""
""focus"",""33"",""405195""
","""event"",""trial"",""time""
""blur"",""33"",""404646""
","""event"",""trial"",""time""
""focus"",""33"",""405195""
","""event"",""trial"",""time""
""fullscreenenter"",""1"",""3855""
","
","","","5221.19999999553","[""SPACE""]","0","25","1239","145","","","","","","","","","","","","","","","","","","","",""
"pit-instructions","54","609183","0.0-2.0-20.0-1.0","battery-v0.2","","""event"",""trial"",""time""
""fullscreenenter"",""1"",""3855""
""blur"",""33"",""404646""
""focus"",""33"",""405195""
","""event"",""trial"",""time""
""blur"",""33"",""404646""
","""event"",""trial"",""time""
""focus"",""33"",""405195""
","""event"",""trial"",""time""
""fullscreenenter"",""1"",""3855""
","
","","[{""page_index"":0,""viewing_time"":3160.60000000149}]","3161.1999999955297","","","","","","","","","","","","","","","","","","","","","","","","",""
"pit-comprehension","55","619060","0.0-2.0-21.0-0.0","battery-v0.2","","""event"",""trial"",""time""
""fullscreenenter"",""1"",""3855""
""blur"",""33"",""404646""
""focus"",""33"",""405195""
","""event"",""trial"",""time""
""blur"",""33"",""404646""
","""event"",""trial"",""time""
""focus"",""33"",""405195""
","""event"",""trial"",""time""
""fullscreenenter"",""1"",""3855""
","
","","","9870.40000000596","[""10""]","0","25","1239","145","","","","","","","","","","","","","","","","","","","",""
"pit-instructions","56","622230","0.0-2.0-21.0-1.0","battery-v0.2","","""event"",""trial"",""time""
""fullscreenenter"",""1"",""3855""
""blur"",""33"",""404646""
""focus"",""33"",""405195""
","""event"",""trial"",""time""
""blur"",""33"",""404646""
","""event"",""trial"",""time""
""focus"",""33"",""405195""
","""event"",""trial"",""time""
""fullscreenenter"",""1"",""3855""
","
","","[{""page_index"":0,""viewing_time"":3140.89999999851}]","3141.2000000029802","","","","","","","","","","","","","","","","","","","","","","","","",""
"pit-comprehension","57","628737","0.0-2.0-22.0-0.0","battery-v0.2","","""event"",""trial"",""time""
""fullscreenenter"",""1"",""3855""
""blur"",""33"",""404646""
""focus"",""33"",""405195""
","""event"",""trial"",""time""
""blur"",""33"",""404646""
","""event"",""trial"",""time""
""focus"",""33"",""405195""
","""event"",""trial"",""time""
""fullscreenenter"",""1"",""3855""
","
","","","6502.5","[""0""]","0","25","1239","145","","","","","","","","","","","","","","","","","","","",""
"pit-instructions","58","631825","0.0-2.0-22.0-1.0","battery-v0.2","","""event"",""trial"",""time""
""fullscreenenter"",""1"",""3855""
""blur"",""33"",""404646""
""focus"",""33"",""405195""
","""event"",""trial"",""time""
""blur"",""33"",""404646""
","""event"",""trial"",""time""
""focus"",""33"",""405195""
","""event"",""trial"",""time""
""fullscreenenter"",""1"",""3855""
","
","","[{""page_index"":0,""viewing_time"":3068.10000000149}]","3068.7000000029802","","","","","","","","","","","","","","","","","","","","","","","","",""
"pit-comprehension","59","640663","0.0-2.0-23.0-0.0","battery-v0.2","","""event"",""trial"",""time""
""fullscreenenter"",""1"",""3855""
""blur"",""33"",""404646""
""focus"",""33"",""405195""
","""event"",""trial"",""time""
""blur"",""33"",""404646""
","""event"",""trial"",""time""
""focus"",""33"",""405195""
","""event"",""trial"",""time""
""fullscreenenter"",""1"",""3855""
","
","","","8832.10000000149","[""True""]","0","25","1239","145","","","","","","","","","","","","","","","","","","","",""
"pit-instructions","60","643980","0.0-2.0-23.0-1.0","battery-v0.2","","""event"",""trial"",""time""
""fullscreenenter"",""1"",""3855""
""blur"",""33"",""404646""
""focus"",""33"",""405195""
","""event"",""trial"",""time""
""blur"",""33"",""404646""
","""event"",""trial"",""time""
""focus"",""33"",""405195""
","""event"",""trial"",""time""
""fullscreenenter"",""1"",""3855""
","
","","[{""page_index"":0,""viewing_time"":3288.1999999955297}]","3289.1999999955297","","","","","","","","","","","","","","","","","","","","","","","","",""
"pit-comprehension","61","651577","0.0-2.0-24.0-0.0","battery-v0.2","","""event"",""trial"",""time""
""fullscreenenter"",""1"",""3855""
""blur"",""33"",""404646""
""focus"",""33"",""405195""
","""event"",""trial"",""time""
""blur"",""33"",""404646""
","""event"",""trial"",""time""
""focus"",""33"",""405195""
","""event"",""trial"",""time""
""fullscreenenter"",""1"",""3855""
","
","","","7592.29999999702","[""True""]","0","25","1239","145","","","","","","","","","","","","","","","","","","","",""
"pit-instructions","62","653004","0.0-2.0-24.0-1.0","battery-v0.2","","""event"",""trial"",""time""
""fullscreenenter"",""1"",""3855""
""blur"",""33"",""404646""
""focus"",""33"",""405195""
","""event"",""trial"",""time""
""blur"",""33"",""404646""
","""event"",""trial"",""time""
""focus"",""33"",""405195""
","""event"",""trial"",""time""
""fullscreenenter"",""1"",""3855""
","
","","[{""page_index"":0,""viewing_time"":1400.1999999955297}]","1400.5999999940395","","","","","","","","","","","","","","","","","","","","","","","","",""
"pit-comprehension","63","659441","0.0-2.0-25.0-0.0","battery-v0.2","","""event"",""trial"",""time""
""fullscreenenter"",""1"",""3855""
""blur"",""33"",""404646""
""focus"",""33"",""405195""
","""event"",""trial"",""time""
""blur"",""33"",""404646""
","""event"",""trial"",""time""
""focus"",""33"",""405195""
","""event"",""trial"",""time""
""fullscreenenter"",""1"",""3855""
","
","","","6433.5999999940395","[""True""]","0","25","1239","145","","","","","","","","","","","","","","","","","","","",""
"pit-instructions","64","660987","0.0-2.0-25.0-1.0","battery-v0.2","","""event"",""trial"",""time""
""fullscreenenter"",""1"",""3855""
""blur"",""33"",""404646""
""focus"",""33"",""405195""
","""event"",""trial"",""time""
""blur"",""33"",""404646""
","""event"",""trial"",""time""
""focus"",""33"",""405195""
","""event"",""trial"",""time""
""fullscreenenter"",""1"",""3855""
","
","","[{""page_index"":0,""viewing_time"":1522}]","1522.2999999970198","","","","","","","","","","","","","","","","","","","","","","","","",""
"pit-comprehension","65","665850","0.0-2.0-26.0-0.0","battery-v0.2","","""event"",""trial"",""time""
""fullscreenenter"",""1"",""3855""
""blur"",""33"",""404646""
""focus"",""33"",""405195""
","""event"",""trial"",""time""
""blur"",""33"",""404646""
","""event"",""trial"",""time""
""focus"",""33"",""405195""
","""event"",""trial"",""time""
""fullscreenenter"",""1"",""3855""
","
","","","4859.70000000298","[""False""]","0","25","1239","145","","","","","","","","","","","","","","","","","","","",""
"pit-instructions","66","667151","0.0-2.0-26.0-1.0","battery-v0.2","","""event"",""trial"",""time""
""fullscreenenter"",""1"",""3855""
""blur"",""33"",""404646""
""focus"",""33"",""405195""
","""event"",""trial"",""time""
""blur"",""33"",""404646""
","""event"",""trial"",""time""
""focus"",""33"",""405195""
","""event"",""trial"",""time""
""fullscreenenter"",""1"",""3855""
","
","","[{""page_index"":0,""viewing_time"":1271.8999999985099}]","1272.2000000029802","","","","","","","","","","","","","","","","","","","","","","","","",""
"pit-instructions","67","690532","0.0-3.0","battery-v0.2","","""event"",""trial"",""time""
""fullscreenenter"",""1"",""3855""
""blur"",""33"",""404646""
""focus"",""33"",""405195""
","""event"",""trial"",""time""
""blur"",""33"",""404646""
","""event"",""trial"",""time""
""focus"",""33"",""405195""
","""event"",""trial"",""time""
""fullscreenenter"",""1"",""3855""
","
","","[{""page_index"":0,""viewing_time"":7411.89999999851},{""page_index"":1,""viewing_time"":6661.60000000149},{""page_index"":2,""viewing_time"":9304.20000000298}]","23377.89999999851","","","","","","","","","","","","","","","","","","","","","","","","",""
"pit-trial","68","694453","0.0-4.0","battery-v0.2","","""event"",""trial"",""time""
""fullscreenenter"",""1"",""3855""
""blur"",""33"",""404646""
""focus"",""33"",""405195""
","""event"",""trial"",""time""
""blur"",""33"",""404646""
","""event"",""trial"",""time""
""focus"",""33"",""405195""
","""event"",""trial"",""time""
""fullscreenenter"",""1"",""3855""
","
","","","1062.8999999985099","","","25","1239","145","&#9730;","elianto","#3366ff99"," "," ","1","+10","[1913.5]","1","1","","","1239","1","1","1","win","go","0","[]"
"pit-trial","69","698725","0.0-5.0","battery-v0.2","","""event"",""trial"",""time""
""fullscreenenter"",""1"",""3855""
""blur"",""33"",""404646""
""focus"",""33"",""405195""
","""event"",""trial"",""time""
""blur"",""33"",""404646""
","""event"",""trial"",""time""
""focus"",""33"",""405195""
","""event"",""trial"",""time""
""fullscreenenter"",""1"",""3855""
","
","","","1413.1000000014901","","","25","1239","145","&#9728;","elianto","#f73b6a7A","-1"," ","0","-10","[2268.7999999970198]","1","1","","","1239","2","0","4","lose","no-go","0","0"
"pit-trial","70","702582","0.0-6.0","battery-v0.2","","""event"",""trial"",""time""
""fullscreenenter"",""1"",""3855""
""blur"",""33"",""404646""
""focus"",""33"",""405195""
","""event"",""trial"",""time""
""blur"",""33"",""404646""
","""event"",""trial"",""time""
""focus"",""33"",""405195""
","""event"",""trial"",""time""
""fullscreenenter"",""1"",""3855""
","
","","","1001.6000000014901","","","25","1239","145","&#9733;","elianto","#3366ff99","-1"," ","0","0","[1851.7999999970198]","1","1","","","1239","3","2","2","win","no-go","0","0"
"pit-trial","71","706395","0.0-7.0","battery-v0.2","","""event"",""trial"",""time""
""fullscreenenter"",""1"",""3855""
""blur"",""33"",""404646""
""focus"",""33"",""405195""
","""event"",""trial"",""time""
""blur"",""33"",""404646""
","""event"",""trial"",""time""
""focus"",""33"",""405195""
","""event"",""trial"",""time""
""fullscreenenter"",""1"",""3855""
","
","","","955.5","","","25","1239","145","&#9752;","elianto","#f73b6a7A"," "," ","1","0","[1807.6999999955297]","1","1","","","1239","4","3","3","lose","go","0","0"
"pit-trial","72","711248","0.0-8.0","battery-v0.2","","""event"",""trial"",""time""
""fullscreenenter"",""1"",""3855""
""blur"",""33"",""404646""
""focus"",""33"",""405195""
","""event"",""trial"",""time""
""blur"",""33"",""404646""
","""event"",""trial"",""time""
""focus"",""33"",""405195""
","""event"",""trial"",""time""
""fullscreenenter"",""1"",""3855""
","
","","","-1","","","25","1239","145","&#9728;","elianto","#f73b6a7A","-1","-1","1","0","[]","0","1","","","1239","5","0","4","lose","no-go","0","0"
"pit-trial","73","715488","0.0-9.0","battery-v0.2","","""event"",""trial"",""time""
""fullscreenenter"",""1"",""3855""
""blur"",""33"",""404646""
""focus"",""33"",""405195""
","""event"",""trial"",""time""
""blur"",""33"",""404646""
","""event"",""trial"",""time""
""focus"",""33"",""405195""
","""event"",""trial"",""time""
""fullscreenenter"",""1"",""3855""
","
","","","1386.2999999970198","","","25","1239","145","&#9752;","elianto","#f73b6a7A"," "," ","1","0","[2238.10000000149]","1","1","","","1239","6","3","3","lose","go","0","0"
"pit-trial","74","719772","0.0-10.0","battery-v0.2","","""event"",""trial"",""time""
""fullscreenenter"",""1"",""3855""
""blur"",""33"",""404646""
""focus"",""33"",""405195""
","""event"",""trial"",""time""
""blur"",""33"",""404646""
","""event"",""trial"",""time""
""focus"",""33"",""405195""
","""event"",""trial"",""time""
""fullscreenenter"",""1"",""3855""
","
","","","1422.7999999970198","","","25","1239","145","&#9733;","elianto","#3366ff99","-1"," ","0","0","[2277.10000000149]","1","1","","","1239","7","2","2","win","no-go","0","0"
"pit-trial","75","723271","0.0-11.0","battery-v0.2","","""event"",""trial"",""time""
""fullscreenenter"",""1"",""3855""
""blur"",""33"",""404646""
""focus"",""33"",""405195""
","""event"",""trial"",""time""
""blur"",""33"",""404646""
","""event"",""trial"",""time""
""focus"",""33"",""405195""
","""event"",""trial"",""time""
""fullscreenenter"",""1"",""3855""
","
","","","643.5","","","25","1239","145","&#9730;","elianto","#3366ff99"," "," ","1","+10","[1495.1000000014901]","1","1","","","1239","8","1","1","win","go","0","0"
"pit-trial","76","728125","0.0-12.0","battery-v0.2","","""event"",""trial"",""time""
""fullscreenenter"",""1"",""3855""
""blur"",""33"",""404646""
""focus"",""33"",""405195""
","""event"",""trial"",""time""
""blur"",""33"",""404646""
","""event"",""trial"",""time""
""focus"",""33"",""405195""
","""event"",""trial"",""time""
""fullscreenenter"",""1"",""3855""
","
","","","-1","","","25","1239","145","&#9728;","elianto","#f73b6a7A","-1","-1","1","-10","[]","0","1","","","1239","9","0","4","lose","no-go","1","0"
"pit-trial","77","732188","0.0-13.0","battery-v0.2","","""event"",""trial"",""time""
""fullscreenenter"",""1"",""3855""
""blur"",""33"",""404646""
""focus"",""33"",""405195""
","""event"",""trial"",""time""
""blur"",""33"",""404646""
","""event"",""trial"",""time""
""focus"",""33"",""405195""
","""event"",""trial"",""time""
""fullscreenenter"",""1"",""3855""
","
","","","1209.5","","","25","1239","145","&#9752;","elianto","#f73b6a7A"," "," ","1","-10","[2059.60000000149]","1","1","","","1239","10","3","3","lose","go","1","0"
"pit-trial","78","736024","0.0-14.0","battery-v0.2","","""event"",""trial"",""time""
""fullscreenenter"",""1"",""3855""
""blur"",""33"",""404646""
""focus"",""33"",""405195""
","""event"",""trial"",""time""
""blur"",""33"",""404646""
","""event"",""trial"",""time""
""focus"",""33"",""405195""
","""event"",""trial"",""time""
""fullscreenenter"",""1"",""3855""
","
","","","980.2000000029802","","","25","1239","145","&#9730;","elianto","#3366ff99"," "," ","1","+10","[1830.3999999985099]","1","1","","","1239","11","1","1","win","go","0","0"
"pit-trial","79","740183","0.0-15.0","battery-v0.2","","""event"",""trial"",""time""
""fullscreenenter"",""1"",""3855""
""blur"",""33"",""404646""
""focus"",""33"",""405195""
","""event"",""trial"",""time""
""blur"",""33"",""404646""
","""event"",""trial"",""time""
""focus"",""33"",""405195""
","""event"",""trial"",""time""
""fullscreenenter"",""1"",""3855""
","
","","","1302.8999999985099","","","25","1239","145","&#9733;","elianto","#3366ff99","-1"," ","0","0","[2153.2000000029802]","1","1","","","1239","12","2","2","win","no-go","0","0"
"pit-trial","80","744322","0.0-16.0","battery-v0.2","","""event"",""trial"",""time""
""fullscreenenter"",""1"",""3855""
""blur"",""33"",""404646""
""focus"",""33"",""405195""
","""event"",""trial"",""time""
""blur"",""33"",""404646""
","""event"",""trial"",""time""
""focus"",""33"",""405195""
","""event"",""trial"",""time""
""fullscreenenter"",""1"",""3855""
","
","","","1280.7000000029802","","","25","1239","145","&#9730;","elianto","#3366ff99"," "," ","1","+10","[2133.60000000149]","1","1","","","1239","13","1","1","win","go","0","0"
"pit-trial","81","749178","0.0-17.0","battery-v0.2","","""event"",""trial"",""time""
""fullscreenenter"",""1"",""3855""
""blur"",""33"",""404646""
""focus"",""33"",""405195""
","""event"",""trial"",""time""
""blur"",""33"",""404646""
","""event"",""trial"",""time""
""focus"",""33"",""405195""
","""event"",""trial"",""time""
""fullscreenenter"",""1"",""3855""
","
","","","-1","","","25","1239","145","&#9733;","elianto","#3366ff99","-1","-1","1","+10","[]","0","1","","","1239","14","2","2","win","no-go","0","0"
"pit-trial","82","754036","0.0-18.0","battery-v0.2","","""event"",""trial"",""time""
""fullscreenenter"",""1"",""3855""
""blur"",""33"",""404646""
""focus"",""33"",""405195""
","""event"",""trial"",""time""
""blur"",""33"",""404646""
","""event"",""trial"",""time""
""focus"",""33"",""405195""
","""event"",""trial"",""time""
""fullscreenenter"",""1"",""3855""
","
","","","-1","","","25","1239","145","&#9752;","elianto","#f73b6a7A"," ","-1","0","-10","[2986.6999999955297]","1","1","","","1239","15","3","3","lose","go","0","0"
"pit-trial","83","758893","0.0-19.0","battery-v0.2","","""event"",""trial"",""time""
""fullscreenenter"",""1"",""3855""
""blur"",""33"",""404646""
""focus"",""33"",""405195""
","""event"",""trial"",""time""
""blur"",""33"",""404646""
","""event"",""trial"",""time""
""focus"",""33"",""405195""
","""event"",""trial"",""time""
""fullscreenenter"",""1"",""3855""
","
","","","-1","","","25","1239","145","&#9728;","elianto","#f73b6a7A","-1","-1","1","0","[]","0","1","","","1239","16","0","4","lose","no-go","0","0"
"pit-trial","84","763752","0.0-20.0","battery-v0.2","","""event"",""trial"",""time""
""fullscreenenter"",""1"",""3855""
""blur"",""33"",""404646""
""focus"",""33"",""405195""
","""event"",""trial"",""time""
""blur"",""33"",""404646""
","""event"",""trial"",""time""
""focus"",""33"",""405195""
","""event"",""trial"",""time""
""fullscreenenter"",""1"",""3855""
","
","","","-1","","","25","1239","145","&#9730;","elianto","#3366ff99"," ","-1","0","+10","[3111.7999999970198]","1","1","","","1239","17","1","1","win","go","1","0"
"pit-trial","85","768611","0.0-21.0","battery-v0.2","","""event"",""trial"",""time""
""fullscreenenter"",""1"",""3855""
""blur"",""33"",""404646""
""focus"",""33"",""405195""
","""event"",""trial"",""time""
""blur"",""33"",""404646""
","""event"",""trial"",""time""
""focus"",""33"",""405195""
","""event"",""trial"",""time""
""fullscreenenter"",""1"",""3855""
","
","","","-1","","","25","1239","145","&#9728;","elianto","#f73b6a7A","-1","-1","1","0","[]","0","1","","","1239","18","0","4","lose","no-go","0","0"
"pit-trial","86","773465","0.0-22.0","battery-v0.2","","""event"",""trial"",""time""
""fullscreenenter"",""1"",""3855""
""blur"",""33"",""404646""
""focus"",""33"",""405195""
","""event"",""trial"",""time""
""blur"",""33"",""404646""
","""event"",""trial"",""time""
""focus"",""33"",""405195""
","""event"",""trial"",""time""
""fullscreenenter"",""1"",""3855""
","
","","","-1","","","25","1239","145","&#9752;","elianto","#f73b6a7A"," ","-1","0","0","[]","0","1","","","1239","19","3","3","lose","go","1","0"
"pit-trial","87","777773","0.0-23.0","battery-v0.2","","""event"",""trial"",""time""
""fullscreenenter"",""1"",""3855""
""blur"",""33"",""404646""
""focus"",""33"",""405195""
","""event"",""trial"",""time""
""blur"",""33"",""404646""
","""event"",""trial"",""time""
""focus"",""33"",""405195""
","""event"",""trial"",""time""
""fullscreenenter"",""1"",""3855""
","
","","","1443.7000000029802","","","25","1239","145","&#9733;","elianto","#3366ff99","-1"," ","0","0","[2306.60000000149]","1","1","","","1239","20","2","2","win","no-go","0","0"
"pit-instructions","88","790255","0.0-24.0","battery-v0.2","","""event"",""trial"",""time""
""fullscreenenter"",""1"",""3855""
""blur"",""33"",""404646""
""focus"",""33"",""405195""
","""event"",""trial"",""time""
""blur"",""33"",""404646""
","""event"",""trial"",""time""
""focus"",""33"",""405195""
","""event"",""trial"",""time""
""fullscreenenter"",""1"",""3855""
","
","","[{""page_index"":0,""viewing_time"":5848.4000000059605},{""page_index"":1,""viewing_time"":6631.39999999851}]","12480.10000000149","","","","","","","","","","","","","","","","","","","","","","","","",""
"pit-trial","89","794096","0.0-25.0","battery-v0.2","","""event"",""trial"",""time""
""fullscreenenter"",""1"",""3855""
""blur"",""33"",""404646""
""focus"",""33"",""405195""
","""event"",""trial"",""time""
""blur"",""33"",""404646""
","""event"",""trial"",""time""
""focus"",""33"",""405195""
","""event"",""trial"",""time""
""fullscreenenter"",""1"",""3855""
","
","","","982.1999999955297","","","25","1239","145","d","elianto","#3366ff99"," "," ","1","0","[1836.6000000014901]","1","2","","","1239","21","2","1","win","go","1","0"
"pit-trial","90","798454","0.0-26.0","battery-v0.2","","""event"",""trial"",""time""
""fullscreenenter"",""1"",""3855""
""blur"",""33"",""404646""
""focus"",""33"",""405195""
","""event"",""trial"",""time""
""blur"",""33"",""404646""
","""event"",""trial"",""time""
""focus"",""33"",""405195""
","""event"",""trial"",""time""
""fullscreenenter"",""1"",""3855""
","
","","","1505.8999999985099","","","25","1239","145","k","elianto","#f73b6a7A"," "," ","1","0","[2356.1999999955297]","1","2","","","1239","22","3","3","lose","go","0","0"
"pit-trial","91","802675","0.0-27.0","battery-v0.2","","""event"",""trial"",""time""
""fullscreenenter"",""1"",""3855""
""blur"",""33"",""404646""
""focus"",""33"",""405195""
","""event"",""trial"",""time""
""blur"",""33"",""404646""
","""event"",""trial"",""time""
""focus"",""33"",""405195""
","""event"",""trial"",""time""
""fullscreenenter"",""1"",""3855""
","
","","","1365.6000000014901","","","25","1239","145","v","elianto","#3366ff99","-1"," ","0","0","[2217]","1","2","","","1239","23","0","2","win","no-go","0","0"
"pit-trial","92","806776","0.0-28.0","battery-v0.2","","""event"",""trial"",""time""
""fullscreenenter"",""1"",""3855""
""blur"",""33"",""404646""
""focus"",""33"",""405195""
","""event"",""trial"",""time""
""blur"",""33"",""404646""
","""event"",""trial"",""time""
""focus"",""33"",""405195""
","""event"",""trial"",""time""
""fullscreenenter"",""1"",""3855""
","
","","","1247.8999999985099","","","25","1239","145","j","elianto","#3366ff99","-1"," ","0","0","[2098]","1","2","","","1239","24","1","2","win","no-go","0","0"
"pit-trial","93","811074","0.0-29.0","battery-v0.2","","""event"",""trial"",""time""
""fullscreenenter"",""1"",""3855""
""blur"",""33"",""404646""
""focus"",""33"",""405195""
","""event"",""trial"",""time""
""blur"",""33"",""404646""
","""event"",""trial"",""time""
""focus"",""33"",""405195""
","""event"",""trial"",""time""
""fullscreenenter"",""1"",""3855""
","
","","","1441.1000000014901","","","25","1239","145","d","elianto","#3366ff99"," "," ","1","+10","[2294.7000000029802]","1","2","","","1239","25","2","1","win","go","0","0"
"pit-trial","94","815654","0.0-30.0","battery-v0.2","","""event"",""trial"",""time""
""fullscreenenter"",""1"",""3855""
""blur"",""33"",""404646""
""focus"",""33"",""405195""
","""event"",""trial"",""time""
""blur"",""33"",""404646""
","""event"",""trial"",""time""
""focus"",""33"",""405195""
","""event"",""trial"",""time""
""fullscreenenter"",""1"",""3855""
","
","","","1719.7999999970198","","","25","1239","145","j","elianto","#3366ff99","-1"," ","0","+10","[2577.9000000059605]","1","2","","","1239","26","1","2","win","no-go","1","0"
"pit-trial","95","819539","0.0-31.0","battery-v0.2","","""event"",""trial"",""time""
""fullscreenenter"",""1"",""3855""
""blur"",""33"",""404646""
""focus"",""33"",""405195""
","""event"",""trial"",""time""
""blur"",""33"",""404646""
","""event"",""trial"",""time""
""focus"",""33"",""405195""
","""event"",""trial"",""time""
""fullscreenenter"",""1"",""3855""
","
","","","1030.1999999955297","","","25","1239","145","v","elianto","#3366ff99","-1"," ","0","0","[1880.8999999985099]","1","2","","","1239","27","0","2","win","no-go","0","0"
"pit-trial","96","823291","0.0-32.0","battery-v0.2","","""event"",""trial"",""time""
""fullscreenenter"",""1"",""3855""
""blur"",""33"",""404646""
""focus"",""33"",""405195""
","""event"",""trial"",""time""
""blur"",""33"",""404646""
","""event"",""trial"",""time""
""focus"",""33"",""405195""
","""event"",""trial"",""time""
""fullscreenenter"",""1"",""3855""
","
","","","898.2000000029802","","","25","1239","145","k","elianto","#f73b6a7A"," "," ","1","-10","[1749.7000000029802]","1","2","","","1239","28","3","3","lose","go","1","0"
"pit-trial","97","827876","0.0-33.0","battery-v0.2","","""event"",""trial"",""time""
""fullscreenenter"",""1"",""3855""
""blur"",""33"",""404646""
""focus"",""33"",""405195""
","""event"",""trial"",""time""
""blur"",""33"",""404646""
","""event"",""trial"",""time""
""focus"",""33"",""405195""
","""event"",""trial"",""time""
""fullscreenenter"",""1"",""3855""
","
","","","1727.5","","","25","1239","145","d","elianto","#3366ff99"," "," ","1","0","[2580.39999999851]","1","2","","","1239","29","2","1","win","go","1","0"
"pit-trial","98","831515","0.0-34.0","battery-v0.2","","""event"",""trial"",""time""
""fullscreenenter"",""1"",""3855""
""blur"",""33"",""404646""
""focus"",""33"",""405195""
","""event"",""trial"",""time""
""blur"",""33"",""404646""
","""event"",""trial"",""time""
""focus"",""33"",""405195""
","""event"",""trial"",""time""
""fullscreenenter"",""1"",""3855""
","
","","","776.8000000044703","","","25","1239","145","k","elianto","#f73b6a7A"," "," ","1","0","[1631]","1","2","","","1239","30","3","3","lose","go","0","0"
"pit-trial","99","835364","0.0-35.0","battery-v0.2","","""event"",""trial"",""time""
""fullscreenenter"",""1"",""3855""
""blur"",""33"",""404646""
""focus"",""33"",""405195""
","""event"",""trial"",""time""
""blur"",""33"",""404646""
","""event"",""trial"",""time""
""focus"",""33"",""405195""
","""event"",""trial"",""time""
""fullscreenenter"",""1"",""3855""
","
","","","989","","","25","1239","145","j","elianto","#3366ff99","-1"," ","0","0","[1840.8000000044703]","1","2","","","1239","31","1","2","win","no-go","0","0"
"pit-trial","100","838928","0.0-36.0","battery-v0.2","","""event"",""trial"",""time""
""fullscreenenter"",""1"",""3855""
""blur"",""33"",""404646""
""focus"",""33"",""405195""
","""event"",""trial"",""time""
""blur"",""33"",""404646""
","""event"",""trial"",""time""
""focus"",""33"",""405195""
","""event"",""trial"",""time""
""fullscreenenter"",""1"",""3855""
","
","","","706","","","25","1239","145","v","elianto","#3366ff99","-1"," ","0","+10","[1556.1999999955297]","1","2","","","1239","32","0","2","win","no-go","1","0"
"pit-trial","101","842896","0.0-37.0","battery-v0.2","","""event"",""trial"",""time""
""fullscreenenter"",""1"",""3855""
""blur"",""33"",""404646""
""focus"",""33"",""405195""
","""event"",""trial"",""time""
""blur"",""33"",""404646""
","""event"",""trial"",""time""
""focus"",""33"",""405195""
","""event"",""trial"",""time""
""fullscreenenter"",""1"",""3855""
","
","","","1110.8999999985099","","","25","1239","145","v","elianto","#3366ff99","-1"," ","0","0","[1961.6000000014901]","1","2","","","1239","33","0","2","win","no-go","0","0"
"pit-trial","102","847754","0.0-38.0","battery-v0.2","","""event"",""trial"",""time""
""fullscreenenter"",""1"",""3855""
""blur"",""33"",""404646""
""focus"",""33"",""405195""
","""event"",""trial"",""time""
""blur"",""33"",""404646""
","""event"",""trial"",""time""
""focus"",""33"",""405195""
","""event"",""trial"",""time""
""fullscreenenter"",""1"",""3855""
","
","","","-1","","","25","1239","145","k","elianto","#f73b6a7A"," ","-1","0","-10","[]","0","2","","","1239","34","3","3","lose","go","0","0"
"pit-trial","103","851596","0.0-39.0","battery-v0.2","","""event"",""trial"",""time""
""fullscreenenter"",""1"",""3855""
""blur"",""33"",""404646""
""focus"",""33"",""405195""
","""event"",""trial"",""time""
""blur"",""33"",""404646""
","""event"",""trial"",""time""
""focus"",""33"",""405195""
","""event"",""trial"",""time""
""fullscreenenter"",""1"",""3855""
","
","","","986.1000000014901","","","25","1239","145","j","elianto","#3366ff99","-1"," ","0","0","[1838]","1","2","","","1239","35","1","2","win","no-go","0","0"
"pit-trial","104","855259","0.0-40.0","battery-v0.2","","""event"",""trial"",""time""
""fullscreenenter"",""1"",""3855""
""blur"",""33"",""404646""
""focus"",""33"",""405195""
","""event"",""trial"",""time""
""blur"",""33"",""404646""
","""event"",""trial"",""time""
""focus"",""33"",""405195""
","""event"",""trial"",""time""
""fullscreenenter"",""1"",""3855""
","
","","","802.5","","","25","1239","145","d","elianto","#3366ff99"," "," ","1","+10","[1660]","1","2","","","1239","36","2","1","win","go","0","0"
"pit-trial","105","860119","0.0-41.0","battery-v0.2","","""event"",""trial"",""time""
""fullscreenenter"",""1"",""3855""
""blur"",""33"",""404646""
""focus"",""33"",""405195""
","""event"",""trial"",""time""
""blur"",""33"",""404646""
","""event"",""trial"",""time""
""focus"",""33"",""405195""
","""event"",""trial"",""time""
""fullscreenenter"",""1"",""3855""
","
","","","-1","","","25","1239","145","k","elianto","#f73b6a7A"," ","-1","0","0","[]","0","2","","","1239","37","3","3","lose","go","1","0"
"pit-trial","106","863832","0.0-42.0","battery-v0.2","","""event"",""trial"",""time""
""fullscreenenter"",""1"",""3855""
""blur"",""33"",""404646""
""focus"",""33"",""405195""
","""event"",""trial"",""time""
""blur"",""33"",""404646""
","""event"",""trial"",""time""
""focus"",""33"",""405195""
","""event"",""trial"",""time""
""fullscreenenter"",""1"",""3855""
","
","","","855.1999999955297","","","25","1239","145","d","elianto","#3366ff99"," "," ","1","+10","[1705.6999999955297]","1","2","","","1239","38","2","1","win","go","0","0"
"pit-trial","107","867593","0.0-43.0","battery-v0.2","","""event"",""trial"",""time""
""fullscreenenter"",""1"",""3855""
""blur"",""33"",""404646""
""focus"",""33"",""405195""
","""event"",""trial"",""time""
""blur"",""33"",""404646""
","""event"",""trial"",""time""
""focus"",""33"",""405195""
","""event"",""trial"",""time""
""fullscreenenter"",""1"",""3855""
","
","","","907.2000000029802","","","25","1239","145","j","elianto","#3366ff99","-1"," ","0","0","[1757.5]","1","2","","","1239","39","1","2","win","no-go","0","0"
"pit-trial","108","871246","0.0-44.0","battery-v0.2","","""event"",""trial"",""time""
""fullscreenenter"",""1"",""3855""
""blur"",""33"",""404646""
""focus"",""33"",""405195""
","""event"",""trial"",""time""
""blur"",""33"",""404646""
","""event"",""trial"",""time""
""focus"",""33"",""405195""
","""event"",""trial"",""time""
""fullscreenenter"",""1"",""3855""
","
","","","795.2000000029802","","","25","1239","145","v","elianto","#3366ff99","-1"," ","0","0","[1646.7999999970198]","1","2","","","1239","40","0","2","win","no-go","0","0"
"pit-trial","109","875321","0.0-45.0","battery-v0.2","","""event"",""trial"",""time""
""fullscreenenter"",""1"",""3855""
""blur"",""33"",""404646""
""focus"",""33"",""405195""
","""event"",""trial"",""time""
""blur"",""33"",""404646""
","""event"",""trial"",""time""
""focus"",""33"",""405195""
","""event"",""trial"",""time""
""fullscreenenter"",""1"",""3855""
","
","","","1221.6999999955297","","","25","1239","145","j","elianto","#3366ff99","-1"," ","0","0","[2073.3000000044703]","1","2","","","1239","41","1","2","win","no-go","0","0"
"pit-trial","110","879129","0.0-46.0","battery-v0.2","","""event"",""trial"",""time""
""fullscreenenter"",""1"",""3855""
""blur"",""33"",""404646""
""focus"",""33"",""405195""
","""event"",""trial"",""time""
""blur"",""33"",""404646""
","""event"",""trial"",""time""
""focus"",""33"",""405195""
","""event"",""trial"",""time""
""fullscreenenter"",""1"",""3855""
","
","","","952.6000000014901","","","25","1239","145","d","elianto","#3366ff99"," "," ","1","+10","[1804.2000000029802]","1","2","","","1239","42","2","1","win","go","0","0"
"pit-trial","111","883985","0.0-47.0","battery-v0.2","","""event"",""trial"",""time""
""fullscreenenter"",""1"",""3855""
""blur"",""33"",""404646""
""focus"",""33"",""405195""
","""event"",""trial"",""time""
""blur"",""33"",""404646""
","""event"",""trial"",""time""
""focus"",""33"",""405195""
","""event"",""trial"",""time""
""fullscreenenter"",""1"",""3855""
","
","","","-1","","","25","1239","145","k","elianto","#f73b6a7A"," ","-1","0","-10","[]","0","2","","","1239","43","3","3","lose","go","0","0"
"pit-trial","112","888121","0.0-48.0","battery-v0.2","","""event"",""trial"",""time""
""fullscreenenter"",""1"",""3855""
""blur"",""33"",""404646""
""focus"",""33"",""405195""
","""event"",""trial"",""time""
""blur"",""33"",""404646""
","""event"",""trial"",""time""
""focus"",""33"",""405195""
","""event"",""trial"",""time""
""fullscreenenter"",""1"",""3855""
","
","","","1276.7999999970198","","","25","1239","145","v","elianto","#3366ff99","-1"," ","0","0","[2131.5]","1","2","","","1239","44","0","2","win","no-go","0","0"
"pit-trial","113","892977","0.0-49.0","battery-v0.2","","""event"",""trial"",""time""
""fullscreenenter"",""1"",""3855""
""blur"",""33"",""404646""
""focus"",""33"",""405195""
","""event"",""trial"",""time""
""blur"",""33"",""404646""
","""event"",""trial"",""time""
""focus"",""33"",""405195""
","""event"",""trial"",""time""
""fullscreenenter"",""1"",""3855""
","
","","","-1","","","25","1239","145","k","elianto","#f73b6a7A"," ","-1","0","-10","[]","0","2","","","1239","45","3","3","lose","go","0","0"
"pit-trial","114","896799","0.0-50.0","battery-v0.2","","""event"",""trial"",""time""
""fullscreenenter"",""1"",""3855""
""blur"",""33"",""404646""
""focus"",""33"",""405195""
","""event"",""trial"",""time""
""blur"",""33"",""404646""
","""event"",""trial"",""time""
""focus"",""33"",""405195""
","""event"",""trial"",""time""
""fullscreenenter"",""1"",""3855""
","
","","","967.5999999940395","","","25","1239","145","v","elianto","#3366ff99","-1"," ","0","+10","[1818.2000000029802]","1","2","","","1239","46","0","2","win","no-go","1","0"
"pit-trial","115","901659","0.0-51.0","battery-v0.2","","""event"",""trial"",""time""
""fullscreenenter"",""1"",""3855""
""blur"",""33"",""404646""
""focus"",""33"",""405195""
","""event"",""trial"",""time""
""blur"",""33"",""404646""
","""event"",""trial"",""time""
""focus"",""33"",""405195""
","""event"",""trial"",""time""
""fullscreenenter"",""1"",""3855""
","
","","","-1","","","25","1239","145","d","elianto","#3366ff99"," ","-1","0","0","[]","0","2","","","1239","47","2","1","win","go","0","0"
"pit-trial","116","906512","0.0-52.0","battery-v0.2","","""event"",""trial"",""time""
""fullscreenenter"",""1"",""3855""
""blur"",""33"",""404646""
""focus"",""33"",""405195""
","""event"",""trial"",""time""
""blur"",""33"",""404646""
","""event"",""trial"",""time""
""focus"",""33"",""405195""
","""event"",""trial"",""time""
""fullscreenenter"",""1"",""3855""
","
","","","-1","","","25","1239","145","j","elianto","#3366ff99","-1","-1","1","+10","[]","0","2","","","1239","48","1","2","win","no-go","0","0"
"pit-trial","117","910187","0.0-53.0","battery-v0.2","","""event"",""trial"",""time""
""fullscreenenter"",""1"",""3855""
""blur"",""33"",""404646""
""focus"",""33"",""405195""
","""event"",""trial"",""time""
""blur"",""33"",""404646""
","""event"",""trial"",""time""
""focus"",""33"",""405195""
","""event"",""trial"",""time""
""fullscreenenter"",""1"",""3855""
","
","","","816.8999999985099","","","25","1239","145","d","elianto","#3366ff99"," "," ","1","+10","[1672.5]","1","2","","","1239","49","2","1","win","go","0","0"
"pit-trial","118","913659","0.0-54.0","battery-v0.2","","""event"",""trial"",""time""
""fullscreenenter"",""1"",""3855""
""blur"",""33"",""404646""
""focus"",""33"",""405195""
","""event"",""trial"",""time""
""blur"",""33"",""404646""
","""event"",""trial"",""time""
""focus"",""33"",""405195""
","""event"",""trial"",""time""
""fullscreenenter"",""1"",""3855""
","
","","","612.7000000029802","","","25","1239","145","k","elianto","#f73b6a7A"," "," ","1","0","[1466.3999999985099]","1","2","","","1239","50","3","3","lose","go","0","0"
"pit-trial","119","917190","0.0-55.0","battery-v0.2","","""event"",""trial"",""time""
""fullscreenenter"",""1"",""3855""
""blur"",""33"",""404646""
""focus"",""33"",""405195""
","""event"",""trial"",""time""
""blur"",""33"",""404646""
","""event"",""trial"",""time""
""focus"",""33"",""405195""
","""event"",""trial"",""time""
""fullscreenenter"",""1"",""3855""
","
","","","676.2999999970198","","","25","1239","145","v","elianto","#3366ff99","-1"," ","0","0","[1526.6000000014901]","1","2","","","1239","51","0","2","win","no-go","0","0"
"pit-trial","120","922043","0.0-56.0","battery-v0.2","","""event"",""trial"",""time""
""fullscreenenter"",""1"",""3855""
""blur"",""33"",""404646""
""focus"",""33"",""405195""
","""event"",""trial"",""time""
""blur"",""33"",""404646""
","""event"",""trial"",""time""
""focus"",""33"",""405195""
","""event"",""trial"",""time""
""fullscreenenter"",""1"",""3855""
","
","","","-1","","","25","1239","145","j","elianto","#3366ff99","-1","-1","1","+10","[]","0","2","","","1239","52","1","2","win","no-go","0","0"
"pit-trial","121","925985","0.0-57.0","battery-v0.2","","""event"",""trial"",""time""
""fullscreenenter"",""1"",""3855""
""blur"",""33"",""404646""
""focus"",""33"",""405195""
","""event"",""trial"",""time""
""blur"",""33"",""404646""
","""event"",""trial"",""time""
""focus"",""33"",""405195""
","""event"",""trial"",""time""
""fullscreenenter"",""1"",""3855""
","
","","","1084.7000000029802","","","25","1239","145","e","elianto","#f73b6a7A","-1"," ","0","-10","[1935.1000000014901]","1","2","","","1239","53","4","4","lose","no-go","0","0"
"pit-trial","122","929798","0.0-58.0","battery-v0.2","","""event"",""trial"",""time""
""fullscreenenter"",""1"",""3855""
""blur"",""33"",""404646""
""focus"",""33"",""405195""
","""event"",""trial"",""time""
""blur"",""33"",""404646""
","""event"",""trial"",""time""
""focus"",""33"",""405195""
","""event"",""trial"",""time""
""fullscreenenter"",""1"",""3855""
","
","","","943.7000000029802","","","25","1239","145","w","elianto","#f73b6a7A"," "," ","1","-10","[1805.6000000014901]","1","2","","","1239","54","5","3","lose","go","1","0"
"pit-trial","123","933425","0.0-59.0","battery-v0.2","","""event"",""trial"",""time""
""fullscreenenter"",""1"",""3855""
""blur"",""33"",""404646""
""focus"",""33"",""405195""
","""event"",""trial"",""time""
""blur"",""33"",""404646""
","""event"",""trial"",""time""
""focus"",""33"",""405195""
","""event"",""trial"",""time""
""fullscreenenter"",""1"",""3855""
","
","","","766.8000000044703","","","25","1239","145","d","elianto","#3366ff99"," "," ","1","0","[1623.3999999985099]","1","2","","","1239","55","2","1","win","go","1","0"
"pit-trial","124","937180","0.0-60.0","battery-v0.2","","""event"",""trial"",""time""
""fullscreenenter"",""1"",""3855""
""blur"",""33"",""404646""
""focus"",""33"",""405195""
","""event"",""trial"",""time""
""blur"",""33"",""404646""
","""event"",""trial"",""time""
""focus"",""33"",""405195""
","""event"",""trial"",""time""
""fullscreenenter"",""1"",""3855""
","
","","","902","","","25","1239","145","v","elianto","#3366ff99","-1"," ","0","0","[1752.2000000029802]","1","2","","","1239","56","0","2","win","no-go","0","0"
"pit-trial","125","940779","0.0-61.0","battery-v0.2","","""event"",""trial"",""time""
""fullscreenenter"",""1"",""3855""
""blur"",""33"",""404646""
""focus"",""33"",""405195""
","""event"",""trial"",""time""
""blur"",""33"",""404646""
","""event"",""trial"",""time""
""focus"",""33"",""405195""
","""event"",""trial"",""time""
""fullscreenenter"",""1"",""3855""
","
","","","742","","","25","1239","145","d","elianto","#3366ff99"," "," ","1","+10","[1593.5]","1","2","","","1239","57","2","1","win","go","0","0"
"pit-trial","126","945639","0.0-62.0","battery-v0.2","","""event"",""trial"",""time""
""fullscreenenter"",""1"",""3855""
""blur"",""33"",""404646""
""focus"",""33"",""405195""
","""event"",""trial"",""time""
""blur"",""33"",""404646""
","""event"",""trial"",""time""
""focus"",""33"",""405195""
","""event"",""trial"",""time""
""fullscreenenter"",""1"",""3855""
","
","","","-1","","","25","1239","145","e","elianto","#f73b6a7A","-1","-1","1","-10","[]","0","2","","","1239","58","4","4","lose","no-go","1","0"
"pit-trial","127","949496","0.0-63.0","battery-v0.2","","""event"",""trial"",""time""
""fullscreenenter"",""1"",""3855""
""blur"",""33"",""404646""
""focus"",""33"",""405195""
","""event"",""trial"",""time""
""blur"",""33"",""404646""
","""event"",""trial"",""time""
""focus"",""33"",""405195""
","""event"",""trial"",""time""
""fullscreenenter"",""1"",""3855""
","
","","","1003.1000000014901","","","25","1239","145","v","elianto","#3366ff99","-1"," ","0","0","[1853.8999999985099]","1","2","","","1239","59","0","2","win","no-go","0","0"
"pit-trial","128","953214","0.0-64.0","battery-v0.2","","""event"",""trial"",""time""
""fullscreenenter"",""1"",""3855""
""blur"",""33"",""404646""
""focus"",""33"",""405195""
","""event"",""trial"",""time""
""blur"",""33"",""404646""
","""event"",""trial"",""time""
""focus"",""33"",""405195""
","""event"",""trial"",""time""
""fullscreenenter"",""1"",""3855""
","
","","","863","","","25","1239","145","w","elianto","#f73b6a7A"," "," ","1","0","[1714.6999999955297]","1","2","","","1239","60","5","3","lose","go","0","0"
"pit-trial","129","956898","0.0-65.0","battery-v0.2","","""event"",""trial"",""time""
""fullscreenenter"",""1"",""3855""
""blur"",""33"",""404646""
""focus"",""33"",""405195""
","""event"",""trial"",""time""
""blur"",""33"",""404646""
","""event"",""trial"",""time""
""focus"",""33"",""405195""
","""event"",""trial"",""time""
""fullscreenenter"",""1"",""3855""
","
","","","832","","","25","1239","145","d","elianto","#3366ff99"," "," ","1","+10","[1682.2999999970198]","1","2","","","1239","61","2","1","win","go","0","0"
"pit-trial","130","960738","0.0-66.0","battery-v0.2","","""event"",""trial"",""time""
""fullscreenenter"",""1"",""3855""
""blur"",""33"",""404646""
""focus"",""33"",""405195""
","""event"",""trial"",""time""
""blur"",""33"",""404646""
","""event"",""trial"",""time""
""focus"",""33"",""405195""
","""event"",""trial"",""time""
""fullscreenenter"",""1"",""3855""
","
","","","981.6000000014901","","","25","1239","145","w","elianto","#f73b6a7A"," "," ","1","0","[1835.2000000029802]","1","2","","","1239","62","5","3","lose","go","0","0"
"pit-trial","131","964706","0.0-67.0","battery-v0.2","","""event"",""trial"",""time""
""fullscreenenter"",""1"",""3855""
""blur"",""33"",""404646""
""focus"",""33"",""405195""
","""event"",""trial"",""time""
""blur"",""33"",""404646""
","""event"",""trial"",""time""
""focus"",""33"",""405195""
","""event"",""trial"",""time""
""fullscreenenter"",""1"",""3855""
","
","","","1109.7000000029802","","","25","1239","145","s","elianto","#3366ff99","-1"," ","0","0","[1961.9000000059605]","1","2","","","1239","63","6","2","win","no-go","0","0"
"pit-trial","132","968893","0.0-68.0","battery-v0.2","","""event"",""trial"",""time""
""fullscreenenter"",""1"",""3855""
""blur"",""33"",""404646""
""focus"",""33"",""405195""
","""event"",""trial"",""time""
""blur"",""33"",""404646""
","""event"",""trial"",""time""
""focus"",""33"",""405195""
","""event"",""trial"",""time""
""fullscreenenter"",""1"",""3855""
","
","","","1329.2000000029802","","","25","1239","145","e","elianto","#f73b6a7A","-1"," ","0","-10","[2181.5]","1","2","","","1239","64","4","4","lose","no-go","0","0"
"pit-trial","133","972930","0.0-69.0","battery-v0.2","","""event"",""trial"",""time""
""fullscreenenter"",""1"",""3855""
""blur"",""33"",""404646""
""focus"",""33"",""405195""
","""event"",""trial"",""time""
""blur"",""33"",""404646""
","""event"",""trial"",""time""
""focus"",""33"",""405195""
","""event"",""trial"",""time""
""fullscreenenter"",""1"",""3855""
","
","","","1180.5","","","25","1239","145","s","elianto","#3366ff99","-1"," ","0","0","[2030.7999999970198]","1","2","","","1239","65","6","2","win","no-go","0","0"
"pit-trial","134","977783","0.0-70.0","battery-v0.2","","""event"",""trial"",""time""
""fullscreenenter"",""1"",""3855""
""blur"",""33"",""404646""
""focus"",""33"",""405195""
","""event"",""trial"",""time""
""blur"",""33"",""404646""
","""event"",""trial"",""time""
""focus"",""33"",""405195""
","""event"",""trial"",""time""
""fullscreenenter"",""1"",""3855""
","
","","","-1","","","25","1239","145","e","elianto","#f73b6a7A","-1","-1","1","0","[]","0","2","","","1239","66","4","4","lose","no-go","0","0"
"pit-trial","135","981522","0.0-71.0","battery-v0.2","","""event"",""trial"",""time""
""fullscreenenter"",""1"",""3855""
""blur"",""33"",""404646""
""focus"",""33"",""405195""
","""event"",""trial"",""time""
""blur"",""33"",""404646""
","""event"",""trial"",""time""
""focus"",""33"",""405195""
","""event"",""trial"",""time""
""fullscreenenter"",""1"",""3855""
","
","","","881.1999999955297","","","25","1239","145","w","elianto","#f73b6a7A"," "," ","1","0","[1733.1999999955297]","1","2","","","1239","67","5","3","lose","go","0","0"
"pit-trial","136","985085","0.0-72.0","battery-v0.2","","""event"",""trial"",""time""
""fullscreenenter"",""1"",""3855""
""blur"",""33"",""404646""
""focus"",""33"",""405195""
","""event"",""trial"",""time""
""blur"",""33"",""404646""
","""event"",""trial"",""time""
""focus"",""33"",""405195""
","""event"",""trial"",""time""
""fullscreenenter"",""1"",""3855""
","
","","","703.6999999955297","","","25","1239","145","d","elianto","#3366ff99"," "," ","1","+10","[1556.6000000014901]","1","2","","","1239","68","2","1","win","go","0","0"
"pit-trial","137","989943","0.0-73.0","battery-v0.2","","""event"",""trial"",""time""
""fullscreenenter"",""1"",""3855""
""blur"",""33"",""404646""
""focus"",""33"",""405195""
","""event"",""trial"",""time""
""blur"",""33"",""404646""
","""event"",""trial"",""time""
""focus"",""33"",""405195""
","""event"",""trial"",""time""
""fullscreenenter"",""1"",""3855""
","
","","","-1","","","25","1239","145","e","elianto","#f73b6a7A","-1","-1","1","0","[]","0","2","","","1239","69","4","4","lose","no-go","0","0"
"pit-trial","138","993699","0.0-74.0","battery-v0.2","","""event"",""trial"",""time""
""fullscreenenter"",""1"",""3855""
""blur"",""33"",""404646""
""focus"",""33"",""405195""
","""event"",""trial"",""time""
""blur"",""33"",""404646""
","""event"",""trial"",""time""
""focus"",""33"",""405195""
","""event"",""trial"",""time""
""fullscreenenter"",""1"",""3855""
","
","","","898.6000000014901","","","25","1239","145","p","elianto","#f73b6a7A","-1"," ","0","-10","[1750.7000000029802]","1","2","","","1239","70","7","4","lose","no-go","0","0"
"pit-trial","139","997257","0.0-75.0","battery-v0.2","","""event"",""trial"",""time""
""fullscreenenter"",""1"",""3855""
""blur"",""33"",""404646""
""focus"",""33"",""405195""
","""event"",""trial"",""time""
""blur"",""33"",""404646""
","""event"",""trial"",""time""
""focus"",""33"",""405195""
","""event"",""trial"",""time""
""fullscreenenter"",""1"",""3855""
","
","","","704.1000000014901","","","25","1239","145","w","elianto","#f73b6a7A"," "," ","1","0","[1555.3999999985099]","1","2","","","1239","71","5","3","lose","go","0","0"
"pit-trial","140","1002110","0.0-76.0","battery-v0.2","","""event"",""trial"",""time""
""fullscreenenter"",""1"",""3855""
""blur"",""33"",""404646""
""focus"",""33"",""405195""
","""event"",""trial"",""time""
""blur"",""33"",""404646""
","""event"",""trial"",""time""
""focus"",""33"",""405195""
","""event"",""trial"",""time""
""fullscreenenter"",""1"",""3855""
","
","","","-1","","","25","1239","145","s","elianto","#3366ff99","-1","-1","1","+10","[]","0","2","","","1239","72","6","2","win","no-go","0","0"
"pit-trial","141","1006966","0.0-77.0","battery-v0.2","","""event"",""trial"",""time""
""fullscreenenter"",""1"",""3855""
""blur"",""33"",""404646""
""focus"",""33"",""405195""
","""event"",""trial"",""time""
""blur"",""33"",""404646""
","""event"",""trial"",""time""
""focus"",""33"",""405195""
","""event"",""trial"",""time""
""fullscreenenter"",""1"",""3855""
","
","","","-1","","","25","1239","145","s","elianto","#3366ff99","-1","-1","1","+10","[]","0","2","","","1239","73","6","2","win","no-go","0","0"
"pit-trial","142","1011352","0.0-78.0","battery-v0.2","","""event"",""trial"",""time""
""fullscreenenter"",""1"",""3855""
""blur"",""33"",""404646""
""focus"",""33"",""405195""
","""event"",""trial"",""time""
""blur"",""33"",""404646""
","""event"",""trial"",""time""
""focus"",""33"",""405195""
","""event"",""trial"",""time""
""fullscreenenter"",""1"",""3855""
","
","","","1533.3999999985099","","","25","1239","145","p","elianto","#f73b6a7A","-1"," ","0","-10","[2383.60000000149]","1","2","","","1239","74","7","4","lose","no-go","0","0"
"pit-trial","143","1016206","0.0-79.0","battery-v0.2","","""event"",""trial"",""time""
""fullscreenenter"",""1"",""3855""
""blur"",""33"",""404646""
""focus"",""33"",""405195""
","""event"",""trial"",""time""
""blur"",""33"",""404646""
","""event"",""trial"",""time""
""focus"",""33"",""405195""
","""event"",""trial"",""time""
""fullscreenenter"",""1"",""3855""
","
","","","-1","","","25","1239","145","e","elianto","#f73b6a7A","-1","-1","1","0","[]","0","2","","","1239","75","4","4","lose","no-go","0","0"
"pit-trial","144","1019817","0.0-80.0","battery-v0.2","","""event"",""trial"",""time""
""fullscreenenter"",""1"",""3855""
""blur"",""33"",""404646""
""focus"",""33"",""405195""
","""event"",""trial"",""time""
""blur"",""33"",""404646""
","""event"",""trial"",""time""
""focus"",""33"",""405195""
","""event"",""trial"",""time""
""fullscreenenter"",""1"",""3855""
","
","","","755","","","25","1239","145","w","elianto","#f73b6a7A"," "," ","1","0","[1605.5]","1","2","","","1239","76","5","3","lose","go","0","0"
"pit-trial","145","1024675","0.0-81.0","battery-v0.2","","""event"",""trial"",""time""
""fullscreenenter"",""1"",""3855""
""blur"",""33"",""404646""
""focus"",""33"",""405195""
","""event"",""trial"",""time""
""blur"",""33"",""404646""
","""event"",""trial"",""time""
""focus"",""33"",""405195""
","""event"",""trial"",""time""
""fullscreenenter"",""1"",""3855""
","
","","","-1","","","25","1239","145","p","elianto","#f73b6a7A","-1","-1","1","0","[]","0","2","","","1239","77","7","4","lose","no-go","0","0"
"pit-trial","146","1028638","0.0-82.0","battery-v0.2","","""event"",""trial"",""time""
""fullscreenenter"",""1"",""3855""
""blur"",""33"",""404646""
""focus"",""33"",""405195""
","""event"",""trial"",""time""
""blur"",""33"",""404646""
","""event"",""trial"",""time""
""focus"",""33"",""405195""
","""event"",""trial"",""time""
""fullscreenenter"",""1"",""3855""
","
","","","1103.8999999985099","","","25","1239","145","w","elianto","#f73b6a7A"," "," ","1","0","[1958.6000000014901]","1","2","","","1239","78","5","3","lose","go","0","0"
"pit-trial","147","1033493","0.0-83.0","battery-v0.2","","""event"",""trial"",""time""
""fullscreenenter"",""1"",""3855""
""blur"",""33"",""404646""
""focus"",""33"",""405195""
","""event"",""trial"",""time""
""blur"",""33"",""404646""
","""event"",""trial"",""time""
""focus"",""33"",""405195""
","""event"",""trial"",""time""
""fullscreenenter"",""1"",""3855""
","
","","","-1","","","25","1239","145","s","elianto","#3366ff99","-1","-1","1","+10","[]","0","2","","","1239","79","6","2","win","no-go","0","0"
"pit-trial","148","1038346","0.0-84.0","battery-v0.2","","""event"",""trial"",""time""
""fullscreenenter"",""1"",""3855""
""blur"",""33"",""404646""
""focus"",""33"",""405195""
","""event"",""trial"",""time""
""blur"",""33"",""404646""
","""event"",""trial"",""time""
""focus"",""33"",""405195""
","""event"",""trial"",""time""
""fullscreenenter"",""1"",""3855""
","
","","","-1","","","25","1239","145","e","elianto","#f73b6a7A","-1","-1","1","-10","[]","0","2","","","1239","80","4","4","lose","no-go","1","0"
"pit-trial","149","1043204","0.0-85.0","battery-v0.2","","""event"",""trial"",""time""
""fullscreenenter"",""1"",""3855""
""blur"",""33"",""404646""
""focus"",""33"",""405195""
","""event"",""trial"",""time""
""blur"",""33"",""404646""
","""event"",""trial"",""time""
""focus"",""33"",""405195""
","""event"",""trial"",""time""
""fullscreenenter"",""1"",""3855""
","
","","","-1","","","25","1239","145","s","elianto","#3366ff99","-1","-1","1","+10","[]","0","2","","","1239","81","6","2","win","no-go","0","0"
"pit-trial","150","1046078","0.0-86.0","battery-v0.2","","""event"",""trial"",""time""
""fullscreenenter"",""1"",""3855""
""blur"",""33"",""404646""
""focus"",""33"",""405195""
","""event"",""trial"",""time""
""blur"",""33"",""404646""
","""event"",""trial"",""time""
""focus"",""33"",""405195""
","""event"",""trial"",""time""
""fullscreenenter"",""1"",""3855""
","
","","","15.099999994039536","","","25","1239","145","e","elianto","#f73b6a7A","-1"," ","0","-10","[868.5]","1","2","","","1239","82","4","4","lose","no-go","0","0"
"pit-trial","151","1050938","0.0-87.0","battery-v0.2","","""event"",""trial"",""time""
""fullscreenenter"",""1"",""3855""
""blur"",""33"",""404646""
""focus"",""33"",""405195""
","""event"",""trial"",""time""
""blur"",""33"",""404646""
","""event"",""trial"",""time""
""focus"",""33"",""405195""
","""event"",""trial"",""time""
""fullscreenenter"",""1"",""3855""
","
","","","-1","","","25","1239","145","p","elianto","#f73b6a7A","-1","-1","1","0","[]","0","2","","","1239","83","7","4","lose","no-go","0","0"
"pit-trial","152","1055084","0.0-88.0","battery-v0.2","","""event"",""trial"",""time""
""fullscreenenter"",""1"",""3855""
""blur"",""33"",""404646""
""focus"",""33"",""405195""
","""event"",""trial"",""time""
""blur"",""33"",""404646""
","""event"",""trial"",""time""
""focus"",""33"",""405195""
","""event"",""trial"",""time""
""fullscreenenter"",""1"",""3855""
","
","","","1287.3999999985099","","","25","1239","145","w","elianto","#f73b6a7A"," "," ","1","0","[2140.39999999851]","1","2","","","1239","84","5","3","lose","go","0","0"
"pit-trial","153","1059941","0.0-89.0","battery-v0.2","","""event"",""trial"",""time""
""fullscreenenter"",""1"",""3855""
""blur"",""33"",""404646""
""focus"",""33"",""405195""
","""event"",""trial"",""time""
""blur"",""33"",""404646""
","""event"",""trial"",""time""
""focus"",""33"",""405195""
","""event"",""trial"",""time""
""fullscreenenter"",""1"",""3855""
","
","","","-1","","","25","1239","145","e","elianto","#f73b6a7A","-1","-1","1","0","[]","0","2","","","1239","85","4","4","lose","no-go","0","0"
"pit-trial","154","1063839","0.0-90.0","battery-v0.2","","""event"",""trial"",""time""
""fullscreenenter"",""1"",""3855""
""blur"",""33"",""404646""
""focus"",""33"",""405195""
","""event"",""trial"",""time""
""blur"",""33"",""404646""
","""event"",""trial"",""time""
""focus"",""33"",""405195""
","""event"",""trial"",""time""
""fullscreenenter"",""1"",""3855""
","
","","","1044","","","25","1239","145","w","elianto","#f73b6a7A"," "," ","1","-10","[1895.8999999985099]","1","2","","","1239","86","5","3","lose","go","1","0"
"pit-trial","155","1068698","0.0-91.0","battery-v0.2","","""event"",""trial"",""time""
""fullscreenenter"",""1"",""3855""
""blur"",""33"",""404646""
""focus"",""33"",""405195""
","""event"",""trial"",""time""
""blur"",""33"",""404646""
","""event"",""trial"",""time""
""focus"",""33"",""405195""
","""event"",""trial"",""time""
""fullscreenenter"",""1"",""3855""
","
","","","-1","","","25","1239","145","s","elianto","#3366ff99","-1","-1","1","+10","[]","0","2","","","1239","87","6","2","win","no-go","0","0"
"pit-trial","156","1073562","0.0-92.0","battery-v0.2","","""event"",""trial"",""time""
""fullscreenenter"",""1"",""3855""
""blur"",""33"",""404646""
""focus"",""33"",""405195""
","""event"",""trial"",""time""
""blur"",""33"",""404646""
","""event"",""trial"",""time""
""focus"",""33"",""405195""
","""event"",""trial"",""time""
""fullscreenenter"",""1"",""3855""
","
","","","-1","","","25","1239","145","p","elianto","#f73b6a7A","-1","-1","1","-10","[]","0","2","","","1239","88","7","4","lose","no-go","1","0"
"pit-trial","157","1078416","0.0-93.0","battery-v0.2","","""event"",""trial"",""time""
""fullscreenenter"",""1"",""3855""
""blur"",""33"",""404646""
""focus"",""33"",""405195""
","""event"",""trial"",""time""
""blur"",""33"",""404646""
","""event"",""trial"",""time""
""focus"",""33"",""405195""
","""event"",""trial"",""time""
""fullscreenenter"",""1"",""3855""
","
","","","-1","","","25","1239","145","s","elianto","#3366ff99","-1","-1","1","+10","[]","0","2","","","1239","89","6","2","win","no-go","0","0"
"pit-trial","158","1082075","0.0-94.0","battery-v0.2","","""event"",""trial"",""time""
""fullscreenenter"",""1"",""3855""
""blur"",""33"",""404646""
""focus"",""33"",""405195""
","""event"",""trial"",""time""
""blur"",""33"",""404646""
","""event"",""trial"",""time""
""focus"",""33"",""405195""
","""event"",""trial"",""time""
""fullscreenenter"",""1"",""3855""
","
","","","804.1000000014901","","","25","1239","145","w","elianto","#f73b6a7A"," "," ","1","0","[1655.3999999985099]","1","2","","","1239","90","5","3","lose","go","0","0"
"pit-trial","159","1086929","0.0-95.0","battery-v0.2","","""event"",""trial"",""time""
""fullscreenenter"",""1"",""3855""
""blur"",""33"",""404646""
""focus"",""33"",""405195""
","""event"",""trial"",""time""
""blur"",""33"",""404646""
","""event"",""trial"",""time""
""focus"",""33"",""405195""
","""event"",""trial"",""time""
""fullscreenenter"",""1"",""3855""
","
","","","-1","","","25","1239","145","p","elianto","#f73b6a7A","-1","-1","1","0","[]","0","2","","","1239","91","7","4","lose","no-go","0","0"
"pit-trial","160","1091784","0.0-96.0","battery-v0.2","","""event"",""trial"",""time""
""fullscreenenter"",""1"",""3855""
""blur"",""33"",""404646""
""focus"",""33"",""405195""
","""event"",""trial"",""time""
""blur"",""33"",""404646""
","""event"",""trial"",""time""
""focus"",""33"",""405195""
","""event"",""trial"",""time""
""fullscreenenter"",""1"",""3855""
","
","","","-1","","","25","1239","145","e","elianto","#f73b6a7A","-1","-1","1","0","[]","0","2","","","1239","92","4","4","lose","no-go","0","0"
"pit-trial","161","1096641","0.0-97.0","battery-v0.2","","""event"",""trial"",""time""
""fullscreenenter"",""1"",""3855""
""blur"",""33"",""404646""
""focus"",""33"",""405195""
","""event"",""trial"",""time""
""blur"",""33"",""404646""
","""event"",""trial"",""time""
""focus"",""33"",""405195""
","""event"",""trial"",""time""
""fullscreenenter"",""1"",""3855""
","
","","","-1","","","25","1239","145","s","elianto","#3366ff99","-1","-1","1","0","[]","0","2","","","1239","93","6","2","win","no-go","1","0"
"pit-trial","162","1100795","0.0-98.0","battery-v0.2","","""event"",""trial"",""time""
""fullscreenenter"",""1"",""3855""
""blur"",""33"",""404646""
""focus"",""33"",""405195""
","""event"",""trial"",""time""
""blur"",""33"",""404646""
","""event"",""trial"",""time""
""focus"",""33"",""405195""
","""event"",""trial"",""time""
""fullscreenenter"",""1"",""3855""
","
","","","1292","","","25","1239","145","p","elianto","#f73b6a7A","-1"," ","0","-10","[2148.8000000044703]","1","2","","","1239","94","7","4","lose","no-go","0","0"
"pit-trial","163","1104891","0.0-99.0","battery-v0.2","","""event"",""trial"",""time""
""fullscreenenter"",""1"",""3855""
""blur"",""33"",""404646""
""focus"",""33"",""405195""
","""event"",""trial"",""time""
""blur"",""33"",""404646""
","""event"",""trial"",""time""
""focus"",""33"",""405195""
","""event"",""trial"",""time""
""fullscreenenter"",""1"",""3855""
","
","","","1243.1999999955297","","","25","1239","145","g","elianto","#f73b6a7A","-1"," ","0","-10","[2093.2999999970198]","1","2","","","1239","95","8","4","lose","no-go","0","0"
"pit-trial","164","1108556","0.0-100.0","battery-v0.2","","""event"",""trial"",""time""
""fullscreenenter"",""1"",""3855""
""blur"",""33"",""404646""
""focus"",""33"",""405195""
","""event"",""trial"",""time""
""blur"",""33"",""404646""
","""event"",""trial"",""time""
""focus"",""33"",""405195""
","""event"",""trial"",""time""
""fullscreenenter"",""1"",""3855""
","
","","","808.9000000059605","","","25","1239","145","w","elianto","#f73b6a7A"," "," ","1","-10","[1659.3999999985099]","1","2","","","1239","96","5","3","lose","go","1","0"
"pit-trial","165","1113410","0.0-101.0","battery-v0.2","","""event"",""trial"",""time""
""fullscreenenter"",""1"",""3855""
""blur"",""33"",""404646""
""focus"",""33"",""405195""
","""event"",""trial"",""time""
""blur"",""33"",""404646""
","""event"",""trial"",""time""
""focus"",""33"",""405195""
","""event"",""trial"",""time""
""fullscreenenter"",""1"",""3855""
","
","","","-1","","","25","1239","145","g","elianto","#f73b6a7A","-1","-1","1","0","[]","0","2","","","1239","97","8","4","lose","no-go","0","0"
"pit-trial","166","1118262","0.0-102.0","battery-v0.2","","""event"",""trial"",""time""
""fullscreenenter"",""1"",""3855""
""blur"",""33"",""404646""
""focus"",""33"",""405195""
","""event"",""trial"",""time""
""blur"",""33"",""404646""
","""event"",""trial"",""time""
""focus"",""33"",""405195""
","""event"",""trial"",""time""
""fullscreenenter"",""1"",""3855""
","
","","","-1","","","25","1239","145","p","elianto","#f73b6a7A","-1","-1","1","0","[]","0","2","","","1239","98","7","4","lose","no-go","0","0"
"pit-trial","167","1121814","0.0-103.0","battery-v0.2","","""event"",""trial"",""time""
""fullscreenenter"",""1"",""3855""
""blur"",""33"",""404646""
""focus"",""33"",""405195""
","""event"",""trial"",""time""
""blur"",""33"",""404646""
","""event"",""trial"",""time""
""focus"",""33"",""405195""
","""event"",""trial"",""time""
""fullscreenenter"",""1"",""3855""
","
","","","696.2000000029802","","","25","1239","145","w","elianto","#f73b6a7A"," "," ","1","0","[1546.6000000014901]","1","2","","","1239","99","5","3","lose","go","0","0"
"pit-trial","168","1126673","0.0-104.0","battery-v0.2","","""event"",""trial"",""time""
""fullscreenenter"",""1"",""3855""
""blur"",""33"",""404646""
""focus"",""33"",""405195""
","""event"",""trial"",""time""
""blur"",""33"",""404646""
","""event"",""trial"",""time""
""focus"",""33"",""405195""
","""event"",""trial"",""time""
""fullscreenenter"",""1"",""3855""
","
","","","-1","","","25","1239","145","s","elianto","#3366ff99","-1","-1","1","+10","[]","0","2","","","1239","100","6","2","win","no-go","0","0"
"pit-trial","169","1131531","0.0-105.0","battery-v0.2","","""event"",""trial"",""time""
""fullscreenenter"",""1"",""3855""
""blur"",""33"",""404646""
""focus"",""33"",""405195""
","""event"",""trial"",""time""
""blur"",""33"",""404646""
","""event"",""trial"",""time""
""focus"",""33"",""405195""
","""event"",""trial"",""time""
""fullscreenenter"",""1"",""3855""
","
","","","-1","","","25","1239","145","g","elianto","#f73b6a7A","-1","-1","1","-10","[]","0","2","","","1239","101","8","4","lose","no-go","1","0"
"pit-trial","170","1136001","0.0-106.0","battery-v0.2","","""event"",""trial"",""time""
""fullscreenenter"",""1"",""3855""
""blur"",""33"",""404646""
""focus"",""33"",""405195""
","""event"",""trial"",""time""
""blur"",""33"",""404646""
","""event"",""trial"",""time""
""focus"",""33"",""405195""
","""event"",""trial"",""time""
""fullscreenenter"",""1"",""3855""
","
","","","1616.5","","","25","1239","145","l","elianto","#f73b6a7A"," "," ","1","0","[2467.0999999940395]","1","2","","","1239","102","10","3","lose","go","0","0"
"pit-trial","171","1140858","0.0-107.0","battery-v0.2","","""event"",""trial"",""time""
""fullscreenenter"",""1"",""3855""
""blur"",""33"",""404646""
""focus"",""33"",""405195""
","""event"",""trial"",""time""
""blur"",""33"",""404646""
","""event"",""trial"",""time""
""focus"",""33"",""405195""
","""event"",""trial"",""time""
""fullscreenenter"",""1"",""3855""
","
","","","-1","","","25","1239","145","s","elianto","#3366ff99","-1","-1","1","+10","[]","0","2","","","1239","103","6","2","win","no-go","0","0"
"pit-trial","172","1144797","0.0-108.0","battery-v0.2","","""event"",""trial"",""time""
""fullscreenenter"",""1"",""3855""
""blur"",""33"",""404646""
""focus"",""33"",""405195""
","""event"",""trial"",""time""
""blur"",""33"",""404646""
","""event"",""trial"",""time""
""focus"",""33"",""405195""
","""event"",""trial"",""time""
""fullscreenenter"",""1"",""3855""
","
","","","1081.8999999985099","","","25","1239","145","a","elianto","#3366ff99"," "," ","1","0","[1932.5]","1","2","","","1239","104","9","1","win","go","1","0"
"pit-trial","173","1148472","0.0-109.0","battery-v0.2","","""event"",""trial"",""time""
""fullscreenenter"",""1"",""3855""
""blur"",""33"",""404646""
""focus"",""33"",""405195""
","""event"",""trial"",""time""
""blur"",""33"",""404646""
","""event"",""trial"",""time""
""focus"",""33"",""405195""
","""event"",""trial"",""time""
""fullscreenenter"",""1"",""3855""
","
","","","819.2999999970198","","","25","1239","145","a","elianto","#3366ff99"," "," ","1","0","[1671.7999999970198]","1","2","","","1239","105","9","1","win","go","1","0"
"pit-trial","174","1153331","0.0-110.0","battery-v0.2","","""event"",""trial"",""time""
""fullscreenenter"",""1"",""3855""
""blur"",""33"",""404646""
""focus"",""33"",""405195""
","""event"",""trial"",""time""
""blur"",""33"",""404646""
","""event"",""trial"",""time""
""focus"",""33"",""405195""
","""event"",""trial"",""time""
""fullscreenenter"",""1"",""3855""
","
","","","-1","","","25","1239","145","l","elianto","#f73b6a7A"," ","-1","0","-10","[]","0","2","","","1239","106","10","3","lose","go","0","0"
"pit-trial","175","1158186","0.0-111.0","battery-v0.2","","""event"",""trial"",""time""
""fullscreenenter"",""1"",""3855""
""blur"",""33"",""404646""
""focus"",""33"",""405195""
","""event"",""trial"",""time""
""blur"",""33"",""404646""
","""event"",""trial"",""time""
""focus"",""33"",""405195""
","""event"",""trial"",""time""
""fullscreenenter"",""1"",""3855""
","
","","","-1","","","25","1239","145","g","elianto","#f73b6a7A","-1","-1","1","0","[]","0","2","","","1239","107","8","4","lose","no-go","0","0"
"pit-trial","176","1163044","0.0-112.0","battery-v0.2","","""event"",""trial"",""time""
""fullscreenenter"",""1"",""3855""
""blur"",""33"",""404646""
""focus"",""33"",""405195""
","""event"",""trial"",""time""
""blur"",""33"",""404646""
","""event"",""trial"",""time""
""focus"",""33"",""405195""
","""event"",""trial"",""time""
""fullscreenenter"",""1"",""3855""
","
","","","-1","","","25","1239","145","s","elianto","#3366ff99","-1","-1","1","+10","[]","0","2","","","1239","108","6","2","win","no-go","0","0"
"pit-trial","177","1167896","0.0-113.0","battery-v0.2","","""event"",""trial"",""time""
""fullscreenenter"",""1"",""3855""
""blur"",""33"",""404646""
""focus"",""33"",""405195""
","""event"",""trial"",""time""
""blur"",""33"",""404646""
","""event"",""trial"",""time""
""focus"",""33"",""405195""
","""event"",""trial"",""time""
""fullscreenenter"",""1"",""3855""
","
","","","-1","","","25","1239","145","a","elianto","#3366ff99"," ","-1","0","0","[]","0","2","","","1239","109","9","1","win","go","0","0"
"pit-trial","178","1171576","0.0-114.0","battery-v0.2","","""event"",""trial"",""time""
""fullscreenenter"",""1"",""3855""
""blur"",""33"",""404646""
""focus"",""33"",""405195""
","""event"",""trial"",""time""
""blur"",""33"",""404646""
","""event"",""trial"",""time""
""focus"",""33"",""405195""
","""event"",""trial"",""time""
""fullscreenenter"",""1"",""3855""
","
","","","823.7000000029802","","","25","1239","145","u","elianto","#3366ff99"," "," ","1","+10","[1674.2000000029802]","1","2","","","1239","110","11","1","win","go","0","0"
"pit-trial","179","1175533","0.0-115.0","battery-v0.2","","""event"",""trial"",""time""
""fullscreenenter"",""1"",""3855""
""blur"",""33"",""404646""
""focus"",""33"",""405195""
","""event"",""trial"",""time""
""blur"",""33"",""404646""
","""event"",""trial"",""time""
""focus"",""33"",""405195""
","""event"",""trial"",""time""
""fullscreenenter"",""1"",""3855""
","
","","","1104","","","25","1239","145","l","elianto","#f73b6a7A"," "," ","1","-10","[1954.5]","1","2","","","1239","111","10","3","lose","go","1","0"
"pit-trial","180","1180387","0.0-116.0","battery-v0.2","","""event"",""trial"",""time""
""fullscreenenter"",""1"",""3855""
""blur"",""33"",""404646""
""focus"",""33"",""405195""
","""event"",""trial"",""time""
""blur"",""33"",""404646""
","""event"",""trial"",""time""
""focus"",""33"",""405195""
","""event"",""trial"",""time""
""fullscreenenter"",""1"",""3855""
","
","","","-1","","","25","1239","145","g","elianto","#f73b6a7A","-1","-1","1","0","[]","0","2","","","1239","112","8","4","lose","no-go","0","0"
"pit-trial","181","1185243","0.0-117.0","battery-v0.2","","""event"",""trial"",""time""
""fullscreenenter"",""1"",""3855""
""blur"",""33"",""404646""
""focus"",""33"",""405195""
","""event"",""trial"",""time""
""blur"",""33"",""404646""
","""event"",""trial"",""time""
""focus"",""33"",""405195""
","""event"",""trial"",""time""
""fullscreenenter"",""1"",""3855""
","
","","","-1","","","25","1239","145","l","elianto","#f73b6a7A"," ","-1","0","-10","[]","0","2","","","1239","113","10","3","lose","go","0","0"
"pit-trial","182","1190099","0.0-118.0","battery-v0.2","","""event"",""trial"",""time""
""fullscreenenter"",""1"",""3855""
""blur"",""33"",""404646""
""focus"",""33"",""405195""
","""event"",""trial"",""time""
""blur"",""33"",""404646""
","""event"",""trial"",""time""
""focus"",""33"",""405195""
","""event"",""trial"",""time""
""fullscreenenter"",""1"",""3855""
","
","","","-1","","","25","1239","145","a","elianto","#3366ff99"," ","-1","0","0","[2939.7999999970198]","1","2","","","1239","114","9","1","win","go","0","0"
"pit-trial","183","1194043","0.0-119.0","battery-v0.2","","""event"",""trial"",""time""
""fullscreenenter"",""1"",""3855""
""blur"",""33"",""404646""
""focus"",""33"",""405195""
","""event"",""trial"",""time""
""blur"",""33"",""404646""
","""event"",""trial"",""time""
""focus"",""33"",""405195""
","""event"",""trial"",""time""
""fullscreenenter"",""1"",""3855""
","
","","","1087.5","","","25","1239","145","u","elianto","#3366ff99"," "," ","1","+10","[1938.1999999955297]","1","2","","","1239","115","11","1","win","go","0","0"
"pit-trial","184","1198900","0.0-120.0","battery-v0.2","","""event"",""trial"",""time""
""fullscreenenter"",""1"",""3855""
""blur"",""33"",""404646""
""focus"",""33"",""405195""
","""event"",""trial"",""time""
""blur"",""33"",""404646""
","""event"",""trial"",""time""
""focus"",""33"",""405195""
","""event"",""trial"",""time""
""fullscreenenter"",""1"",""3855""
","
","","","-1","","","25","1239","145","g","elianto","#f73b6a7A","-1","-1","1","0","[]","0","2","","","1239","116","8","4","lose","no-go","0","0"
"pit-trial","185","1203753","0.0-121.0","battery-v0.2","","""event"",""trial"",""time""
""fullscreenenter"",""1"",""3855""
""blur"",""33"",""404646""
""focus"",""33"",""405195""
","""event"",""trial"",""time""
""blur"",""33"",""404646""
","""event"",""trial"",""time""
""focus"",""33"",""405195""
","""event"",""trial"",""time""
""fullscreenenter"",""1"",""3855""
","
","","","-1","","","25","1239","145","g","elianto","#f73b6a7A","-1","-1","1","-10","[]","0","2","","","1239","117","8","4","lose","no-go","1","0"
"pit-trial","186","1208381","0.0-122.0","battery-v0.2","","""event"",""trial"",""time""
""fullscreenenter"",""1"",""3855""
""blur"",""33"",""404646""
""focus"",""33"",""405195""
","""event"",""trial"",""time""
""blur"",""33"",""404646""
","""event"",""trial"",""time""
""focus"",""33"",""405195""
","""event"",""trial"",""time""
""fullscreenenter"",""1"",""3855""
","
","","","1768.8999999985099","","","25","1239","145","a","elianto","#3366ff99"," "," ","1","0","[2622.3000000044703]","1","2","","","1239","118","9","1","win","go","1","0"
"pit-trial","187","1213237","0.0-123.0","battery-v0.2","","""event"",""trial"",""time""
""fullscreenenter"",""1"",""3855""
""blur"",""33"",""404646""
""focus"",""33"",""405195""
","""event"",""trial"",""time""
""blur"",""33"",""404646""
","""event"",""trial"",""time""
""focus"",""33"",""405195""
","""event"",""trial"",""time""
""fullscreenenter"",""1"",""3855""
","
","","","-1","","","25","1239","145","l","elianto","#f73b6a7A"," ","-1","0","0","[]","0","2","","","1239","119","10","3","lose","go","1","0"
"pit-trial","188","1217402","0.0-124.0","battery-v0.2","","""event"",""trial"",""time""
""fullscreenenter"",""1"",""3855""
""blur"",""33"",""404646""
""focus"",""33"",""405195""
","""event"",""trial"",""time""
""blur"",""33"",""404646""
","""event"",""trial"",""time""
""focus"",""33"",""405195""
","""event"",""trial"",""time""
""fullscreenenter"",""1"",""3855""
","
","","","1304.1000000014901","","","25","1239","145","u","elianto","#3366ff99"," "," ","1","+10","[2157.8000000044703]","1","2","","","1239","120","11","1","win","go","0","0"
"pit-trial","189","1222256","0.0-125.0","battery-v0.2","","""event"",""trial"",""time""
""fullscreenenter"",""1"",""3855""
""blur"",""33"",""404646""
""focus"",""33"",""405195""
","""event"",""trial"",""time""
""blur"",""33"",""404646""
","""event"",""trial"",""time""
""focus"",""33"",""405195""
","""event"",""trial"",""time""
""fullscreenenter"",""1"",""3855""
","
","","","-1","","","25","1239","145","l","elianto","#f73b6a7A"," ","-1","0","0","[]","0","2","","","1239","121","10","3","lose","go","1","0"
"pit-trial","190","1227111","0.0-126.0","battery-v0.2","","""event"",""trial"",""time""
""fullscreenenter"",""1"",""3855""
""blur"",""33"",""404646""
""focus"",""33"",""405195""
","""event"",""trial"",""time""
""blur"",""33"",""404646""
","""event"",""trial"",""time""
""focus"",""33"",""405195""
","""event"",""trial"",""time""
""fullscreenenter"",""1"",""3855""
","
","","","-1","","","25","1239","145","g","elianto","#f73b6a7A","-1","-1","1","0","[]","0","2","","","1239","122","8","4","lose","no-go","0","0"
"pit-trial","191","1231338","0.0-127.0","battery-v0.2","","""event"",""trial"",""time""
""fullscreenenter"",""1"",""3855""
""blur"",""33"",""404646""
""focus"",""33"",""405195""
","""event"",""trial"",""time""
""blur"",""33"",""404646""