"trial_type","trial_index","time_elapsed","internal_node_id","task_version","subject_id","interactions","blur_events","focus_events","fullscreenenter_events","fullscreenexit_events","success","view_history","rt","responses","num_errors","age","subject","participantId","rune","rune_set","hex","correct","choice","accuracy","outcome","keys","total_keys","block","practice","value","sub","trial","stimulus","robot","valence","action","sham","browser_interactions"
"pavlovia","0","30","0.0-0.0","battery-v0.2","","""event"",""trial"",""time""
""focus"",""0"",""2""
""fullscreenenter"",""1"",""2966""
","
","""event"",""trial"",""time""
""focus"",""0"",""2""
","""event"",""trial"",""time""
""fullscreenenter"",""1"",""2966""
","
","","","","","","","","","","","","","","","","","","","","","","","","","","","",""
"fullscreen","1","3706","0.0-1.0","battery-v0.2","","""event"",""trial"",""time""
""focus"",""0"",""2""
""fullscreenenter"",""1"",""2966""
","
","""event"",""trial"",""time""
""focus"",""0"",""2""
","""event"",""trial"",""time""
""fullscreenenter"",""1"",""2966""
","
","true","","","","","","","","","","","","","","","","","","","","","","","","","","",""
"pit-instructions","2","10523","0.0-2.0-0.0","battery-v0.2","","""event"",""trial"",""time""
""focus"",""0"",""2""
""fullscreenenter"",""1"",""2966""
","
","""event"",""trial"",""time""
""focus"",""0"",""2""
","""event"",""trial"",""time""
""fullscreenenter"",""1"",""2966""
","
","","[{""page_index"":0,""viewing_time"":6809}]","6810","","","","","","","","","","","","","","","","","","","","","","","","",""
"pit-comprehension","3","14951","0.0-2.0-1.0-0.0","battery-v0.2","","""event"",""trial"",""time""
""focus"",""0"",""2""
""fullscreenenter"",""1"",""2966""
","
","""event"",""trial"",""time""
""focus"",""0"",""2""
","""event"",""trial"",""time""
""fullscreenenter"",""1"",""2966""
","
","","","4419","[""shark""]","0","11","1071","815","","","","","","","","","","","","","","","","","","","",""
"pit-instructions","4","18475","0.0-2.0-1.0-1.0","battery-v0.2","","""event"",""trial"",""time""
""focus"",""0"",""2""
""fullscreenenter"",""1"",""2966""
","
","""event"",""trial"",""time""
""focus"",""0"",""2""
","""event"",""trial"",""time""
""fullscreenenter"",""1"",""2966""
","
","","[{""page_index"":0,""viewing_time"":3511}]","3512","","","","","","","","","","","","","","","","","","","","","","","","",""
"pit-comprehension","5","21204","0.0-2.0-2.0-0.0","battery-v0.2","","""event"",""trial"",""time""
""focus"",""0"",""2""
""fullscreenenter"",""1"",""2966""
","
","""event"",""trial"",""time""
""focus"",""0"",""2""
","""event"",""trial"",""time""
""fullscreenenter"",""1"",""2966""
","
","","","2719","[""tiger""]","0","11","1071","815","","","","","","","","","","","","","","","","","","","",""
"pit-instructions","6","21970","0.0-2.0-2.0-1.0","battery-v0.2","","""event"",""trial"",""time""
""focus"",""0"",""2""
""fullscreenenter"",""1"",""2966""
","
","""event"",""trial"",""time""
""focus"",""0"",""2""
","""event"",""trial"",""time""
""fullscreenenter"",""1"",""2966""
","
","","[{""page_index"":0,""viewing_time"":763}]","763","","","","","","","","","","","","","","","","","","","","","","","","",""
"pit-instructions","7","141939","0.0-2.0-3.0","battery-v0.2","","""event"",""trial"",""time""
""focus"",""0"",""2""
""fullscreenenter"",""1"",""2966""
","
","""event"",""trial"",""time""
""focus"",""0"",""2""
","""event"",""trial"",""time""
""fullscreenenter"",""1"",""2966""
","
","","[{""page_index"":0,""viewing_time"":8312},{""page_index"":1,""viewing_time"":6666},{""page_index"":2,""viewing_time"":11678},{""page_index"":3,""viewing_time"":5936},{""page_index"":4,""viewing_time"":7401},{""page_index"":5,""viewing_time"":6831},{""page_index"":6,""viewing_time"":7272},{""page_index"":7,""viewing_time"":6545},{""page_index"":8,""viewing_time"":6248},{""page_index"":9,""viewing_time"":9112},{""page_index"":10,""viewing_time"":24200},{""page_index"":11,""viewing_time"":7215},{""page_index"":12,""viewing_time"":6898},{""page_index"":13,""viewing_time"":5646}]","119961","","","","","","","","","","","","","","","","","","","","","","","","",""
"pit-trial","8","145350","0.0-2.0-4.0-0.0","battery-v0.2","","""event"",""trial"",""time""
""focus"",""0"",""2""
""fullscreenenter"",""1"",""2966""
","
","""event"",""trial"",""time""
""focus"",""0"",""2""
","""event"",""trial"",""time""
""fullscreenenter"",""1"",""2966""
","
","","","549","","","11","1071","815","&#9784;","elianto","#FFFFF080"," "," ","1","&#10004","[1403]","1","0","0","","","","","","","","",""
"pit-trial","9","148631","0.0-2.0-4.1-0.1","battery-v0.2","","""event"",""trial"",""time""
""focus"",""0"",""2""
""fullscreenenter"",""1"",""2966""
","
","""event"",""trial"",""time""
""focus"",""0"",""2""
","""event"",""trial"",""time""
""fullscreenenter"",""1"",""2966""
","
","","","403","","","11","1071","815","&#9784;","elianto","#FFFFF080"," "," ","1","&#10004","[1268]","1","0","0","","","","","","","","",""
"pit-trial","10","152044","0.0-2.0-4.2-0.2","battery-v0.2","","""event"",""trial"",""time""
""focus"",""0"",""2""
""fullscreenenter"",""1"",""2966""
","
","""event"",""trial"",""time""
""focus"",""0"",""2""
","""event"",""trial"",""time""
""fullscreenenter"",""1"",""2966""
","
","","","551","","","11","1071","815","&#9784;","elianto","#FFFFF080"," "," ","1","&#10004","[1403]","1","0","0","","","","","","","","",""
"pit-trial","11","155472","0.0-2.0-4.3-0.3","battery-v0.2","","""event"",""trial"",""time""
""focus"",""0"",""2""
""fullscreenenter"",""1"",""2966""
","
","""event"",""trial"",""time""
""focus"",""0"",""2""
","""event"",""trial"",""time""
""fullscreenenter"",""1"",""2966""
","
","","","559","","","11","1071","815","&#9784;","elianto","#FFFFF080"," "," ","1","&#10004","[1417]","1","0","0","","","","","","","","",""
"pit-trial","12","158655","0.0-2.0-4.4-0.4","battery-v0.2","","""event"",""trial"",""time""
""focus"",""0"",""2""
""fullscreenenter"",""1"",""2966""
","
","""event"",""trial"",""time""
""focus"",""0"",""2""
","""event"",""trial"",""time""
""fullscreenenter"",""1"",""2966""
","
","","","316","","","11","1071","815","&#9784;","elianto","#FFFFF080"," "," ","1","&#10004","[1167]","1","0","0","","","","","","","","",""
"pit-instructions","13","180321","0.0-2.0-5.0","battery-v0.2","","""event"",""trial"",""time""
""focus"",""0"",""2""
""fullscreenenter"",""1"",""2966""
","
","""event"",""trial"",""time""
""focus"",""0"",""2""
","""event"",""trial"",""time""
""fullscreenenter"",""1"",""2966""
","
","","[{""page_index"":0,""viewing_time"":5162},{""page_index"":1,""viewing_time"":6137},{""page_index"":2,""viewing_time"":5136},{""page_index"":3,""viewing_time"":5223}]","21659","","","","","","","","","","","","","","","","","","","","","","","","",""
"pit-trial","14","185197","0.0-2.0-6.0-0.0","battery-v0.2","","""event"",""trial"",""time""
""focus"",""0"",""2""
""fullscreenenter"",""1"",""2966""
","
","""event"",""trial"",""time""
""focus"",""0"",""2""
","""event"",""trial"",""time""
""fullscreenenter"",""1"",""2966""
","
","","","-1","","","11","1071","815","&#9854;","elianto","#FFFFF080","-1","-1","1","&#10004","[]","0","0","1","","","","","","","","",""
"pit-trial","15","190062","0.0-2.0-6.1-0.1","battery-v0.2","","""event"",""trial"",""time""
""focus"",""0"",""2""
""fullscreenenter"",""1"",""2966""
","
","""event"",""trial"",""time""
""focus"",""0"",""2""
","""event"",""trial"",""time""
""fullscreenenter"",""1"",""2966""
","
","","","-1","","","11","1071","815","&#9854;","elianto","#FFFFF080","-1","-1","1","&#10004","[]","0","0","1","","","","","","","","",""
"pit-trial","16","194939","0.0-2.0-6.2-0.2","battery-v0.2","","""event"",""trial"",""time""
""focus"",""0"",""2""
""fullscreenenter"",""1"",""2966""
","
","""event"",""trial"",""time""
""focus"",""0"",""2""
","""event"",""trial"",""time""
""fullscreenenter"",""1"",""2966""
","
","","","-1","","","11","1071","815","&#9854;","elianto","#FFFFF080","-1","-1","1","&#10004","[]","0","0","1","","","","","","","","",""
"pit-trial","17","199816","0.0-2.0-6.3-0.3","battery-v0.2","","""event"",""trial"",""time""
""focus"",""0"",""2""
""fullscreenenter"",""1"",""2966""
","
","""event"",""trial"",""time""
""focus"",""0"",""2""
","""event"",""trial"",""time""
""fullscreenenter"",""1"",""2966""
","
","","","-1","","","11","1071","815","&#9854;","elianto","#FFFFF080","-1","-1","1","&#10004","[]","0","0","1","","","","","","","","",""
"pit-trial","18","204676","0.0-2.0-6.4-0.4","battery-v0.2","","""event"",""trial"",""time""
""focus"",""0"",""2""
""fullscreenenter"",""1"",""2966""
","
","""event"",""trial"",""time""
""focus"",""0"",""2""
","""event"",""trial"",""time""
""fullscreenenter"",""1"",""2966""
","
","","","-1","","","11","1071","815","&#9854;","elianto","#FFFFF080","-1","-1","1","&#10004","[]","0","0","1","","","","","","","","",""
"pit-instructions","19","356283","0.0-2.0-7.0","battery-v0.2","","""event"",""trial"",""time""
""focus"",""0"",""2""
""fullscreenenter"",""1"",""2966""
","
","""event"",""trial"",""time""
""focus"",""0"",""2""
","""event"",""trial"",""time""
""fullscreenenter"",""1"",""2966""
","
","","[{""page_index"":0,""viewing_time"":6042},{""page_index"":1,""viewing_time"":6912},{""page_index"":2,""viewing_time"":6016},{""page_index"":3,""viewing_time"":6936},{""page_index"":4,""viewing_time"":5399},{""page_index"":5,""viewing_time"":5713},{""page_index"":6,""viewing_time"":4999},{""page_index"":7,""viewing_time"":7976},{""page_index"":8,""viewing_time"":7032},{""page_index"":9,""viewing_time"":6497},{""page_index"":10,""viewing_time"":6728},{""page_index"":11,""viewing_time"":6799},{""page_index"":12,""viewing_time"":6872},{""page_index"":13,""viewing_time"":37473},{""page_index"":14,""viewing_time"":7264},{""page_index"":15,""viewing_time"":7160},{""page_index"":16,""viewing_time"":6751},{""page_index"":17,""viewing_time"":9033}]","151602","","","","","","","","","","","","","","","","","","","","","","","","",""
"pit-trial","20","359675","0.0-2.0-8.0-0.0","battery-v0.2","","""event"",""trial"",""time""
""focus"",""0"",""2""
""fullscreenenter"",""1"",""2966""
","
","""event"",""trial"",""time""
""focus"",""0"",""2""
","""event"",""trial"",""time""
""fullscreenenter"",""1"",""2966""
","
","","","530","","","11","1071","815","&#9776;","elianto","#3366ff99"," "," ","1","+10","[1387]","1","0","1","","","","","","","","",""
"pit-trial","21","362959","0.0-2.0-8.0-1.0","battery-v0.2","","""event"",""trial"",""time""
""focus"",""0"",""2""
""fullscreenenter"",""1"",""2966""
","
","""event"",""trial"",""time""
""focus"",""0"",""2""
","""event"",""trial"",""time""
""fullscreenenter"",""1"",""2966""
","
","","","423","","","11","1071","815","&#9776;","elianto","#3366ff99"," "," ","1","+10","[1277]","1","0","1","","","","","","","","",""
"pit-trial","22","365869","0.0-2.0-8.0-2.0","battery-v0.2","","""event"",""trial"",""time""
""focus"",""0"",""2""
""fullscreenenter"",""1"",""2966""
","
","""event"",""trial"",""time""
""focus"",""0"",""2""
","""event"",""trial"",""time""
""fullscreenenter"",""1"",""2966""
","
","","","42","","","11","1071","815","&#9776;","elianto","#3366ff99"," "," ","1","+10","[898]","1","0","1","","","","","","","","",""
"pit-trial","23","368948","0.0-2.0-8.0-3.0","battery-v0.2","","""event"",""trial"",""time""
""focus"",""0"",""2""
""fullscreenenter"",""1"",""2966""
","
","""event"",""trial"",""time""
""focus"",""0"",""2""
","""event"",""trial"",""time""
""fullscreenenter"",""1"",""2966""
","
","","","221","","","11","1071","815","&#9776;","elianto","#3366ff99"," "," ","1","0","[1077]","1","0","1","","","","","","","","",""
"pit-trial","24","372172","0.0-2.0-8.0-4.0","battery-v0.2","","""event"",""trial"",""time""
""focus"",""0"",""2""
""fullscreenenter"",""1"",""2966""
","
","""event"",""trial"",""time""
""focus"",""0"",""2""
","""event"",""trial"",""time""
""fullscreenenter"",""1"",""2966""
","
","","","344","","","11","1071","815","&#9776;","elianto","#3366ff99"," "," ","1","+10","[1203]","1","0","1","","","","","","","","",""
"call-function","25","372175","0.0-2.0-9.0","battery-v0.2","","""event"",""trial"",""time""
""focus"",""0"",""2""
""fullscreenenter"",""1"",""2966""
","
","""event"",""trial"",""time""
""focus"",""0"",""2""
","""event"",""trial"",""time""
""fullscreenenter"",""1"",""2966""
","
","","","","","","","","","","","","","","","","","","","","","","","","","","","",""
"pit-instructions","26","413051","0.0-2.0-10.0","battery-v0.2","","""event"",""trial"",""time""
""focus"",""0"",""2""
""fullscreenenter"",""1"",""2966""
","
","""event"",""trial"",""time""
""focus"",""0"",""2""
","""event"",""trial"",""time""
""fullscreenenter"",""1"",""2966""
","
","","[{""page_index"":0,""viewing_time"":6618},{""page_index"":1,""viewing_time"":7143},{""page_index"":2,""viewing_time"":10353},{""page_index"":3,""viewing_time"":9352},{""page_index"":4,""viewing_time"":7408}]","40874","","","","","","","","","","","","","","","","","","","","","","","","",""
"pit-trial","27","417916","0.0-2.0-11.0-0.0","battery-v0.2","","""event"",""trial"",""time""
""focus"",""0"",""2""
""fullscreenenter"",""1"",""2966""
","
","""event"",""trial"",""time""
""focus"",""0"",""2""
","""event"",""trial"",""time""
""fullscreenenter"",""1"",""2966""
","
","","","-1","","","11","1071","815","&#9761;","elianto","#3366ff99","-1","-1","1","+10","[]","0","0","2","","","","","","","","",""
"pit-trial","28","422788","0.0-2.0-11.0-1.0","battery-v0.2","","""event"",""trial"",""time""
""focus"",""0"",""2""
""fullscreenenter"",""1"",""2966""
","
","""event"",""trial"",""time""
""focus"",""0"",""2""
","""event"",""trial"",""time""
""fullscreenenter"",""1"",""2966""
","
","","","-1","","","11","1071","815","&#9761;","elianto","#3366ff99","-1","-1","1","+10","[]","0","0","2","","","","","","","","",""
"pit-trial","29","427662","0.0-2.0-11.0-2.0","battery-v0.2","","""event"",""trial"",""time""
""focus"",""0"",""2""
""fullscreenenter"",""1"",""2966""
","
","""event"",""trial"",""time""
""focus"",""0"",""2""
","""event"",""trial"",""time""
""fullscreenenter"",""1"",""2966""
","
","","","-1","","","11","1071","815","&#9761;","elianto","#3366ff99","-1","-1","1","+10","[]","0","0","2","","","","","","","","",""
"pit-trial","30","432531","0.0-2.0-11.0-3.0","battery-v0.2","","""event"",""trial"",""time""
""focus"",""0"",""2""
""fullscreenenter"",""1"",""2966""
","
","""event"",""trial"",""time""
""focus"",""0"",""2""
","""event"",""trial"",""time""
""fullscreenenter"",""1"",""2966""
","
","","","-1","","","11","1071","815","&#9761;","elianto","#3366ff99","-1","-1","1","0","[]","0","0","2","","","","","","","","",""
"pit-trial","31","437395","0.0-2.0-11.0-4.0","battery-v0.2","","""event"",""trial"",""time""
""focus"",""0"",""2""
""fullscreenenter"",""1"",""2966""
","
","""event"",""trial"",""time""
""focus"",""0"",""2""
","""event"",""trial"",""time""
""fullscreenenter"",""1"",""2966""
","
","","","-1","","","11","1071","815","&#9761;","elianto","#3366ff99","-1","-1","1","+10","[]","0","0","2","","","","","","","","",""
"call-function","32","437400","0.0-2.0-12.0","battery-v0.2","","""event"",""trial"",""time""
""focus"",""0"",""2""
""fullscreenenter"",""1"",""2966""
","
","""event"",""trial"",""time""
""focus"",""0"",""2""
","""event"",""trial"",""time""
""fullscreenenter"",""1"",""2966""
","
","","","","","","","","","","","","","","","","","","","","","","","","","","","",""
"pit-instructions","33","470818","0.0-2.0-13.0","battery-v0.2","","""event"",""trial"",""time""
""focus"",""0"",""2""
""fullscreenenter"",""1"",""2966""
","
","""event"",""trial"",""time""
""focus"",""0"",""2""
","""event"",""trial"",""time""
""fullscreenenter"",""1"",""2966""
","
","","[{""page_index"":0,""viewing_time"":5985},{""page_index"":1,""viewing_time"":7536},{""page_index"":2,""viewing_time"":4185},{""page_index"":3,""viewing_time"":10727},{""page_index"":4,""viewing_time"":4984}]","33417","","","","","","","","","","","","","","","","","","","","","","","","",""
"pit-trial","34","474141","0.0-2.0-14.0-0.0","battery-v0.2","","""event"",""trial"",""time""
""focus"",""0"",""2""
""fullscreenenter"",""1"",""2966""
","
","""event"",""trial"",""time""
""focus"",""0"",""2""
","""event"",""trial"",""time""
""fullscreenenter"",""1"",""2966""
","
","","","453","","","11","1071","815","&#9826;","elianto","#f73b6a7A","-1"," ","0","-10","[1304]","1","0","3","","","","","","","","",""
"pit-trial","35","479004","0.0-2.0-14.0-1.0","battery-v0.2","","""event"",""trial"",""time""
""focus"",""0"",""2""
""fullscreenenter"",""1"",""2966""
","
","""event"",""trial"",""time""
""focus"",""0"",""2""
","""event"",""trial"",""time""
""fullscreenenter"",""1"",""2966""
","
","","","-1","","","11","1071","815","&#9826;","elianto","#f73b6a7A","-1","-1","1","0","[]","0","0","3","","","","","","","","",""
"pit-trial","36","483873","0.0-2.0-14.0-2.0","battery-v0.2","","""event"",""trial"",""time""
""focus"",""0"",""2""
""fullscreenenter"",""1"",""2966""
","
","""event"",""trial"",""time""
""focus"",""0"",""2""
","""event"",""trial"",""time""
""fullscreenenter"",""1"",""2966""
","
","","","-1","","","11","1071","815","&#9826;","elianto","#f73b6a7A","-1","-1","1","0","[]","0","0","3","","","","","","","","",""
"pit-trial","37","488738","0.0-2.0-14.0-3.0","battery-v0.2","","""event"",""trial"",""time""
""focus"",""0"",""2""
""fullscreenenter"",""1"",""2966""
","
","""event"",""trial"",""time""
""focus"",""0"",""2""
","""event"",""trial"",""time""
""fullscreenenter"",""1"",""2966""
","
","","","-1","","","11","1071","815","&#9826;","elianto","#f73b6a7A","-1","-1","1","-10","[]","0","0","3","","","","","","","","",""
"pit-trial","38","493615","0.0-2.0-14.0-4.0","battery-v0.2","","""event"",""trial"",""time""
""focus"",""0"",""2""
""fullscreenenter"",""1"",""2966""
","
","""event"",""trial"",""time""
""focus"",""0"",""2""
","""event"",""trial"",""time""
""fullscreenenter"",""1"",""2966""
","
","","","-1","","","11","1071","815","&#9826;","elianto","#f73b6a7A","-1","-1","1","0","[4273]","1","0","3","","","","","","","","",""
"call-function","39","493617","0.0-2.0-15.0","battery-v0.2","","""event"",""trial"",""time""
""focus"",""0"",""2""
""fullscreenenter"",""1"",""2966""
","
","""event"",""trial"",""time""
""focus"",""0"",""2""
","""event"",""trial"",""time""
""fullscreenenter"",""1"",""2966""
","
","","","","","","","","","","","","","","","","","","","","","","","","","","","",""
"pit-instructions","40","521690","0.0-2.0-16.0","battery-v0.2","","""event"",""trial"",""time""
""focus"",""0"",""2""
""fullscreenenter"",""1"",""2966""
","
","""event"",""trial"",""time""
""focus"",""0"",""2""
","""event"",""trial"",""time""
""fullscreenenter"",""1"",""2966""
","
","","[{""page_index"":0,""viewing_time"":6463},{""page_index"":1,""viewing_time"":9688},{""page_index"":2,""viewing_time"":6216},{""page_index"":3,""viewing_time"":5704}]","28071","","","","","","","","","","","","","","","","","","","","","","","","",""
"pit-trial","41","524810","0.0-2.0-17.0-0.0","battery-v0.2","","""event"",""trial"",""time""
""focus"",""0"",""2""
""fullscreenenter"",""1"",""2966""
","
","""event"",""trial"",""time""
""focus"",""0"",""2""
","""event"",""trial"",""time""
""fullscreenenter"",""1"",""2966""
","
","","","248","","","11","1071","815","&#9789;","elianto","#f73b6a7A"," "," ","1","0","[1101]","1","0","4","","","","","","","","",""
"pit-trial","42","527795","0.0-2.0-17.0-1.0","battery-v0.2","","""event"",""trial"",""time""
""focus"",""0"",""2""
""fullscreenenter"",""1"",""2966""
","
","""event"",""trial"",""time""
""focus"",""0"",""2""
","""event"",""trial"",""time""
""fullscreenenter"",""1"",""2966""
","
","","","112","","","11","1071","815","&#9789;","elianto","#f73b6a7A"," "," ","1","0","[971]","1","0","4","","","","","","","","",""
"pit-trial","43","530781","0.0-2.0-17.0-2.0","battery-v0.2","","""event"",""trial"",""time""
""focus"",""0"",""2""
""fullscreenenter"",""1"",""2966""
","
","""event"",""trial"",""time""
""focus"",""0"",""2""
","""event"",""trial"",""time""
""fullscreenenter"",""1"",""2966""
","
","","","114","","","11","1071","815","&#9789;","elianto","#f73b6a7A"," "," ","1","0","[973]","1","0","4","","","","","","","","",""
"pit-trial","44","533779","0.0-2.0-17.0-3.0","battery-v0.2","","""event"",""trial"",""time""
""focus"",""0"",""2""
""fullscreenenter"",""1"",""2966""
","
","""event"",""trial"",""time""
""focus"",""0"",""2""
","""event"",""trial"",""time""
""fullscreenenter"",""1"",""2966""
","
","","","142","","","11","1071","815","&#9789;","elianto","#f73b6a7A"," "," ","1","-10","[991]","1","0","4","","","","","","","","",""
"pit-trial","45","536792","0.0-2.0-17.0-4.0","battery-v0.2","","""event"",""trial"",""time""
""focus"",""0"",""2""
""fullscreenenter"",""1"",""2966""
","
","""event"",""trial"",""time""
""focus"",""0"",""2""
","""event"",""trial"",""time""
""fullscreenenter"",""1"",""2966""
","
","","","150","","","11","1071","815","&#9789;","elianto","#f73b6a7A"," "," ","1","0","[1010]","1","0","4","","","","","","","","",""
"call-function","46","536794","0.0-2.0-18.0","battery-v0.2","","""event"",""trial"",""time""
""focus"",""0"",""2""
""fullscreenenter"",""1"",""2966""
","
","""event"",""trial"",""time""
""focus"",""0"",""2""
","""event"",""trial"",""time""
""fullscreenenter"",""1"",""2966""
","
","","","","","","","","","","","","","","","","","","","","","","","","","","","",""
"pit-instructions","47","618435","0.0-2.0-19.0","battery-v0.2","","""event"",""trial"",""time""
""focus"",""0"",""2""
""fullscreenenter"",""1"",""2966""
","
","""event"",""trial"",""time""
""focus"",""0"",""2""
","""event"",""trial"",""time""
""fullscreenenter"",""1"",""2966""
","
","","[{""page_index"":0,""viewing_time"":6951},{""page_index"":1,""viewing_time"":4144},{""page_index"":2,""viewing_time"":13816},{""page_index"":3,""viewing_time"":18856},{""page_index"":4,""viewing_time"":6769},{""page_index"":5,""viewing_time"":9567},{""page_index"":6,""viewing_time"":8673},{""page_index"":7,""viewing_time"":6863},{""page_index"":8,""viewing_time"":6001}]","81641","","","","","","","","","","","","","","","","","","","","","","","","",""
"pit-comprehension","48","624548","0.0-2.0-20.0-0.0","battery-v0.2","","""event"",""trial"",""time""
""focus"",""0"",""2""
""fullscreenenter"",""1"",""2966""
","
","""event"",""trial"",""time""
""focus"",""0"",""2""
","""event"",""trial"",""time""
""fullscreenenter"",""1"",""2966""
","
","","","6108","[""SPACE""]","0","11","1071","815","","","","","","","","","","","","","","","","","","","",""
"pit-instructions","49","627756","0.0-2.0-20.0-1.0","battery-v0.2","","""event"",""trial"",""time""
""focus"",""0"",""2""
""fullscreenenter"",""1"",""2966""
","
","""event"",""trial"",""time""
""focus"",""0"",""2""
","""event"",""trial"",""time""
""fullscreenenter"",""1"",""2966""
","
","","[{""page_index"":0,""viewing_time"":3185}]","3186","","","","","","","","","","","","","","","","","","","","","","","","",""
"pit-comprehension","50","637157","0.0-2.0-21.0-0.0","battery-v0.2","","""event"",""trial"",""time""
""focus"",""0"",""2""
""fullscreenenter"",""1"",""2966""
","
","""event"",""trial"",""time""
""focus"",""0"",""2""
","""event"",""trial"",""time""
""fullscreenenter"",""1"",""2966""
","
","","","9392","[""10""]","0","11","1071","815","","","","","","","","","","","","","","","","","","","",""
"pit-instructions","51","641563","0.0-2.0-21.0-1.0","battery-v0.2","","""event"",""trial"",""time""
""focus"",""0"",""2""
""fullscreenenter"",""1"",""2966""
","
","""event"",""trial"",""time""
""focus"",""0"",""2""
","""event"",""trial"",""time""
""fullscreenenter"",""1"",""2966""
","
","","[{""page_index"":0,""viewing_time"":4384}]","4384","","","","","","","","","","","","","","","","","","","","","","","","",""
"pit-comprehension","52","649581","0.0-2.0-22.0-0.0","battery-v0.2","","""event"",""trial"",""time""
""focus"",""0"",""2""
""fullscreenenter"",""1"",""2966""
","
","""event"",""trial"",""time""
""focus"",""0"",""2""
","""event"",""trial"",""time""
""fullscreenenter"",""1"",""2966""
","
","","","8012","[""0""]","0","11","1071","815","","","","","","","","","","","","","","","","","","","",""
"pit-instructions","53","651042","0.0-2.0-22.0-1.0","battery-v0.2","","""event"",""trial"",""time""
""focus"",""0"",""2""
""fullscreenenter"",""1"",""2966""
","
","""event"",""trial"",""time""
""focus"",""0"",""2""
","""event"",""trial"",""time""
""fullscreenenter"",""1"",""2966""
","
","","[{""page_index"":0,""viewing_time"":1430}]","1430","","","","","","","","","","","","","","","","","","","","","","","","",""
"pit-comprehension","54","662221","0.0-2.0-23.0-0.0","battery-v0.2","","""event"",""trial"",""time""
""focus"",""0"",""2""
""fullscreenenter"",""1"",""2966""
","
","""event"",""trial"",""time""
""focus"",""0"",""2""
","""event"",""trial"",""time""
""fullscreenenter"",""1"",""2966""
","
","","","11173","[""True""]","0","11","1071","815","","","","","","","","","","","","","","","","","","","",""
"pit-instructions","55","663388","0.0-2.0-23.0-1.0","battery-v0.2","","""event"",""trial"",""time""
""focus"",""0"",""2""
""fullscreenenter"",""1"",""2966""
","
","""event"",""trial"",""time""
""focus"",""0"",""2""
","""event"",""trial"",""time""
""fullscreenenter"",""1"",""2966""
","
","","[{""page_index"":0,""viewing_time"":1145}]","1145","","","","","","","","","","","","","","","","","","","","","","","","",""
"pit-comprehension","56","671774","0.0-2.0-24.0-0.0","battery-v0.2","","""event"",""trial"",""time""
""focus"",""0"",""2""
""fullscreenenter"",""1"",""2966""
","
","""event"",""trial"",""time""
""focus"",""0"",""2""
","""event"",""trial"",""time""
""fullscreenenter"",""1"",""2966""
","
","","","8380","[""True""]","0","11","1071","815","","","","","","","","","","","","","","","","","","","",""
"pit-instructions","57","672940","0.0-2.0-24.0-1.0","battery-v0.2","","""event"",""trial"",""time""
""focus"",""0"",""2""
""fullscreenenter"",""1"",""2966""
","
","""event"",""trial"",""time""
""focus"",""0"",""2""
","""event"",""trial"",""time""
""fullscreenenter"",""1"",""2966""
","
","","[{""page_index"":0,""viewing_time"":1144}]","1144","","","","","","","","","","","","","","","","","","","","","","","","",""
"pit-comprehension","58","679523","0.0-2.0-25.0-0.0","battery-v0.2","","""event"",""trial"",""time""
""focus"",""0"",""2""
""fullscreenenter"",""1"",""2966""
","
","""event"",""trial"",""time""
""focus"",""0"",""2""
","""event"",""trial"",""time""
""fullscreenenter"",""1"",""2966""
","
","","","6579","[""True""]","0","11","1071","815","","","","","","","","","","","","","","","","","","","",""
"pit-instructions","59","681217","0.0-2.0-25.0-1.0","battery-v0.2","","""event"",""trial"",""time""
""focus"",""0"",""2""
""fullscreenenter"",""1"",""2966""
","
","""event"",""trial"",""time""
""focus"",""0"",""2""
","""event"",""trial"",""time""
""fullscreenenter"",""1"",""2966""
","
","","[{""page_index"":0,""viewing_time"":1673}]","1673","","","","","","","","","","","","","","","","","","","","","","","","",""
"pit-comprehension","60","689307","0.0-2.0-26.0-0.0","battery-v0.2","","""event"",""trial"",""time""
""focus"",""0"",""2""
""fullscreenenter"",""1"",""2966""
","
","""event"",""trial"",""time""
""focus"",""0"",""2""
","""event"",""trial"",""time""
""fullscreenenter"",""1"",""2966""
","
","","","8086","[""False""]","0","11","1071","815","","","","","","","","","","","","","","","","","","","",""
"pit-instructions","61","691138","0.0-2.0-26.0-1.0","battery-v0.2","","""event"",""trial"",""time""
""focus"",""0"",""2""
""fullscreenenter"",""1"",""2966""
","
","""event"",""trial"",""time""
""focus"",""0"",""2""
","""event"",""trial"",""time""
""fullscreenenter"",""1"",""2966""
","
","","[{""page_index"":0,""viewing_time"":1809}]","1810","","","","","","","","","","","","","","","","","","","","","","","","",""
"pit-instructions","62","710875","0.0-3.0","battery-v0.2","","""event"",""trial"",""time""
""focus"",""0"",""2""
""fullscreenenter"",""1"",""2966""
","
","""event"",""trial"",""time""
""focus"",""0"",""2""
","""event"",""trial"",""time""
""fullscreenenter"",""1"",""2966""
","
","","[{""page_index"":0,""viewing_time"":6076},{""page_index"":1,""viewing_time"":5224},{""page_index"":2,""viewing_time"":8433}]","19733","","","","","","","","","","","","","","","","","","","","","","","","",""
"pit-trial","63","714595","0.0-4.0","battery-v0.2","","""event"",""trial"",""time""
""focus"",""0"",""2""
""fullscreenenter"",""1"",""2966""
","
","""event"",""trial"",""time""
""focus"",""0"",""2""
","""event"",""trial"",""time""
""fullscreenenter"",""1"",""2966""
","
","","","861","","","11","1071","815","&#9728;","elianto","#f73b6a7A","-1"," ","0","-10","[1710]","1","1","","","1071","1","0","4","lose","no-go","0","[]"
"pit-trial","64","718333","0.0-5.0","battery-v0.2","","""event"",""trial"",""time""
""focus"",""0"",""2""
""fullscreenenter"",""1"",""2966""
","
","""event"",""trial"",""time""
""focus"",""0"",""2""
","""event"",""trial"",""time""
""fullscreenenter"",""1"",""2966""
","
","","","869","","","11","1071","815","&#9752;","elianto","#f73b6a7A"," "," ","1","-10","[1720]","1","1","","","1071","2","3","3","lose","go","1","0"
"pit-trial","65","722043","0.0-6.0","battery-v0.2","","""event"",""trial"",""time""
""focus"",""0"",""2""
""fullscreenenter"",""1"",""2966""
","
","""event"",""trial"",""time""
""focus"",""0"",""2""
","""event"",""trial"",""time""
""fullscreenenter"",""1"",""2966""
","
","","","852","","","11","1071","815","&#9730;","elianto","#3366ff99"," "," ","1","+10","[1703]","1","1","","","1071","3","1","1","win","go","0","0"
"pit-trial","66","725533","0.0-7.0","battery-v0.2","","""event"",""trial"",""time""
""focus"",""0"",""2""
""fullscreenenter"",""1"",""2966""
","
","""event"",""trial"",""time""
""focus"",""0"",""2""
","""event"",""trial"",""time""
""fullscreenenter"",""1"",""2966""
","
","","","631","","","11","1071","815","&#9733;","elianto","#3366ff99","-1"," ","0","0","[1486]","1","1","","","1071","4","2","2","win","no-go","0","0"
"pit-trial","67","728989","0.0-8.0","battery-v0.2","","""event"",""trial"",""time""
""focus"",""0"",""2""
""fullscreenenter"",""1"",""2966""
","
","""event"",""trial"",""time""
""focus"",""0"",""2""
","""event"",""trial"",""time""
""fullscreenenter"",""1"",""2966""
","
","","","585","","","11","1071","815","&#9733;","elianto","#3366ff99","-1"," ","0","0","[1445]","1","1","","","1071","5","2","2","win","no-go","0","0"
"pit-trial","68","732882","0.0-9.0","battery-v0.2","","""event"",""trial"",""time""
""focus"",""0"",""2""
""fullscreenenter"",""1"",""2966""
","
","""event"",""trial"",""time""
""focus"",""0"",""2""
","""event"",""trial"",""time""
""fullscreenenter"",""1"",""2966""
","
","","","1030","","","11","1071","815","&#9752;","elianto","#f73b6a7A"," "," ","1","0","[1889]","1","1","","","1071","6","3","3","lose","go","0","0"
"pit-trial","69","737761","0.0-10.0","battery-v0.2","","""event"",""trial"",""time""
""focus"",""0"",""2""
""fullscreenenter"",""1"",""2966""
","
","""event"",""trial"",""time""
""focus"",""0"",""2""
","""event"",""trial"",""time""
""fullscreenenter"",""1"",""2966""
","
","","","-1","","","11","1071","815","&#9728;","elianto","#f73b6a7A","-1","-1","1","-10","[]","0","1","","","1071","7","0","4","lose","no-go","1","0"
"pit-trial","70","741429","0.0-11.0","battery-v0.2","","""event"",""trial"",""time""
""focus"",""0"",""2""
""fullscreenenter"",""1"",""2966""
","
","""event"",""trial"",""time""
""focus"",""0"",""2""
","""event"",""trial"",""time""
""fullscreenenter"",""1"",""2966""
","
","","","788","","","11","1071","815","&#9730;","elianto","#3366ff99"," "," ","1","+10","[1650]","1","1","","","1071","8","1","1","win","go","0","0"
"pit-trial","71","745450","0.0-12.0","battery-v0.2","","""event"",""trial"",""time""
""focus"",""0"",""2""
""fullscreenenter"",""1"",""2966""
","
","""event"",""trial"",""time""
""focus"",""0"",""2""
","""event"",""trial"",""time""
""fullscreenenter"",""1"",""2966""
","
","","","1150","","","11","1071","815","&#9728;","elianto","#f73b6a7A","-1"," ","0","0","[2007]","1","1","","","1071","9","0","4","lose","no-go","1","0"
"pit-trial","72","748993","0.0-13.0","battery-v0.2","","""event"",""trial"",""time""
""focus"",""0"",""2""
""fullscreenenter"",""1"",""2966""
","
","""event"",""trial"",""time""
""focus"",""0"",""2""
","""event"",""trial"",""time""
""fullscreenenter"",""1"",""2966""
","
","","","673","","","11","1071","815","&#9730;","elianto","#3366ff99"," "," ","1","+10","[1527]","1","1","","","1071","10","1","1","win","go","0","0"
"pit-trial","73","752652","0.0-14.0","battery-v0.2","","""event"",""trial"",""time""
""focus"",""0"",""2""
""fullscreenenter"",""1"",""2966""
","
","""event"",""trial"",""time""
""focus"",""0"",""2""
","""event"",""trial"",""time""
""fullscreenenter"",""1"",""2966""
","
","","","788","","","11","1071","815","&#9752;","elianto","#f73b6a7A"," "," ","1","0","[1646]","1","1","","","1071","11","3","3","lose","go","0","0"
"pit-trial","74","757524","0.0-15.0","battery-v0.2","","""event"",""trial"",""time""
""focus"",""0"",""2""
""fullscreenenter"",""1"",""2966""
","
","""event"",""trial"",""time""
""focus"",""0"",""2""
","""event"",""trial"",""time""
""fullscreenenter"",""1"",""2966""
","
","","","-1","","","11","1071","815","&#9733;","elianto","#3366ff99","-1","-1","1","0","[]","0","1","","","1071","12","2","2","win","no-go","1","0"
"pit-trial","75","761446","0.0-16.0","battery-v0.2","","""event"",""trial"",""time""
""focus"",""0"",""2""
""fullscreenenter"",""1"",""2966""
","
","""event"",""trial"",""time""
""focus"",""0"",""2""
","""event"",""trial"",""time""
""fullscreenenter"",""1"",""2966""
","
","","","1065","","","11","1071","815","&#9730;","elianto","#3366ff99"," "," ","1","+10","[1918]","1","1","","","1071","13","1","1","win","go","0","0"
"pit-trial","76","765526","0.0-17.0","battery-v0.2","","""event"",""trial"",""time""
""focus"",""0"",""2""
""fullscreenenter"",""1"",""2966""
","
","""event"",""trial"",""time""
""focus"",""0"",""2""
","""event"",""trial"",""time""
""fullscreenenter"",""1"",""2966""
","
","","","1221","","","11","1071","815","&#9752;","elianto","#f73b6a7A"," "," ","1","0","[2074]","1","1","","","1071","14","3","3","lose","go","0","0"
"pit-trial","77","770241","0.0-18.0","battery-v0.2","","""event"",""trial"",""time""
""focus"",""0"",""2""
""fullscreenenter"",""1"",""2966""
","
","""event"",""trial"",""time""
""focus"",""0"",""2""
","""event"",""trial"",""time""
""fullscreenenter"",""1"",""2966""
","
","","","1852","","","11","1071","815","&#9728;","elianto","#f73b6a7A","-1"," ","0","0","[2710]","1","1","","","1071","15","0","4","lose","no-go","1","0"
"pit-trial","78","773978","0.0-19.0","battery-v0.2","","""event"",""trial"",""time""
""focus"",""0"",""2""
""fullscreenenter"",""1"",""2966""
","
","""event"",""trial"",""time""
""focus"",""0"",""2""
","""event"",""trial"",""time""
""fullscreenenter"",""1"",""2966""
","
","","","870","","","11","1071","815","&#9733;","elianto","#3366ff99","-1"," ","0","0","[1722]","1","1","","","1071","16","2","2","win","no-go","0","0"
"pit-trial","79","778009","0.0-20.0","battery-v0.2","","""event"",""trial"",""time""
""focus"",""0"",""2""
""fullscreenenter"",""1"",""2966""
","
","""event"",""trial"",""time""
""focus"",""0"",""2""
","""event"",""trial"",""time""
""fullscreenenter"",""1"",""2966""
","
","","","1173","","","11","1071","815","&#9752;","elianto","#f73b6a7A"," "," ","1","-10","[2024]","1","1","","","1071","17","3","3","lose","go","1","0"
"pit-trial","80","782089","0.0-21.0","battery-v0.2","","""event"",""trial"",""time""
""focus"",""0"",""2""
""fullscreenenter"",""1"",""2966""
","
","""event"",""trial"",""time""
""focus"",""0"",""2""
","""event"",""trial"",""time""
""fullscreenenter"",""1"",""2966""
","
","","","1205","","","11","1071","815","&#9730;","elianto","#3366ff99"," "," ","1","+10","[2064]","1","1","","","1071","18","1","1","win","go","0","0"
"pit-trial","81","786145","0.0-22.0","battery-v0.2","","""event"",""trial"",""time""
""focus"",""0"",""2""
""fullscreenenter"",""1"",""2966""
","
","""event"",""trial"",""time""
""focus"",""0"",""2""
","""event"",""trial"",""time""
""fullscreenenter"",""1"",""2966""
","
","","","1183","","","11","1071","815","&#9733;","elianto","#3366ff99","-1"," ","0","0","[2043]","1","1","","","1071","19","2","2","win","no-go","0","0"
"pit-trial","82","790598","0.0-23.0","battery-v0.2","","""event"",""trial"",""time""
""focus"",""0"",""2""
""fullscreenenter"",""1"",""2966""
","
","""event"",""trial"",""time""
""focus"",""0"",""2""
","""event"",""trial"",""time""
""fullscreenenter"",""1"",""2966""
","
","","","1581","","","11","1071","815","&#9728;","elianto","#f73b6a7A","-1"," ","0","-10","[2445]","1","1","","","1071","20","0","4","lose","no-go","0","0"
"pit-instructions","83","823996","0.0-24.0","battery-v0.2","","""event"",""trial"",""time""
""focus"",""0"",""2""
""fullscreenenter"",""1"",""2966""
","
","""event"",""trial"",""time""
""focus"",""0"",""2""
","""event"",""trial"",""time""
""fullscreenenter"",""1"",""2966""
","
","","[{""page_index"":0,""viewing_time"":25882},{""page_index"":1,""viewing_time"":7513}]","33396","","","","","","","","","","","","","","","","","","","","","","","","",""
"pit-trial","84","827592","0.0-25.0","battery-v0.2","","""event"",""trial"",""time""
""focus"",""0"",""2""
""fullscreenenter"",""1"",""2966""
","
","""event"",""trial"",""time""
""focus"",""0"",""2""
","""event"",""trial"",""time""
""fullscreenenter"",""1"",""2966""
","
","","","713","","","11","1071","815","x","elianto","#3366ff99"," "," ","1","+10","[1576]","1","2","","","1071","21","3","1","win","go","0","0"
"pit-trial","85","831432","0.0-26.0","battery-v0.2","","""event"",""trial"",""time""
""focus"",""0"",""2""
""fullscreenenter"",""1"",""2966""
","
","""event"",""trial"",""time""
""focus"",""0"",""2""
","""event"",""trial"",""time""
""fullscreenenter"",""1"",""2966""
","
","","","978","","","11","1071","815","q","elianto","#3366ff99","-1"," ","0","0","[1832]","1","2","","","1071","22","0","2","win","no-go","0","0"
"pit-trial","86","835466","0.0-27.0","battery-v0.2","","""event"",""trial"",""time""
""focus"",""0"",""2""
""fullscreenenter"",""1"",""2966""
","
","""event"",""trial"",""time""
""focus"",""0"",""2""
","""event"",""trial"",""time""
""fullscreenenter"",""1"",""2966""
","
","","","1165","","","11","1071","815","f","elianto","#f73b6a7A","-1"," ","0","-10","[2017]","1","2","","","1071","23","2","4","lose","no-go","0","0"
"pit-trial","87","838946","0.0-28.0","battery-v0.2","","""event"",""trial"",""time""
""focus"",""0"",""2""
""fullscreenenter"",""1"",""2966""
","
","""event"",""trial"",""time""
""focus"",""0"",""2""
","""event"",""trial"",""time""
""fullscreenenter"",""1"",""2966""
","
","","","617","","","11","1071","815","n","elianto","#f73b6a7A"," "," ","1","0","[1471]","1","2","","","1071","24","1","3","lose","go","0","0"
"pit-trial","88","842545","0.0-29.0","battery-v0.2","","""event"",""trial"",""time""
""focus"",""0"",""2""
""fullscreenenter"",""1"",""2966""
","
","""event"",""trial"",""time""
""focus"",""0"",""2""
","""event"",""trial"",""time""
""fullscreenenter"",""1"",""2966""
","
","","","729","","","11","1071","815","x","elianto","#3366ff99"," "," ","1","+10","[1583]","1","2","","","1071","25","3","1","win","go","0","0"
"pit-trial","89","846581","0.0-30.0","battery-v0.2","","""event"",""trial"",""time""
""focus"",""0"",""2""
""fullscreenenter"",""1"",""2966""
","
","""event"",""trial"",""time""
""focus"",""0"",""2""
","""event"",""trial"",""time""
""fullscreenenter"",""1"",""2966""
","
","","","1173","","","11","1071","815","n","elianto","#f73b6a7A"," "," ","1","0","[2025]","1","2","","","1071","26","1","3","lose","go","0","0"
"pit-trial","90","851449","0.0-31.0","battery-v0.2","","""event"",""trial"",""time""
""focus"",""0"",""2""
""fullscreenenter"",""1"",""2966""
","
","""event"",""trial"",""time""
""focus"",""0"",""2""
","""event"",""trial"",""time""
""fullscreenenter"",""1"",""2966""
","
","","","-1","","","11","1071","815","q","elianto","#3366ff99","-1","-1","1","+10","[]","0","2","","","1071","27","0","2","win","no-go","0","0"
"pit-trial","91","856319","0.0-32.0","battery-v0.2","","""event"",""trial"",""time""
""focus"",""0"",""2""
""fullscreenenter"",""1"",""2966""
","
","""event"",""trial"",""time""
""focus"",""0"",""2""
","""event"",""trial"",""time""
""fullscreenenter"",""1"",""2966""
","
","","","-1","","","11","1071","815","f","elianto","#f73b6a7A","-1","-1","1","-10","[]","0","2","","","1071","28","2","4","lose","no-go","1","0"
"pit-trial","92","859893","0.0-33.0","battery-v0.2","","""event"",""trial"",""time""
""focus"",""0"",""2""
""fullscreenenter"",""1"",""2966""
","
","""event"",""trial"",""time""
""focus"",""0"",""2""
","""event"",""trial"",""time""
""fullscreenenter"",""1"",""2966""
","
","","","710","","","11","1071","815","x","elianto","#3366ff99"," "," ","1","+10","[1566]","1","2","","","1071","29","3","1","win","go","0","0"
"pit-trial","93","864767","0.0-34.0","battery-v0.2","","""event"",""trial"",""time""
""focus"",""0"",""2""
""fullscreenenter"",""1"",""2966""
","
","""event"",""trial"",""time""
""focus"",""0"",""2""
","""event"",""trial"",""time""
""fullscreenenter"",""1"",""2966""
","
","","","-1","","","11","1071","815","q","elianto","#3366ff99","-1","-1","1","0","[]","0","2","","","1071","30","0","2","win","no-go","1","0"
"pit-trial","94","868736","0.0-35.0","battery-v0.2","","""event"",""trial"",""time""
""focus"",""0"",""2""
""fullscreenenter"",""1"",""2966""
","
","""event"",""trial"",""time""
""focus"",""0"",""2""
","""event"",""trial"",""time""
""fullscreenenter"",""1"",""2966""
","
","","","1114","","","11","1071","815","n","elianto","#f73b6a7A"," "," ","1","-10","[1966]","1","2","","","1071","31","1","3","lose","go","1","0"
"pit-trial","95","873618","0.0-36.0","battery-v0.2","","""event"",""trial"",""time""
""focus"",""0"",""2""
""fullscreenenter"",""1"",""2966""
","
","""event"",""trial"",""time""
""focus"",""0"",""2""
","""event"",""trial"",""time""
""fullscreenenter"",""1"",""2966""
","
","","","-1","","","11","1071","815","f","elianto","#f73b6a7A","-1","-1","1","0","[]","0","2","","","1071","32","2","4","lose","no-go","0","0"
"pit-trial","96","877461","0.0-37.0","battery-v0.2","","""event"",""trial"",""time""
""focus"",""0"",""2""
""fullscreenenter"",""1"",""2966""
","
","""event"",""trial"",""time""
""focus"",""0"",""2""
","""event"",""trial"",""time""
""fullscreenenter"",""1"",""2966""
","
","","","983","","","11","1071","815","n","elianto","#f73b6a7A"," "," ","1","0","[1837]","1","2","","","1071","33","1","3","lose","go","0","0"
"pit-trial","97","881218","0.0-38.0","battery-v0.2","","""event"",""trial"",""time""
""focus"",""0"",""2""
""fullscreenenter"",""1"",""2966""
","
","""event"",""trial"",""time""
""focus"",""0"",""2""
","""event"",""trial"",""time""
""fullscreenenter"",""1"",""2966""
","
","","","899","","","11","1071","815","x","elianto","#3366ff99"," "," ","1","+10","[1752]","1","2","","","1071","34","3","1","win","go","0","0"
"pit-trial","98","886077","0.0-39.0","battery-v0.2","","""event"",""trial"",""time""
""focus"",""0"",""2""
""fullscreenenter"",""1"",""2966""
","
","""event"",""trial"",""time""
""focus"",""0"",""2""
","""event"",""trial"",""time""
""fullscreenenter"",""1"",""2966""
","
","","","-1","","","11","1071","815","f","elianto","#f73b6a7A","-1","-1","1","0","[]","0","2","","","1071","35","2","4","lose","no-go","0","0"
"pit-trial","99","890952","0.0-40.0","battery-v0.2","","""event"",""trial"",""time""
""focus"",""0"",""2""
""fullscreenenter"",""1"",""2966""
","
","""event"",""trial"",""time""
""focus"",""0"",""2""
","""event"",""trial"",""time""
""fullscreenenter"",""1"",""2966""
","
","","","-1","","","11","1071","815","q","elianto","#3366ff99","-1","-1","1","+10","[]","0","2","","","1071","36","0","2","win","no-go","0","0"
"pit-trial","100","894497","0.0-41.0","battery-v0.2","","""event"",""trial"",""time""
""focus"",""0"",""2""
""fullscreenenter"",""1"",""2966""
","
","""event"",""trial"",""time""
""focus"",""0"",""2""
","""event"",""trial"",""time""
""fullscreenenter"",""1"",""2966""
","
","","","682","","","11","1071","815","x","elianto","#3366ff99"," "," ","1","+10","[1538]","1","2","","","1071","37","3","1","win","go","0","0"
"pit-trial","101","898653","0.0-42.0","battery-v0.2","","""event"",""trial"",""time""
""focus"",""0"",""2""
""fullscreenenter"",""1"",""2966""
","
","""event"",""trial"",""time""
""focus"",""0"",""2""
","""event"",""trial"",""time""
""fullscreenenter"",""1"",""2966""
","
","","","1298","","","11","1071","815","n","elianto","#f73b6a7A"," "," ","1","0","[2148]","1","2","","","1071","38","1","3","lose","go","0","0"
"pit-trial","102","903528","0.0-43.0","battery-v0.2","","""event"",""trial"",""time""
""focus"",""0"",""2""
""fullscreenenter"",""1"",""2966""
","
","""event"",""trial"",""time""
""focus"",""0"",""2""
","""event"",""trial"",""time""
""fullscreenenter"",""1"",""2966""
","
","","","-1","","","11","1071","815","f","elianto","#f73b6a7A","-1","-1","1","0","[]","0","2","","","1071","39","2","4","lose","no-go","0","0"
"pit-trial","103","906975","0.0-44.0","battery-v0.2","","""event"",""trial"",""time""
""focus"",""0"",""2""
""fullscreenenter"",""1"",""2966""
","
","""event"",""trial"",""time""
""focus"",""0"",""2""
","""event"",""trial"",""time""
""fullscreenenter"",""1"",""2966""
","
","","","569","","","11","1071","815","q","elianto","#3366ff99","-1"," ","0","0","[1434]","1","2","","","1071","40","0","2","win","no-go","0","0"
"pit-trial","104","910408","0.0-45.0","battery-v0.2","","""event"",""trial"",""time""
""focus"",""0"",""2""
""fullscreenenter"",""1"",""2966""
","
","""event"",""trial"",""time""
""focus"",""0"",""2""
","""event"",""trial"",""time""
""fullscreenenter"",""1"",""2966""
","
","","","575","","","11","1071","815","x","elianto","#3366ff99"," "," ","1","+10","[1428]","1","2","","","1071","41","3","1","win","go","0","0"
"pit-trial","105","915278","0.0-46.0","battery-v0.2","","""event"",""trial"",""time""
""focus"",""0"",""2""
""fullscreenenter"",""1"",""2966""
","
","""event"",""trial"",""time""
""focus"",""0"",""2""
","""event"",""trial"",""time""
""fullscreenenter"",""1"",""2966""
","
","","","-1","","","11","1071","815","f","elianto","#f73b6a7A","-1","-1","1","0","[]","0","2","","","1071","42","2","4","lose","no-go","0","0"
"pit-trial","106","919799","0.0-47.0","battery-v0.2","","""event"",""trial"",""time""
""focus"",""0"",""2""
""fullscreenenter"",""1"",""2966""
","
","""event"",""trial"",""time""
""focus"",""0"",""2""
","""event"",""trial"",""time""
""fullscreenenter"",""1"",""2966""
","
","","","1638","","","11","1071","815","n","elianto","#f73b6a7A"," "," ","1","-10","[2506]","1","2","","","1071","43","1","3","lose","go","1","0"
"pit-trial","107","924673","0.0-48.0","battery-v0.2","","""event"",""trial"",""time""
""focus"",""0"",""2""
""fullscreenenter"",""1"",""2966""
","
","""event"",""trial"",""time""
""focus"",""0"",""2""
","""event"",""trial"",""time""
""fullscreenenter"",""1"",""2966""
","
","","","-1","","","11","1071","815","q","elianto","#3366ff99","-1","-1","1","+10","[]","0","2","","","1071","44","0","2","win","no-go","0","0"
"pit-trial","108","928225","0.0-49.0","battery-v0.2","","""event"",""trial"",""time""
""focus"",""0"",""2""
""fullscreenenter"",""1"",""2966""
","
","""event"",""trial"",""time""
""focus"",""0"",""2""
","""event"",""trial"",""time""
""fullscreenenter"",""1"",""2966""
","
","","","696","","","11","1071","815","x","elianto","#3366ff99"," "," ","1","+10","[1549]","1","2","","","1071","45","3","1","win","go","0","0"
"pit-trial","109","933094","0.0-50.0","battery-v0.2","","""event"",""trial"",""time""
""focus"",""0"",""2""
""fullscreenenter"",""1"",""2966""
","
","""event"",""trial"",""time""
""focus"",""0"",""2""
","""event"",""trial"",""time""
""fullscreenenter"",""1"",""2966""
","
","","","-1","","","11","1071","815","q","elianto","#3366ff99","-1","-1","1","+10","[]","0","2","","","1071","46","0","2","win","no-go","0","0"
"pit-trial","110","937783","0.0-51.0","battery-v0.2","","""event"",""trial"",""time""
""focus"",""0"",""2""
""fullscreenenter"",""1"",""2966""
","
","""event"",""trial"",""time""
""focus"",""0"",""2""
","""event"",""trial"",""time""
""fullscreenenter"",""1"",""2966""
","
","","","1817","","","11","1071","815","n","elianto","#f73b6a7A"," "," ","1","-10","[2674]","1","2","","","1071","47","1","3","lose","go","1","0"
"pit-trial","111","942659","0.0-52.0","battery-v0.2","","""event"",""trial"",""time""
""focus"",""0"",""2""
""fullscreenenter"",""1"",""2966""
","
","""event"",""trial"",""time""
""focus"",""0"",""2""
","""event"",""trial"",""time""
""fullscreenenter"",""1"",""2966""
","
","","","-1","","","11","1071","815","f","elianto","#f73b6a7A","-1","-1","1","-10","[]","0","2","","","1071","48","2","4","lose","no-go","1","0"
"pit-trial","112","947530","0.0-53.0","battery-v0.2","","""event"",""trial"",""time""
""focus"",""0"",""2""
""fullscreenenter"",""1"",""2966""
","
","""event"",""trial"",""time""
""focus"",""0"",""2""
","""event"",""trial"",""time""
""fullscreenenter"",""1"",""2966""
","
","","","-1","","","11","1071","815","q","elianto","#3366ff99","-1","-1","1","+10","[]","0","2","","","1071","49","0","2","win","no-go","0","0"
"pit-trial","113","952397","0.0-54.0","battery-v0.2","","""event"",""trial"",""time""
""focus"",""0"",""2""
""fullscreenenter"",""1"",""2966""
","
","""event"",""trial"",""time""
""focus"",""0"",""2""
","""event"",""trial"",""time""
""fullscreenenter"",""1"",""2966""
","
","","","-1","","","11","1071","815","f","elianto","#f73b6a7A","-1","-1","1","-10","[]","0","2","","","1071","50","2","4","lose","no-go","1","0"
"pit-trial","114","956376","0.0-55.0","battery-v0.2","","""event"",""trial"",""time""
""focus"",""0"",""2""
""fullscreenenter"",""1"",""2966""
","
","""event"",""trial"",""time""
""focus"",""0"",""2""
","""event"",""trial"",""time""
""fullscreenenter"",""1"",""2966""
","
","","","1104","","","11","1071","815","x","elianto","#3366ff99"," "," ","1","+10","[1968]","1","2","","","1071","51","3","1","win","go","0","0"
"pit-trial","115","960674","0.0-56.0","battery-v0.2","","""event"",""trial"",""time""
""focus"",""0"",""2""
""fullscreenenter"",""1"",""2966""
","
","""event"",""trial"",""time""
""focus"",""0"",""2""
","""event"",""trial"",""time""
""fullscreenenter"",""1"",""2966""
","
","","","1431","","","11","1071","815","n","elianto","#f73b6a7A"," "," ","1","-10","[2292]","1","2","","","1071","52","1","3","lose","go","1","0"
"pit-trial","116","965545","0.0-57.0","battery-v0.2","","""event"",""trial"",""time""
""focus"",""0"",""2""
""fullscreenenter"",""1"",""2966""
","
","""event"",""trial"",""time""
""focus"",""0"",""2""
","""event"",""trial"",""time""
""fullscreenenter"",""1"",""2966""
","
","","","-1","","","11","1071","815","f","elianto","#f73b6a7A","-1","-1","1","0","[]","0","2","","","1071","53","2","4","lose","no-go","0","0"
"pit-trial","117","970310","0.0-58.0","battery-v0.2","","""event"",""trial"",""time""
""focus"",""0"",""2""
""fullscreenenter"",""1"",""2966""
","
","""event"",""trial"",""time""
""focus"",""0"",""2""
","""event"",""trial"",""time""
""fullscreenenter"",""1"",""2966""
","
","","","1894","","","11","1071","815","t","elianto","#f73b6a7A"," "," ","1","0","[2754]","1","2","","","1071","54","4","3","lose","go","0","0"
"pit-trial","118","975150","0.0-59.0","battery-v0.2","","""event"",""trial"",""time""
""focus"",""0"",""2""
""fullscreenenter"",""1"",""2966""
","
","""event"",""trial"",""time""
""focus"",""0"",""2""
","""event"",""trial"",""time""
""fullscreenenter"",""1"",""2966""
","
","","","1982","","","11","1071","815","n","elianto","#f73b6a7A"," "," ","1","0","[2834]","1","2","","","1071","55","1","3","lose","go","0","0"
"pit-trial","119","978995","0.0-60.0","battery-v0.2","","""event"",""trial"",""time""
""focus"",""0"",""2""
""fullscreenenter"",""1"",""2966""
","
","""event"",""trial"",""time""
""focus"",""0"",""2""
","""event"",""trial"",""time""
""fullscreenenter"",""1"",""2966""
","
","","","985","","","11","1071","815","b","elianto","#f73b6a7A","-1"," ","0","-10","[1840]","1","2","","","1071","56","5","4","lose","no-go","0","0"
"pit-trial","120","983853","0.0-61.0","battery-v0.2","","""event"",""trial"",""time""
""focus"",""0"",""2""
""fullscreenenter"",""1"",""2966""
","
","""event"",""trial"",""time""
""focus"",""0"",""2""
","""event"",""trial"",""time""
""fullscreenenter"",""1"",""2966""
","
","","","-1","","","11","1071","815","b","elianto","#f73b6a7A","-1","-1","1","0","[]","0","2","","","1071","57","5","4","lose","no-go","0","0"
"pit-trial","121","987661","0.0-62.0","battery-v0.2","","""event"",""trial"",""time""
""focus"",""0"",""2""
""fullscreenenter"",""1"",""2966""
","
","""event"",""trial"",""time""
""focus"",""0"",""2""
","""event"",""trial"",""time""
""fullscreenenter"",""1"",""2966""
","
","","","947","","","11","1071","815","n","elianto","#f73b6a7A"," "," ","1","0","[1802]","1","2","","","1071","58","1","3","lose","go","0","0"
"pit-trial","122","992526","0.0-63.0","battery-v0.2","","""event"",""trial"",""time""
""focus"",""0"",""2""
""fullscreenenter"",""1"",""2966""
","
","""event"",""trial"",""time""
""focus"",""0"",""2""
","""event"",""trial"",""time""
""fullscreenenter"",""1"",""2966""
","
","","","-1","","","11","1071","815","f","elianto","#f73b6a7A","-1","-1","1","0","[]","0","2","","","1071","59","2","4","lose","no-go","0","0"
"pit-trial","123","996535","0.0-64.0","battery-v0.2","","""event"",""trial"",""time""
""focus"",""0"",""2""
""fullscreenenter"",""1"",""2966""
","
","""event"",""trial"",""time""
""focus"",""0"",""2""
","""event"",""trial"",""time""
""fullscreenenter"",""1"",""2966""
","
","","","1140","","","11","1071","815","t","elianto","#f73b6a7A"," "," ","1","0","[1992]","1","2","","","1071","60","4","3","lose","go","0","0"
"pit-trial","124","1000504","0.0-65.0","battery-v0.2","","""event"",""trial"",""time""
""focus"",""0"",""2""
""fullscreenenter"",""1"",""2966""
","
","""event"",""trial"",""time""
""focus"",""0"",""2""
","""event"",""trial"",""time""
""fullscreenenter"",""1"",""2966""
","
","","","1094","","","11","1071","815","t","elianto","#f73b6a7A"," "," ","1","0","[1955]","1","2","","","1071","61","4","3","lose","go","0","0"
"pit-trial","125","1005383","0.0-66.0","battery-v0.2","","""event"",""trial"",""time""
""focus"",""0"",""2""
""fullscreenenter"",""1"",""2966""
","
","""event"",""trial"",""time""
""focus"",""0"",""2""
","""event"",""trial"",""time""
""fullscreenenter"",""1"",""2966""
","
","","","-1","","","11","1071","815","b","elianto","#f73b6a7A","-1","-1","1","-10","[]","0","2","","","1071","62","5","4","lose","no-go","1","0"
"pit-trial","126","1010259","0.0-67.0","battery-v0.2","","""event"",""trial"",""time""
""focus"",""0"",""2""
""fullscreenenter"",""1"",""2966""
","
","""event"",""trial"",""time""
""focus"",""0"",""2""
","""event"",""trial"",""time""
""fullscreenenter"",""1"",""2966""
","
","","","-1","","","11","1071","815","f","elianto","#f73b6a7A","-1","-1","1","-10","[]","0","2","","","1071","63","2","4","lose","no-go","1","0"
"pit-trial","127","1014143","0.0-68.0","battery-v0.2","","""event"",""trial"",""time""
""focus"",""0"",""2""
""fullscreenenter"",""1"",""2966""
","
","""event"",""trial"",""time""
""focus"",""0"",""2""
","""event"",""trial"",""time""
""fullscreenenter"",""1"",""2966""
","
","","","1017","","","11","1071","815","c","elianto","#3366ff99","-1"," ","0","0","[1872]","1","2","","","1071","64","6","2","win","no-go","0","0"
"pit-trial","128","1019016","0.0-69.0","battery-v0.2","","""event"",""trial"",""time""
""focus"",""0"",""2""
""fullscreenenter"",""1"",""2966""
","
","""event"",""trial"",""time""
""focus"",""0"",""2""
","""event"",""trial"",""time""
""fullscreenenter"",""1"",""2966""
","
","","","-1","","","11","1071","815","f","elianto","#f73b6a7A","-1","-1","1","0","[]","0","2","","","1071","65","2","4","lose","no-go","0","0"
"pit-trial","129","1023075","0.0-70.0","battery-v0.2","","""event"",""trial"",""time""
""focus"",""0"",""2""
""fullscreenenter"",""1"",""2966""
","
","""event"",""trial"",""time""
""focus"",""0"",""2""
","""event"",""trial"",""time""
""fullscreenenter"",""1"",""2966""
","
","","","1192","","","11","1071","815","t","elianto","#f73b6a7A"," "," ","1","0","[2047]","1","2","","","1071","66","4","3","lose","go","0","0"
"pit-trial","130","1026783","0.0-71.0","battery-v0.2","","""event"",""trial"",""time""
""focus"",""0"",""2""
""fullscreenenter"",""1"",""2966""
","
","""event"",""trial"",""time""
""focus"",""0"",""2""
","""event"",""trial"",""time""
""fullscreenenter"",""1"",""2966""
","
","","","849","","","11","1071","815","c","elianto","#3366ff99","-1"," ","0","0","[1703]","1","2","","","1071","67","6","2","win","no-go","0","0"
"pit-trial","131","1031083","0.0-72.0","battery-v0.2","","""event"",""trial"",""time""
""focus"",""0"",""2""
""fullscreenenter"",""1"",""2966""
","
","""event"",""trial"",""time""
""focus"",""0"",""2""
","""event"",""trial"",""time""
""fullscreenenter"",""1"",""2966""
","
","","","1438","","","11","1071","815","b","elianto","#f73b6a7A","-1"," ","0","-10","[2292]","1","2","","","1071","68","5","4","lose","no-go","0","0"
"pit-trial","132","1035016","0.0-73.0","battery-v0.2","","""event"",""trial"",""time""
""focus"",""0"",""2""
""fullscreenenter"",""1"",""2966""
","
","""event"",""trial"",""time""
""focus"",""0"",""2""
","""event"",""trial"",""time""
""fullscreenenter"",""1"",""2966""
","
","","","1071","","","11","1071","815","z","elianto","#3366ff99"," "," ","1","+10","[1927]","1","2","","","1071","69","7","1","win","go","0","0"
"pit-trial","133","1039055","0.0-74.0","battery-v0.2","","""event"",""trial"",""time""
""focus"",""0"",""2""
""fullscreenenter"",""1"",""2966""
","
","""event"",""trial"",""time""
""focus"",""0"",""2""
","""event"",""trial"",""time""
""fullscreenenter"",""1"",""2966""
","
","","","1160","","","11","1071","815","t","elianto","#f73b6a7A"," "," ","1","0","[2023]","1","2","","","1071","70","4","3","lose","go","0","0"
"pit-trial","134","1043927","0.0-75.0","battery-v0.2","","""event"",""trial"",""time""
""focus"",""0"",""2""
""fullscreenenter"",""1"",""2966""
","
","""event"",""trial"",""time""
""focus"",""0"",""2""
","""event"",""trial"",""time""
""fullscreenenter"",""1"",""2966""
","
","","","-1","","","11","1071","815","b","elianto","#f73b6a7A","-1","-1","1","-10","[]","0","2","","","1071","71","5","4","lose","no-go","1","0"
"pit-trial","135","1048425","0.0-76.0","battery-v0.2","","""event"",""trial"",""time""
""focus"",""0"",""2""
""fullscreenenter"",""1"",""2966""
","
","""event"",""trial"",""time""
""focus"",""0"",""2""
","""event"",""trial"",""time""
""fullscreenenter"",""1"",""2966""
","
","","","1638","","","11","1071","815","c","elianto","#3366ff99","-1"," ","0","0","[2493]","1","2","","","1071","72","6","2","win","no-go","0","0"
"pit-trial","136","1052465","0.0-77.0","battery-v0.2","","""event"",""trial"",""time""
""focus"",""0"",""2""
""fullscreenenter"",""1"",""2966""
","
","""event"",""trial"",""time""
""focus"",""0"",""2""
","""event"",""trial"",""time""
""fullscreenenter"",""1"",""2966""
","
","","","1174","","","11","1071","815","t","elianto","#f73b6a7A"," "," ","1","0","[2028]","1","2","","","1071","73","4","3","lose","go","0","0"
"pit-trial","137","1056368","0.0-78.0","battery-v0.2","","""event"",""trial"",""time""
""focus"",""0"",""2""
""fullscreenenter"",""1"",""2966""
","
","""event"",""trial"",""time""
""focus"",""0"",""2""
","""event"",""trial"",""time""
""fullscreenenter"",""1"",""2966""
","
","","","1034","","","11","1071","815","z","elianto","#3366ff99"," "," ","1","+10","[1891]","1","2","","","1071","74","7","1","win","go","0","0"
"pit-trial","138","1060282","0.0-79.0","battery-v0.2","","""event"",""trial"",""time""
""focus"",""0"",""2""
""fullscreenenter"",""1"",""2966""
","
","""event"",""trial"",""time""
""focus"",""0"",""2""
","""event"",""trial"",""time""
""fullscreenenter"",""1"",""2966""
","
","","","1044","","","11","1071","815","c","elianto","#3366ff99","-1"," ","0","0","[1896]","1","2","","","1071","75","6","2","win","no-go","0","0"
"pit-trial","139","1064856","0.0-80.0","battery-v0.2","","""event"",""trial"",""time""
""focus"",""0"",""2""
""fullscreenenter"",""1"",""2966""
","
","""event"",""trial"",""time""
""focus"",""0"",""2""
","""event"",""trial"",""time""
""fullscreenenter"",""1"",""2966""
","
","","","1700","","","11","1071","815","b","elianto","#f73b6a7A","-1"," ","0","0","[2556]","1","2","","","1071","76","5","4","lose","no-go","1","0"
"pit-trial","140","1069207","0.0-81.0","battery-v0.2","","""event"",""trial"",""time""
""focus"",""0"",""2""
""fullscreenenter"",""1"",""2966""
","
","""event"",""trial"",""time""
""focus"",""0"",""2""
","""event"",""trial"",""time""
""fullscreenenter"",""1"",""2966""
","
","","","1485","","","11","1071","815","t","elianto","#f73b6a7A"," "," ","1","0","[2341]","1","2","","","1071","77","4","3","lose","go","0","0"
"pit-trial","141","1074068","0.0-82.0","battery-v0.2","","""event"",""trial"",""time""
""focus"",""0"",""2""
""fullscreenenter"",""1"",""2966""
","
","""event"",""trial"",""time""
""focus"",""0"",""2""
","""event"",""trial"",""time""
""fullscreenenter"",""1"",""2966""
","
","","","-1","","","11","1071","815","c","elianto","#3366ff99","-1","-1","1","0","[]","0","2","","","1071","78","6","2","win","no-go","1","0"
"pit-trial","142","1077970","0.0-83.0","battery-v0.2","","""event"",""trial"",""time""
""focus"",""0"",""2""
""fullscreenenter"",""1"",""2966""
","
","""event"",""trial"",""time""
""focus"",""0"",""2""
","""event"",""trial"",""time""
""fullscreenenter"",""1"",""2966""
","
","","","1032","","","11","1071","815","z","elianto","#3366ff99"," "," ","1","+10","[1895]","1","2","","","1071","79","7","1","win","go","0","0"
"pit-trial","143","1081918","0.0-84.0","battery-v0.2","","""event"",""trial"",""time""
""focus"",""0"",""2""
""fullscreenenter"",""1"",""2966""
","
","""event"",""trial"",""time""
""focus"",""0"",""2""
","""event"",""trial"",""time""
""fullscreenenter"",""1"",""2966""
","
","","","1080","","","11","1071","815","b","elianto","#f73b6a7A","-1"," ","0","-10","[1934]","1","2","","","1071","80","5","4","lose","no-go","0","0"
"pit-trial","144","1085846","0.0-85.0","battery-v0.2","","""event"",""trial"",""time""
""focus"",""0"",""2""
""fullscreenenter"",""1"",""2966""
","
","""event"",""trial"",""time""
""focus"",""0"",""2""
","""event"",""trial"",""time""
""fullscreenenter"",""1"",""2966""
","
","","","1069","","","11","1071","815","b","elianto","#f73b6a7A","-1"," ","0","-10","[1924]","1","2","","","1071","81","5","4","lose","no-go","0","0"
"pit-trial","145","1090713","0.0-86.0","battery-v0.2","","""event"",""trial"",""time""
""focus"",""0"",""2""
""fullscreenenter"",""1"",""2966""
","
","""event"",""trial"",""time""
""focus"",""0"",""2""
","""event"",""trial"",""time""
""fullscreenenter"",""1"",""2966""
","
","","","-1","","","11","1071","815","c","elianto","#3366ff99","-1","-1","1","+10","[]","0","2","","","1071","82","6","2","win","no-go","0","0"
"pit-trial","146","1094618","0.0-87.0","battery-v0.2","","""event"",""trial"",""time""
""focus"",""0"",""2""
""fullscreenenter"",""1"",""2966""
","
","""event"",""trial"",""time""
""focus"",""0"",""2""
","""event"",""trial"",""time""
""fullscreenenter"",""1"",""2966""
","
","","","1035","","","11","1071","815","z","elianto","#3366ff99"," "," ","1","+10","[1886]","1","2","","","1071","83","7","1","win","go","0","0"
"pit-trial","147","1098788","0.0-88.0","battery-v0.2","","""event"",""trial"",""time""
""focus"",""0"",""2""
""fullscreenenter"",""1"",""2966""
","
","""event"",""trial"",""time""
""focus"",""0"",""2""
","""event"",""trial"",""time""
""fullscreenenter"",""1"",""2966""
","
","","","1311","","","11","1071","815","t","elianto","#f73b6a7A"," "," ","1","0","[2163]","1","2","","","1071","84","4","3","lose","go","0","0"
"pit-trial","148","1102572","0.0-89.0","battery-v0.2","","""event"",""trial"",""time""
""focus"",""0"",""2""
""fullscreenenter"",""1"",""2966""
","
","""event"",""trial"",""time""
""focus"",""0"",""2""
","""event"",""trial"",""time""
""fullscreenenter"",""1"",""2966""
","
","","","915","","","11","1071","815","z","elianto","#3366ff99"," "," ","1","+10","[1769]","1","2","","","1071","85","7","1","win","go","0","0"
"pit-trial","149","1107443","0.0-90.0","battery-v0.2","","""event"",""trial"",""time""
""focus"",""0"",""2""
""fullscreenenter"",""1"",""2966""
","
","""event"",""trial"",""time""
""focus"",""0"",""2""
","""event"",""trial"",""time""
""fullscreenenter"",""1"",""2966""
","
","","","-1","","","11","1071","815","b","elianto","#f73b6a7A","-1","-1","1","-10","[]","0","2","","","1071","86","5","4","lose","no-go","1","0"
"pit-trial","150","1111630","0.0-91.0","battery-v0.2","","""event"",""trial"",""time""
""focus"",""0"",""2""
""fullscreenenter"",""1"",""2966""
","
","""event"",""trial"",""time""
""focus"",""0"",""2""
","""event"",""trial"",""time""
""fullscreenenter"",""1"",""2966""
","
","","","1322","","","11","1071","815","t","elianto","#f73b6a7A"," "," ","1","0","[2175]","1","2","","","1071","87","4","3","lose","go","0","0"
"pit-trial","151","1116513","0.0-92.0","battery-v0.2","","""event"",""trial"",""time""
""focus"",""0"",""2""
""fullscreenenter"",""1"",""2966""
","
","""event"",""trial"",""time""
""focus"",""0"",""2""
","""event"",""trial"",""time""
""fullscreenenter"",""1"",""2966""
","
","","","-1","","","11","1071","815","c","elianto","#3366ff99","-1","-1","1","+10","[]","0","2","","","1071","88","6","2","win","no-go","0","0"
"pit-trial","152","1121386","0.0-93.0","battery-v0.2","","""event"",""trial"",""time""
""focus"",""0"",""2""
""fullscreenenter"",""1"",""2966""
","
","""event"",""trial"",""time""
""focus"",""0"",""2""
","""event"",""trial"",""time""
""fullscreenenter"",""1"",""2966""
","
","","","-1","","","11","1071","815","c","elianto","#3366ff99","-1","-1","1","+10","[]","0","2","","","1071","89","6","2","win","no-go","0","0"
"pit-trial","153","1125175","0.0-94.0","battery-v0.2","","""event"",""trial"",""time""
""focus"",""0"",""2""
""fullscreenenter"",""1"",""2966""
","
","""event"",""trial"",""time""
""focus"",""0"",""2""
","""event"",""trial"",""time""
""fullscreenenter"",""1"",""2966""
","
","","","913","","","11","1071","815","z","elianto","#3366ff99"," "," ","1","+10","[1776]","1","2","","","1071","90","7","1","win","go","0","0"
"pit-trial","154","1129128","0.0-95.0","battery-v0.2","","""event"",""trial"",""time""
""focus"",""0"",""2""
""fullscreenenter"",""1"",""2966""
","
","""event"",""trial"",""time""
""focus"",""0"",""2""
","""event"",""trial"",""time""
""fullscreenenter"",""1"",""2966""
","
","","","1082","","","11","1071","815","t","elianto","#f73b6a7A"," "," ","1","0","[1943]","1","2","","","1071","91","4","3","lose","go","0","0"
"pit-trial","155","1134002","0.0-96.0","battery-v0.2","","""event"",""trial"",""time""
""focus"",""0"",""2""
""fullscreenenter"",""1"",""2966""
","
","""event"",""trial"",""time""
""focus"",""0"",""2""
","""event"",""trial"",""time""
""fullscreenenter"",""1"",""2966""
","
","","","-1","","","11","1071","815","b","elianto","#f73b6a7A","-1","-1","1","0","[]","0","2","","","1071","92","5","4","lose","no-go","0","0"
"pit-trial","156","1138877","0.0-97.0","battery-v0.2","","""event"",""trial"",""time""
""focus"",""0"",""2""
""fullscreenenter"",""1"",""2966""
","
","""event"",""trial"",""time""
""focus"",""0"",""2""
","""event"",""trial"",""time""
""fullscreenenter"",""1"",""2966""
","
","","","-1","","","11","1071","815","c","elianto","#3366ff99","-1","-1","1","+10","[]","0","2","","","1071","93","6","2","win","no-go","0","0"
"pit-trial","157","1143297","0.0-98.0","battery-v0.2","","""event"",""trial"",""time""
""focus"",""0"",""2""
""fullscreenenter"",""1"",""2966""
","
","""event"",""trial"",""time""
""focus"",""0"",""2""
","""event"",""trial"",""time""
""fullscreenenter"",""1"",""2966""
","
","","","1535","","","11","1071","815","h","elianto","#3366ff99"," "," ","1","+10","[2404]","1","2","","","1071","94","8","1","win","go","0","0"
"pit-trial","158","1147202","0.0-99.0","battery-v0.2","","""event"",""trial"",""time""
""focus"",""0"",""2""
""fullscreenenter"",""1"",""2966""
","
","""event"",""trial"",""time""
""focus"",""0"",""2""
","""event"",""trial"",""time""
""fullscreenenter"",""1"",""2966""
","
","","","1034","","","11","1071","815","t","elianto","#f73b6a7A"," "," ","1","0","[1892]","1","2","","","1071","95","4","3","lose","go","0","0"
"pit-trial","159","1150764","0.0-100.0","battery-v0.2","","""event"",""trial"",""time""
""focus"",""0"",""2""
""fullscreenenter"",""1"",""2966""
","
","""event"",""trial"",""time""
""focus"",""0"",""2""
","""event"",""trial"",""time""
""fullscreenenter"",""1"",""2966""
","
","","","690","","","11","1071","815","z","elianto","#3366ff99"," "," ","1","0","[1553]","1","2","","","1071","96","7","1","win","go","1","0"
"pit-trial","160","1154519","0.0-101.0","battery-v0.2","","""event"",""trial"",""time""
""focus"",""0"",""2""
""fullscreenenter"",""1"",""2966""
","
","""event"",""trial"",""time""
""focus"",""0"",""2""
","""event"",""trial"",""time""
""fullscreenenter"",""1"",""2966""
","
","","","874","","","11","1071","815","t","elianto","#f73b6a7A"," "," ","1","-10","[1737]","1","2","","","1071","97","4","3","lose","go","1","0"
"pit-trial","161","1158130","0.0-102.0","battery-v0.2","","""event"",""trial"",""time""
""focus"",""0"",""2""
""fullscreenenter"",""1"",""2966""
","
","""event"",""trial"",""time""
""focus"",""0"",""2""
","""event"",""trial"",""time""
""fullscreenenter"",""1"",""2966""
","
","","","754","","","11","1071","815","z","elianto","#3366ff99"," "," ","1","+10","[1607]","1","2","","","1071","98","7","1","win","go","0","0"
"pit-trial","162","1161991","0.0-103.0","battery-v0.2","","""event"",""trial"",""time""
""focus"",""0"",""2""
""fullscreenenter"",""1"",""2966""
","
","""event"",""trial"",""time""
""focus"",""0"",""2""
","""event"",""trial"",""time""
""fullscreenenter"",""1"",""2966""
","
","","","988","","","11","1071","815","h","elianto","#3366ff99"," "," ","1","+10","[1845]","1","2","","","1071","99","8","1","win","go","0","0"
"pit-trial","163","1166866","0.0-104.0","battery-v0.2","","""event"",""trial"",""time""
""focus"",""0"",""2""
""fullscreenenter"",""1"",""2966""
","
","""event"",""trial"",""time""
""focus"",""0"",""2""
","""event"",""trial"",""time""
""fullscreenenter"",""1"",""2966""
","
","","","-1","","","11","1071","815","c","elianto","#3366ff99","-1","-1","1","0","[]","0","2","","","1071","100","6","2","win","no-go","1","0"
"pit-trial","164","1170617","0.0-105.0","battery-v0.2","","""event"",""trial"",""time""
""focus"",""0"",""2""
""fullscreenenter"",""1"",""2966""
","
","""event"",""trial"",""time""
""focus"",""0"",""2""
","""event"",""trial"",""time""
""fullscreenenter"",""1"",""2966""
","
","","","887","","","11","1071","815","h","elianto","#3366ff99"," "," ","1","+10","[1748]","1","2","","","1071","101","8","1","win","go","0","0"
"pit-trial","165","1175492","0.0-106.0","battery-v0.2","","""event"",""trial"",""time""
""focus"",""0"",""2""
""fullscreenenter"",""1"",""2966""
","
","""event"",""trial"",""time""
""focus"",""0"",""2""
","""event"",""trial"",""time""
""fullscreenenter"",""1"",""2966""
","
","","","-1","","","11","1071","815","c","elianto","#3366ff99","-1","-1","1","+10","[]","0","2","","","1071","102","6","2","win","no-go","0","0"
"pit-trial","166","1179101","0.0-107.0","battery-v0.2","","""event"",""trial"",""time""
""focus"",""0"",""2""
""fullscreenenter"",""1"",""2966""
","
","""event"",""trial"",""time""
""focus"",""0"",""2""
","""event"",""trial"",""time""
""fullscreenenter"",""1"",""2966""
","
","","","743","","","11","1071","815","z","elianto","#3366ff99"," "," ","1","+10","[1600]","1","2","","","1071","103","7","1","win","go","0","0"
"pit-trial","167","1182981","0.0-108.0","battery-v0.2","","""event"",""trial"",""time""
""focus"",""0"",""2""
""fullscreenenter"",""1"",""2966""
","
","""event"",""trial"",""time""
""focus"",""0"",""2""
","""event"",""trial"",""time""
""fullscreenenter"",""1"",""2966""
","
","","","1015","","","11","1071","815","y","elianto","#3366ff99","-1"," ","0","0","[1870]","1","2","","","1071","104","9","2","win","no-go","0","0"
"pit-trial","168","1187843","0.0-109.0","battery-v0.2","","""event"",""trial"",""time""
""focus"",""0"",""2""
""fullscreenenter"",""1"",""2966""
","
","""event"",""trial"",""time""
""focus"",""0"",""2""
","""event"",""trial"",""time""
""fullscreenenter"",""1"",""2966""
","
","","","-1","","","11","1071","815","y","elianto","#3366ff99","-1","-1","1","+10","[]","0","2","","","1071","105","9","2","win","no-go","0","0"
"pit-trial","169","1191481","0.0-110.0","battery-v0.2","","""event"",""trial"",""time""
""focus"",""0"",""2""
""fullscreenenter"",""1"",""2966""
","
","""event"",""trial"",""time""
""focus"",""0"",""2""
","""event"",""trial"",""time""
""fullscreenenter"",""1"",""2966""
","
","","","768","","","11","1071","815","h","elianto","#3366ff99"," "," ","1","+10","[1625]","1","2","","","1071","106","8","1","win","go","0","0"
"pit-trial","170","1196355","0.0-111.0","battery-v0.2","","""event"",""trial"",""time""
""focus"",""0"",""2""
""fullscreenenter"",""1"",""2966""
","
","""event"",""trial"",""time""
""focus"",""0"",""2""
","""event"",""trial"",""time""
""fullscreenenter"",""1"",""2966""
","
","","","-1","","","11","1071","815","c","elianto","#3366ff99","-1","-1","1","0","[]","0","2","","","1071","107","6","2","win","no-go","1","0"
"pit-trial","171","1200318","0.0-112.0","battery-v0.2","","""event"",""trial"",""time""
""focus"",""0"",""2""
""fullscreenenter"",""1"",""2966""
","
","""event"",""trial"",""time""
""focus"",""0"",""2""
","""event"",""trial"",""time""
""fullscreenenter"",""1"",""2966""
","
","","","1104","","","11","1071","815","z","elianto","#3366ff99"," "," ","1","+10","[1954]","1","2","","","1071","108","7","1","win","go","0","0"
"pit-trial","172","1204460","0.0-113.0","battery-v0.2","","""event"",""trial"",""time""
""focus"",""0"",""2""
""fullscreenenter"",""1"",""2966""
","
","""event"",""trial"",""time""
""focus"",""0"",""2""
","""event"",""trial"",""time""
""fullscreenenter"",""1"",""2966""
","
","","","1277","","","11","1071","815","h","elianto","#3366ff99"," "," ","1","+10","[2131]","1","2","","","1071","109","8","1","win","go","0","0"
"pit-trial","173","1209327","0.0-114.0","battery-v0.2","","""event"",""trial"",""time""
""focus"",""0"",""2""
""fullscreenenter"",""1"",""2966""
","
","""event"",""trial"",""time""
""focus"",""0"",""2""
","""event"",""trial"",""time""
""fullscreenenter"",""1"",""2966""
","
","","","-1","","","11","1071","815","y","elianto","#3366ff99","-1","-1","1","+10","[]","0","2","","","1071","110","9","2","win","no-go","0","0"
"pit-trial","174","1213321","0.0-115.0","battery-v0.2","","""event"",""trial"",""time""
""focus"",""0"",""2""
""fullscreenenter"",""1"",""2966""
","
","""event"",""trial"",""time""
""focus"",""0"",""2""
","""event"",""trial"",""time""
""fullscreenenter"",""1"",""2966""
","
","","","1118","","","11","1071","815","r","elianto","#f73b6a7A"," "," ","1","0","[1983]","1","2","","","1071","111","10","3","lose","go","0","0"
"pit-trial","175","1217168","0.0-116.0","battery-v0.2","","""event"",""trial"",""time""
""focus"",""0"",""2""
""fullscreenenter"",""1"",""2966""
","
","""event"",""trial"",""time""
""focus"",""0"",""2""
","""event"",""trial"",""time""
""fullscreenenter"",""1"",""2966""
","
","","","986","","","11","1071","815","m","elianto","#f73b6a7A","-1"," ","0","0","[1839]","1","2","","","1071","112","11","4","lose","no-go","1","0"
"pit-trial","176","1221212","0.0-117.0","battery-v0.2","","""event"",""trial"",""time""
""focus"",""0"",""2""
""fullscreenenter"",""1"",""2966""
","
","""event"",""trial"",""time""
""focus"",""0"",""2""
","""event"",""trial"",""time""
""fullscreenenter"",""1"",""2966""
","
","","","1175","","","11","1071","815","m","elianto","#f73b6a7A","-1"," ","0","-10","[2026]","1","2","","","1071","113","11","4","lose","no-go","0","0"
"pit-trial","177","1224930","0.0-118.0","battery-v0.2","","""event"",""trial"",""time""
""focus"",""0"",""2""
""fullscreenenter"",""1"",""2966""
","
","""event"",""trial"",""time""
""focus"",""0"",""2""
","""event"",""trial"",""time""
""fullscreenenter"",""1"",""2966""
","
","","","859","","","11","1071","815","r","elianto","#f73b6a7A"," "," ","1","-10","[1712]","1","2","","","1071","114","10","3","lose","go","1","0"
"pit-trial","178","1229793","0.0-119.0","battery-v0.2","","""event"",""trial"",""time""
""focus"",""0"",""2""
""fullscreenenter"",""1"",""2966""
","
","""event"",""trial"",""time""
""focus"",""0"",""2""
","""event"",""trial"",""time""
""fullscreenenter"",""1"",""2966""
","
","","","-1","","","11","1071","815","y","elianto","#3366ff99","-1","-1","1","0","[]","0","2","","","1071","115","9","2","win","no-go","1","0"
"pit-trial","179","1234258","0.0-120.0","battery-v0.2","","""event"",""trial"",""time""
""focus"",""0"",""2""
""fullscreenenter"",""1"",""2966""
","
","""event"",""trial"",""time""
""focus"",""0"",""2""
","""event"",""trial"",""time""
""fullscreenenter"",""1"",""2966""
","
","","","1600","","","11","1071","815","h","elianto","#3366ff99"," "," ","1","+10","[2456]","1","2","","","1071","116","8","1","win","go","0","0"
"pit-trial","180","1239128","0.0-121.0","battery-v0.2","","""event"",""trial"",""time""
""focus"",""0"",""2""
""fullscreenenter"",""1"",""2966""
","
","""event"",""trial"",""time""
""focus"",""0"",""2""
","""event"",""trial"",""time""
""fullscreenenter"",""1"",""2966""
","
","","","-1","","","11","1071","815","y","elianto","#3366ff99","-1","-1","1","+10","[]","0","2","","","1071","117","9","2","win","no-go","0","0"
"pit-trial","181","1243208","0.0-122.0","battery-v0.2","","""event"",""trial"",""time""
""focus"",""0"",""2""
""fullscreenenter"",""1"",""2966""
","
","""event"",""trial"",""time""
""focus"",""0"",""2""
","""event"",""trial"",""time""
""fullscreenenter"",""1"",""2966""
","
","","","1207","","","11","1071","815","r","elianto","#f73b6a7A"," "," ","1","0","[2070]","1","2","","","1071","118","10","3","lose","go","0","0"
"pit-trial","182","1246915","0.0-123.0","battery-v0.2","","""event"",""trial"",""time""
""focus"",""0"",""2""
""fullscreenenter"",""1"",""2966""
","
","""event"",""trial"",""time""
""focus"",""0"",""2""
","""event"",""trial"",""time""
""fullscreenenter"",""1"",""2966""
","
","","","843","","","11","1071","815","h","elianto","#3366ff99"," "," ","1","+10","[1695]","1","2","","","1071","119","8","1","win","go","0","0"
"pit-trial","183","1251538","0.0-124.0","battery-v0.2","","""event"",""trial"",""time""
""focus"",""0"",""2""
""fullscreenenter"",""1"",""2966""
","
","""event"",""trial"",""time""
""focus"",""0"",""2""
","""event"",""trial"",""time""
""fullscreenenter"",""1"",""2966""
","
","","","1761","","","11","1071","815","m","elianto","#f73b6a7A","-1"," ","0","-10","[2620]","1","2","","","1071","120","11","4","lose","no-go","0","0"
"pit-trial","184","1256413","0.0-125.0","battery-v0.2","","""event"",""trial"",""time""
""focus"",""0"",""2""
""fullscreenenter"",""1"",""2966""
","
","""event"",""trial"",""time""
""focus"",""0"",""2""
","""event"",""trial"",""time""
""fullscreenenter"",""1"",""2966""
","
","","","-1","","","11","1071","815","y","elianto","#3366ff99","-1","-1","1","+10","[]","0","2","","","1071","121","9","2","win","no-go","0","0"
"pit-trial","185","1261272","0.0-126.0","battery-v0.2","","""event"",""trial"",""time""
""focus"",""0"",""2""
""fullscreenenter"",""1"",""2966""
","
","""event"",""trial"",""time""
""focus"",""0"",""2""
","""event"",""trial"",""time""
""fullscreenenter"",""1"",""2966""
","
","","","-1","","","11","1071","815","m","elianto","#f73b6a7A","-1","-1","1","0","[]","0","2","","","1071","122","11","4","lose","no-go","0","0"
"pit-trial","186","1265060","0.0-127.0","battery-v0.2","","""event"",""trial"",""time""
""focus"",""0"",""2""
""fullscreenenter"",""1"",""2966""
","
","""event"",""trial"",""time""
""focus"",""0"",""2""
","""event"",""trial"",""time""
""fullscreenenter"",""1"",""2966""
","
","","","915","","","11","1071","815","h","elianto","#3366ff99"," "," ","1","+10","[1780]","1","2","","","1071","123","8","1","win","go","0","0"
"pit-trial","187","1269348","0.0-128.0","battery-v0.2","","""event"",""trial"",""time""
""focus"",""0"",""2""
""fullscreenenter"",""1"",""2966""
","
","""event"",""trial"",""time""
""focus"",""0"",""2""
","""event"",""trial"",""time""
""fullscreenenter"",""1"",""2966""
","
","","","1421","","","11","1071","815","r","elianto","#f73b6a7A"," "," ","1","0","[2275]","1","2","","","1071","124","10","3","lose","go","0","0"
"pit-trial","188","1273031","0.0-129.0","battery-v0.2","","""event"",""trial"",""time""
""focus"",""0"",""2""
""fullscreenenter"",""1"",""2966""
","
","""event"",""trial"",""time""
""focus"",""0"",""2""
","""event"",""trial"",""time""
""fullscreenenter"",""1"",""2966""
","
","","","805","","","11","1071","815","r","elianto","#f73b6a7A"," "," ","1","0","[1668]","1","2","","","1071","125","10","3","lose","go","0","0"
"pit-trial","189","1277899","0.0-130.0","battery-v0.2","","""event"",""trial"",""time""
""focus"",""0"",""2""
""fullscreenenter"",""1"",""2966""
","
","""event"",""trial"",""time""
""focus"",""0"",""2""
","""event"",""trial"",""time""
""fullscreenenter"",""1"",""2966""
","
","","","-1","","","11","1071","815","m","elianto","#f73b6a7A","-1","-1","1","0","[]","0","2","","","1071","126","11","4","lose","no-go","0","0"
"pit-trial","190","1281490","0.0-131.0","battery-v0.2","","""event"",""trial"",""time""
""focus"",""0"",""2""
""fullscreenenter"",""1"",""2966""
","
","""event"",""trial"",""time""
""focus"",""0"",""2""
","""event"",""trial"",""time""
""fullscreenenter"",""1"",""2966""
","
","","","722","","","11","1071","815","h","elianto","#3366ff99"," "," ","1","+10","[1583]","1","2","","","1071","127","8","1","win","go","0","0"
"pit-trial","191","1286361","0.0-132.0","battery-v0.2","","""event"",""trial"",""time""
""focus"",""0"",""2""
""fullscreenenter"",""1"",""2966""
","
","""event"",""trial"",""time""
""focus"",""0"",""2""
","""event"",""trial"",""time""
""fullscreenenter"",""1"",""2966""
","
","","","-1","","","11","1071","815","y","elianto","#3366ff99","-1","-1","1","+10","[]","0","2","","","1071","128","9","2","win","no-go","0","0"
"pit-trial","192","1291222","0.0-133.0","battery-v0.2","","""event"",""trial"",""time""
""focus"",""0"",""2""
""fullscreenenter"",""1"",""2966""
","
","""event"",""trial"",""time""
""focus"",""0"",""2""
","""event"",""trial"",""time""
""fullscreenenter"",""1"",""2966""
","
","","","-1","","","11","1071","815","m","elianto","#f73b6a7A","-1","-1","1","0","[]","0","2","","","1071","129","11","4","lose","no-go","0","0"
"pit-trial","193","1296096","0.0-134.0","battery-v0.2","","""event"",""trial"",""time""
""focus"",""0"",""2""
""fullscreenenter"",""1"",""2966""
","
","""event"",""trial"",""time""
""focus"",""0"",""2""
","""event"",""trial"",""time""
""fullscreenenter"",""1"",""2966""
","
","","","-1","","","11","1071","815","y","elianto","#3366ff99","-1","-1","1","+10","[]","0","2","","","1071","130","9","2","win","no-go","0","0"
"pit-trial","194","1299906","0.0-135.0","battery-v0.2","","""event"",""trial"",""time""
""focus"",""0"",""2""
""fullscreenenter"",""1"",""2966""
","
","""event"",""trial"",""time""
""focus"",""0"",""2""
","""event"",""trial"",""time""
""fullscreenenter"",""1"",""2966""
","
","","","945","","","11","1071","815","h","elianto","#3366ff99"," "," ","1","+10","[1798]","1","2","","","1071","131","8","1","win","go","0","0"
"pit-trial","195","1303836","0.0-136.0","battery-v0.2","","""event"",""trial"",""time""
""focus"",""0"",""2""
""fullscreenenter"",""1"",""2966""
","
","""event"",""trial"",""time""
""focus"",""0"",""2""
","""event"",""trial"",""time""
""fullscreenenter"",""1"",""2966""
","
","","","1066","","","11","1071","815","r","elianto","#f73b6a7A"," "," ","1","-10","[1927]","1","2","","","1071","132","10","3","lose","go","1","0"
"pit-trial","196","1308694","0.0-137.0","battery-v0.2","","""event"",""trial"",""time""
""focus"",""0"",""2""
""fullscreenenter"",""1"",""2966""
","
","""event"",""trial"",""time""
""focus"",""0"",""2""
","""event"",""trial"",""time""
""fullscreenenter"",""1"",""2966""
","
","","","-1","","","11","1071","815","m","elianto","#f73b6a7A","-1","-1","1","-10","[]","0","2","","","1071","133","11","4","lose","no-go","1","0"
"pit-trial","197","1312184","0.0-138.0","battery-v0.2","","""event"",""trial"",""time""
""focus"",""0"",""2""
""fullscreenenter"",""1"",""2966""
","
","""event"",""trial"",""time""
""focus"",""0"",""2""
","""event"",""trial"",""time""
""fullscreenenter"",""1"",""2966""
","
","","","621","","","11","1071","815","h","elianto","#3366ff99"," "," ","1","+10","[1485]","1","2","","","1071","134","8","1","win","go","0","0"
"pit-trial","198","1317063","0.0-139.0","battery-v0.2","","""event"",""trial"",""time""
""focus"",""0"",""2""
""fullscreenenter"",""1"",""2966""
","
","""event"",""trial"",""time""
""focus"",""0"",""2""
","""event"",""trial"",""time""
""fullscreenenter"",""1"",""2966""
","
","","","-1","","","11","1071","815","y","elianto","#3366ff99","-1","-1","1","+10","[]","0","2","","","1071","135","9","2","win","no-go","0","0"
"pit-trial","199","1321102","0.0-140.0","battery-v0.2","","""event"",""trial"",""time""
""focus"",""0"",""2""
""fullscreenenter"",""1"",""2966""
","
","""event"",""trial"",""time""
""focus"",""0"",""2""
","""event"",""trial"",""time""
""fullscreenenter"",""1"",""2966""
","
","","","1167","","","11","1071","815","r","elianto","#f73b6a7A"," "," ","1","0","[2022]","1","2","","","1071","136","10","3","lose","go","0","0"
"pit-trial","200","1324920","0.0-141.0","battery-v0.2","","""event"",""trial"",""time""
""focus"",""0"",""2""
""fullscreenenter"",""1"",""2966""
","
","""event"",""trial"",""time""
""focus"",""0"",""2""
","""event"",""trial"",""time""
""fullscreenenter"",""1"",""2966""
","
","","","945","","","11","1071","815","h","elianto","#3366ff99"," "," ","1","+10","[1804]","1","2","","","1071","137","8","1","win","go","0","0"
"pit-trial","201","1329799","0.0-142.0","battery-v0.2","","""event"",""trial"",""time""
""focus"",""0"",""2""
""fullscreenenter"",""1"",""2966""
","
","""event"",""trial"",""time""
""focus"",""0"",""2""
","""event"",""trial"",""time""
""fullscreenenter"",""1"",""2966""
","
","","","-1","","","11","1071","815","y","elianto","#3366ff99","-1","-1","1","0","[]","0","2","","","1071","138","9","2","win","no-go","1","0"
"pit-trial","202","1334669","0.0-143.0","battery-v0.2","","""event"",""trial"",""time""
""focus"",""0"",""2""
""fullscreenenter"",""1"",""2966""
","
","""event"",""trial"",""time""
""focus"",""0"",""2""
","""event"",""trial"",""time""
""fullscreenenter"",""1"",""2966""
","
","","","-1","","","11","1071","815","m","elianto","#f73b6a7A","-1","-1","1","-10","[]","0","2","","","1071","139","11","4","lose","no-go","1","0"
"pit-trial","203","1338587","0.0-144.0","battery-v0.2","","""event"",""trial"",""time""
""focus"",""0"",""2""
""fullscreenenter"",""1"",""2966""
","
","""event"",""trial"",""time""
""focus"",""0"",""2""
","""event"",""trial"",""time""
""fullscreenenter"",""1"",""2966""
","
","","","1036","","","11","1071","815","r","elianto","#f73b6a7A"," "," ","1","0","[1894]","1","2","","","1071","140","10","3","lose","go","0","0"
"pit-instructions","204","1482106","0.0-145.0","battery-v0.2","","""event"",""trial"",""time""
""focus"",""0"",""2""
""fullscreenenter"",""1"",""2966""
","
","""event"",""trial"",""time""
""focus"",""0"",""2""
","""event"",""trial"",""time""
""fullscreenenter"",""1"",""2966""
","
","","[{""page_index"":0,""viewing_time"":134236},{""page_index"":1,""viewing_time"":9279}]","143516","","","","","","","","","","","","","","","","","","","","","","","","",""
"pit-trial","205","1486877","0.0-146.0","battery-v0.2","","""event"",""trial"",""time""
""focus"",""0"",""2""
""fullscreenenter"",""1"",""2966""
","
","""event"",""trial"",""time""
""focus"",""0"",""2""
","""event"",""trial"",""time""
""fullscreenenter"",""1"",""2966""
","
","","","1899","","","11","1071","815","d","elianto","#3366ff99"," "," ","1","+10","[2762]","1","3","","","1071","141","2","1","win","go","0","0"
"pit-trial","206","1490542","0.0-147.0","battery-v0.2","","""event"",""trial"",""time""
""focus"",""0"",""2""
""fullscreenenter"",""1"",""2966""
","
","""event"",""trial"",""time""
""focus"",""0"",""2""
","""event"",""trial"",""time""
""fullscreenenter"",""1"",""2966""
","
","","","799","","","11","1071","815","v","elianto","#3366ff99","-1"," ","0","0","[1661]","1","3","","","1071","142","0","2","win","no-go","0","0"
"pit-trial","207","1494280","0.0-148.0","battery-v0.2","","""event"",""trial"",""time""
""focus"",""0"",""2""
""fullscreenenter"",""1"",""2966""
","
","""event"",""trial"",""time""
""focus"",""0"",""2""
","""event"",""trial"",""time""
""fullscreenenter"",""1"",""2966""
","
","","","879","","","11","1071","815","k","elianto","#f73b6a7A"," "," ","1","0","[1731]","1","3","","","1071","143","3","3","lose","go","0","0"
"pit-trial","208","1497671","0.0-149.0","battery-v0.2","","""event"",""trial"",""time""
""focus"",""0"",""2""
""fullscreenenter"",""1"",""2966""
","
","""event"",""trial"",""time""
""focus"",""0"",""2""
","""event"",""trial"",""time""
""fullscreenenter"",""1"",""2966""
","
","","","516","","","11","1071","815","j","elianto","#3366ff99","-1"," ","0","0","[1380]","1","3","","","1071","144","1","2","win","no-go","0","0"
"pit-trial","209","1501575","0.0-150.0","battery-v0.2","","""event"",""trial"",""time""
""focus"",""0"",""2""
""fullscreenenter"",""1"",""2966""
","
","""event"",""trial"",""time""
""focus"",""0"",""2""
","""event"",""trial"",""time""
""fullscreenenter"",""1"",""2966""
","
","","","1040","","","11","1071","815","v","elianto","#3366ff99","-1"," ","0","0","[1901]","1","3","","","1071","145","0","2","win","no-go","0","0"
"pit-trial","210","1505853","0.0-151.0","battery-v0.2","","""event"",""trial"",""time""
""focus"",""0"",""2""
""fullscreenenter"",""1"",""2966""
","
","""event"",""trial"",""time""
""focus"",""0"",""2""
","""event"",""trial"",""time""
""fullscreenenter"",""1"",""2966""
","
","","","1412","","","11","1071","815","j","elianto","#3366ff99","-1"," ","0","0","[2269]","1","3","","","1071","146","1","2","win","no-go","0","0"
"pit-trial","211","1509508","0.0-152.0","battery-v0.2","","""event"",""trial"",""time""
""focus"",""0"",""2""
""fullscreenenter"",""1"",""2966""
","
","""event"",""trial"",""time""
""focus"",""0"",""2""
","""event"",""trial"",""time""
""fullscreenenter"",""1"",""2966""
","
","","","777","","","11","1071","815","d","elianto","#3366ff99"," "," ","1","+10","[1640]","1","3","","","1071","147","2","1","win","go","0","0"
"pit-trial","212","1514375","0.0-153.0","battery-v0.2","","""event"",""trial"",""time""
""focus"",""0"",""2""
""fullscreenenter"",""1"",""2966""
","
","""event"",""trial"",""time""
""focus"",""0"",""2""
","""event"",""trial"",""time""
""fullscreenenter"",""1"",""2966""
","
","","","-1","","","11","1071","815","k","elianto","#f73b6a7A"," ","-1","0","-10","[]","0","3","","","1071","148","3","3","lose","go","0","0"
"pit-trial","213","1519245","0.0-154.0","battery-v0.2","","""event"",""trial"",""time""
""focus"",""0"",""2""
""fullscreenenter"",""1"",""2966""
","
","""event"",""trial"",""time""
""focus"",""0"",""2""
","""event"",""trial"",""time""
""fullscreenenter"",""1"",""2966""
","
","","","-1","","","11","1071","815","j","elianto","#3366ff99","-1","-1","1","0","[]","0","3","","","1071","149","1","2","win","no-go","1","0"
"pit-trial","214","1522935","0.0-155.0","battery-v0.2","","""event"",""trial"",""time""
""focus"",""0"",""2""
""fullscreenenter"",""1"",""2966""
","
","""event"",""trial"",""time""
""focus"",""0"",""2""
","""event"",""trial"",""time""
""fullscreenenter"",""1"",""2966""
","
","","","820","","","11","1071","815","d","elianto","#3366ff99"," "," ","1","+10","[1673]","1","3","","","1071","150","2","1","win","go","0","0"
"pit-trial","215","1526798","0.0-156.0","battery-v0.2","","""event"",""trial"",""time""
""focus"",""0"",""2""
""fullscreenenter"",""1"",""2966""
","
","""event"",""trial"",""time""
""focus"",""0"",""2""
","""event"",""trial"",""time""
""fullscreenenter"",""1"",""2966""
","
","","","987","","","11","1071","815","k","elianto","#f73b6a7A"," "," ","1","0","[1846]","1","3","","","1071","151","3","3","lose","go","0","0"
"pit-trial","216","1531665","0.0-157.0","battery-v0.2","","""event"",""trial"",""time""
""focus"",""0"",""2""
""fullscreenenter"",""1"",""2966""
","
","""event"",""trial"",""time""
""focus"",""0"",""2""
","""event"",""trial"",""time""
""fullscreenenter"",""1"",""2966""
","
","","","-1","","","11","1071","815","v","elianto","#3366ff99","-1","-1","1","0","[]","0","3","","","1071","152","0","2","win","no-go","1","0"
"pit-trial","217","1536536","0.0-158.0","battery-v0.2","","""event"",""trial"",""time""
""focus"",""0"",""2""
""fullscreenenter"",""1"",""2966""
","
","""event"",""trial"",""time""
""focus"",""0"",""2""
","""event"",""trial"",""time""
""fullscreenenter"",""1"",""2966""
","
","","","-1","","","11","1071","815","j","elianto","#3366ff99","-1","-1","1","+10","[]","0","3","","","1071","153","1","2","win","no-go","0","0"
"pit-trial","218","1541294","0.0-159.0","battery-v0.2","","""event"",""trial"",""time""
""focus"",""0"",""2""
""fullscreenenter"",""1"",""2966""
","
","""event"",""trial"",""time""
""focus"",""0"",""2""
","""event"",""trial"",""time""
""fullscreenenter"",""1"",""2966""
","
","","","1900","","","11","1071","815","d","elianto","#3366ff99"," "," ","1","+10","[2751]","1","3","","","1071","154","2","1","win","go","0","0"
"pit-trial","219","1545228","0.0-160.0","battery-v0.2","","""event"",""trial"",""time""
""focus"",""0"",""2""
""fullscreenenter"",""1"",""2966""
","
","""event"",""trial"",""time""
""focus"",""0"",""2""
","""event"",""trial"",""time""
""fullscreenenter"",""1"",""2966""
","
","","","1062","","","11","1071","815","k","elianto","#f73b6a7A"," "," ","1","0","[1927]","1","3","","","1071","155","3","3","lose","go","0","0"
"pit-trial","220","1549118","0.0-161.0","battery-v0.2","","""event"",""trial"",""time""
""focus"",""0"",""2""
""fullscreenenter"",""1"",""2966""
","
","""event"",""trial"",""time""
""focus"",""0"",""2""
","""event"",""trial"",""time""
""fullscreenenter"",""1"",""2966""
","
","","","1023","","","11","1071","815","v","elianto","#3366ff99","-1"," ","0","0","[1883]","1","3","","","1071","156","0","2","win","no-go","0","0"
"pit-trial","221","1553976","0.0-162.0","battery-v0.2","","""event"",""trial"",""time""
""focus"",""0"",""2""
""fullscreenenter"",""1"",""2966""
","
","""event"",""trial"",""time""
""focus"",""0"",""2""
","""event"",""trial"",""time""
""fullscreenenter"",""1"",""2966""
","
","","","-1","","","11","1071","815","j","elianto","#3366ff99","-1","-1","1","0","[]","0","3","","","1071","157","1","2","win","no-go","1","0"
"pit-trial","222","1557612","0.0-163.0","battery-v0.2","","""event"",""trial"",""time""
""focus"",""0"",""2""
""fullscreenenter"",""1"",""2966""
","
","""event"",""trial"",""time""
""focus"",""0"",""2""
","""event"",""trial"",""time""
""fullscreenenter"",""1"",""2966""
","
","","","761","","","11","1071","815","d","elianto","#3366ff99"," "," ","1","+10","[1623]","1","3","","","1071","158","2","1","win","go","0","0"
"pit-trial","223","1561415","0.0-164.0","battery-v0.2","","""event"",""trial"",""time""
""focus"",""0"",""2""
""fullscreenenter"",""1"",""2966""
","
","""event"",""trial"",""time""
""focus"",""0"",""2""
","""event"",""trial"",""time""
""fullscreenenter"",""1"",""2966""
","
","","","946","","","11","1071","815","k","elianto","#f73b6a7A"," "," ","1","0","[1799]","1","3","","","1071","159","3","3","lose","go","0","0"
"pit-trial","224","1565432","0.0-165.0","battery-v0.2","","""event"",""trial"",""time""
""focus"",""0"",""2""
""fullscreenenter"",""1"",""2966""
","
","""event"",""trial"",""time""
""focus"",""0"",""2""
","""event"",""trial"",""time""
""fullscreenenter"",""1"",""2966""
","
","","","1163","","","11","1071","815","v","elianto","#3366ff99","-1"," ","0","0","[2012]","1","3","","","1071","160","0","2","win","no-go","0","0"
"pit-trial","225","1570307","0.0-166.0","battery-v0.2","","""event"",""trial"",""time""
""focus"",""0"",""2""
""fullscreenenter"",""1"",""2966""
","
","""event"",""trial"",""time""
""focus"",""0"",""2""
","""event"",""trial"",""time""
""fullscreenenter"",""1"",""2966""
","
","","","-1","","","11","1071","815","v","elianto","#3366ff99","-1","-1","1","+10","[]","0","3","","","1071","161","0","2","win","no-go","0","0"
"pit-trial","226","1574022","0.0-167.0","battery-v0.2","","""event"",""trial"",""time""
""focus"",""0"",""2""
""fullscreenenter"",""1"",""2966""
","
","""event"",""trial"",""time""
""focus"",""0"",""2""
","""event"",""trial"",""time""
""fullscreenenter"",""1"",""2966""
","
","","","850","","","11","1071","815","d","elianto","#3366ff99"," "," ","1","0","[1707]","1","3","","","1071","162","2","1","win","go","1","0"
"pit-trial","227","1578883","0.0-168.0","battery-v0.2","","""event"",""trial"",""time""
""focus"",""0"",""2""
""fullscreenenter"",""1"",""2966""
","
","""event"",""trial"",""time""
""focus"",""0"",""2""
","""event"",""trial"",""time""
""fullscreenenter"",""1"",""2966""
","
","","","-1","","","11","1071","815","j","elianto","#3366ff99","-1","-1","1","0","[]","0","3","","","1071","163","1","2","win","no-go","1","0"
"pit-trial","228","1582942","0.0-169.0","battery-v0.2","","""event"",""trial"",""time""
""focus"",""0"",""2""
""fullscreenenter"",""1"",""2966""
","
","""event"",""trial"",""time""
""focus"",""0"",""2""
","""event"",""trial"",""time""
