"trial_type","trial_index","time_elapsed","internal_node_id","task_version","rune","rune_set","hex","correct","choice","rt","accuracy","outcome","keys","total_keys","sub","block","trial","stimulus","robot","valence","action","sham"
"pavlovia","0","9","0.0-0.0","battery-v0.2","","","","","","","","","","","","","","","","","",""
"pit-trial","1","4865","0.0-1.0","battery-v0.2","v","elianto","#d1e6df","-1","-1","-1","1","0","[]","0","3&age=8&participant_ID=5&order=1","2","21","0","2","win","no-go","1"
"pit-trial","2","9727","0.0-2.0","battery-v0.2","d","elianto","#d1e6df","32","-1","-1","0","0","[]","0","3&age=8&participant_ID=5&order=1","2","22","2","1","win","go","0"
"pit-trial","3","14584","0.0-3.0","battery-v0.2","j","elianto","#d1e6df","-1","-1","-1","1","+10","[]","0","3&age=8&participant_ID=5&order=1","2","23","1","2","win","no-go","0"
"pit-trial","4","19441","0.0-4.0","battery-v0.2","k","elianto","#d1e6df","32","-1","-1","0","-10","[]","0","3&age=8&participant_ID=5&order=1","2","24","3","3","lose","go","0"
"pit-trial","5","24297","0.0-5.0","battery-v0.2","v","elianto","#d1e6df","-1","-1","-1","1","+10","[]","0","3&age=8&participant_ID=5&order=1","2","25","0","2","win","no-go","0"
"pit-trial","6","29157","0.0-6.0","battery-v0.2","d","elianto","#d1e6df","32","-1","-1","0","0","[]","0","3&age=8&participant_ID=5&order=1","2","26","2","1","win","go","0"
"pit-trial","7","34018","0.0-7.0","battery-v0.2","k","elianto","#d1e6df","32","-1","-1","0","-10","[]","0","3&age=8&participant_ID=5&order=1","2","27","3","3","lose","go","0"
"pit-trial","8","38879","0.0-8.0","battery-v0.2","j","elianto","#d1e6df","-1","-1","-1","1","+10","[]","0","3&age=8&participant_ID=5&order=1","2","28","1","2","win","no-go","0"
"pit-trial","9","43740","0.0-9.0","battery-v0.2","v","elianto","#d1e6df","-1","-1","-1","1","+10","[]","0","3&age=8&participant_ID=5&order=1","2","29","0","2","win","no-go","0"
"pit-trial","10","48595","0.0-10.0","battery-v0.2","k","elianto","#d1e6df","32","-1","-1","0","-10","[]","0","3&age=8&participant_ID=5&order=1","2","30","3","3","lose","go","0"
"pit-trial","11","53452","0.0-11.0","battery-v0.2","j","elianto","#d1e6df","-1","-1","-1","1","+10","[]","0","3&age=8&participant_ID=5&order=1","2","31","1","2","win","no-go","0"
"pit-trial","12","58320","0.0-12.0","battery-v0.2","d","elianto","#d1e6df","32","-1","-1","0","+10","[]","0","3&age=8&participant_ID=5&order=1","2","32","2","1","win","go","1"
"pit-trial","13","63179","0.0-13.0","battery-v0.2","k","elianto","#d1e6df","32","-1","-1","0","-10","[]","0","3&age=8&participant_ID=5&order=1","2","33","3","3","lose","go","0"
"pit-trial","14","68038","0.0-14.0","battery-v0.2","d","elianto","#d1e6df","32","-1","-1","0","0","[]","0","3&age=8&participant_ID=5&order=1","2","34","2","1","win","go","0"
"pit-trial","15","72894","0.0-15.0","battery-v0.2","j","elianto","#d1e6df","-1","-1","-1","1","+10","[]","0","3&age=8&participant_ID=5&order=1","2","35","1","2","win","no-go","0"
"pit-trial","16","77751","0.0-16.0","battery-v0.2","v","elianto","#d1e6df","-1","-1","-1","1","0","[]","0","3&age=8&participant_ID=5&order=1","2","36","0","2","win","no-go","1"
"pit-trial","17","82612","0.0-17.0","battery-v0.2","j","elianto","#d1e6df","-1","-1","-1","1","+10","[]","0","3&age=8&participant_ID=5&order=1","2","37","1","2","win","no-go","0"
"pit-trial","18","87471","0.0-18.0","battery-v0.2","k","elianto","#d1e6df","32","-1","-1","0","-10","[]","0","3&age=8&participant_ID=5&order=1","2","38","3","3","lose","go","0"
"pit-trial","19","92332","0.0-19.0","battery-v0.2","d","elianto","#d1e6df","32","-1","-1","0","+10","[]","0","3&age=8&participant_ID=5&order=1","2","39","2","1","win","go","1"
"pit-trial","20","97187","0.0-20.0","battery-v0.2","v","elianto","#d1e6df","-1","-1","-1","1","+10","[]","0","3&age=8&participant_ID=5&order=1","2","40","0","2","win","no-go","0"
"pit-trial","21","102053","0.0-21.0","battery-v0.2","j","elianto","#d1e6df","-1","-1","-1","1","+10","[]","0","3&age=8&participant_ID=5&order=1","2","41","1","2","win","no-go","0"
"pit-trial","22","106910","0.0-22.0","battery-v0.2","d","elianto","#d1e6df","32","-1","-1","0","0","[]","0","3&age=8&participant_ID=5&order=1","2","42","2","1","win","go","0"
"pit-trial","23","111765","0.0-23.0","battery-v0.2","k","elianto","#d1e6df","32","-1","-1","0","-10","[]","0","3&age=8&participant_ID=5&order=1","2","43","3","3","lose","go","0"
"pit-trial","24","116620","0.0-24.0","battery-v0.2","v","elianto","#d1e6df","-1","-1","-1","1","+10","[]","0","3&age=8&participant_ID=5&order=1","2","44","0","2","win","no-go","0"
"pit-trial","25","121479","0.0-25.0","battery-v0.2","k","elianto","#d1e6df","32","-1","-1","0","-10","[]","0","3&age=8&participant_ID=5&order=1","2","45","3","3","lose","go","0"
"pit-trial","26","126339","0.0-26.0","battery-v0.2","v","elianto","#d1e6df","-1","-1","-1","1","+10","[]","0","3&age=8&participant_ID=5&order=1","2","46","0","2","win","no-go","0"
"pit-trial","27","131198","0.0-27.0","battery-v0.2","d","elianto","#d1e6df","32","-1","-1","0","0","[]","0","3&age=8&participant_ID=5&order=1","2","47","2","1","win","go","0"
"pit-trial","28","136058","0.0-28.0","battery-v0.2","j","elianto","#d1e6df","-1","-1","-1","1","+10","[]","0","3&age=8&participant_ID=5&order=1","2","48","1","2","win","no-go","0"
"pit-trial","29","140920","0.0-29.0","battery-v0.2","d","elianto","#d1e6df","32","-1","-1","0","0","[]","0","3&age=8&participant_ID=5&order=1","2","49","2","1","win","go","0"
"pit-trial","30","145777","0.0-30.0","battery-v0.2","j","elianto","#d1e6df","-1","-1","-1","1","+10","[]","0","3&age=8&participant_ID=5&order=1","2","50","1","2","win","no-go","0"
"pit-trial","31","150635","0.0-31.0","battery-v0.2","k","elianto","#d1e6df","32","-1","-1","0","0","[]","0","3&age=8&participant_ID=5&order=1","2","51","3","3","lose","go","1"
"pit-trial","32","155488","0.0-32.0","battery-v0.2","v","elianto","#d1e6df","-1","-1","-1","1","+10","[]","0","3&age=8&participant_ID=5&order=1","2","52","0","2","win","no-go","0"
"pit-trial","33","160347","0.0-33.0","battery-v0.2","w","elianto","#d1e6df","32","-1","-1","0","-10","[]","0","3&age=8&participant_ID=5&order=1","2","53","5","3","lose","go","0"
"pit-trial","34","165204","0.0-34.0","battery-v0.2","e","elianto","#d1e6df","-1","-1","-1","1","-10","[]","0","3&age=8&participant_ID=5&order=1","2","54","4","4","lose","no-go","1"
"pit-trial","35","170061","0.0-35.0","battery-v0.2","v","elianto","#d1e6df","-1","-1","-1","1","+10","[]","0","3&age=8&participant_ID=5&order=1","2","55","0","2","win","no-go","0"
"pit-trial","36","174915","0.0-36.0","battery-v0.2","d","elianto","#d1e6df","32","-1","-1","0","0","[]","0","3&age=8&participant_ID=5&order=1","2","56","2","1","win","go","0"
"pit-trial","37","179776","0.0-37.0","battery-v0.2","v","elianto","#d1e6df","-1","-1","-1","1","+10","[]","0","3&age=8&participant_ID=5&order=1","2","57","0","2","win","no-go","0"
"pit-trial","38","184635","0.0-38.0","battery-v0.2","e","elianto","#d1e6df","-1","-1","-1","1","0","[]","0","3&age=8&participant_ID=5&order=1","2","58","4","4","lose","no-go","0"
"pit-trial","39","189489","0.0-39.0","battery-v0.2","w","elianto","#d1e6df","32","-1","-1","0","-10","[]","0","3&age=8&participant_ID=5&order=1","2","59","5","3","lose","go","0"
"pit-trial","40","194350","0.0-40.0","battery-v0.2","d","elianto","#d1e6df","32","-1","-1","0","0","[]","0","3&age=8&participant_ID=5&order=1","2","60","2","1","win","go","0"
"pit-trial","41","199207","0.0-41.0","battery-v0.2","e","elianto","#d1e6df","-1","-1","-1","1","0","[]","0","3&age=8&participant_ID=5&order=1","2","61","4","4","lose","no-go","0"
"pit-trial","42","204061","0.0-42.0","battery-v0.2","s","elianto","#d1e6df","-1","-1","-1","1","+10","[]","0","3&age=8&participant_ID=5&order=1","2","62","6","2","win","no-go","0"
"pit-trial","43","208922","0.0-43.0","battery-v0.2","w","elianto","#d1e6df","32","-1","-1","0","-10","[]","0","3&age=8&participant_ID=5&order=1","2","63","5","3","lose","go","0"
"pit-trial","44","213779","0.0-44.0","battery-v0.2","d","elianto","#d1e6df","32","-1","-1","0","0","[]","0","3&age=8&participant_ID=5&order=1","2","64","2","1","win","go","0"
"pit-trial","45","218637","0.0-45.0","battery-v0.2","e","elianto","#d1e6df","-1","-1","-1","1","0","[]","0","3&age=8&participant_ID=5&order=1","2","65","4","4","lose","no-go","0"
"pit-trial","46","223492","0.0-46.0","battery-v0.2","d","elianto","#d1e6df","32","-1","-1","0","+10","[]","0","3&age=8&participant_ID=5&order=1","2","66","2","1","win","go","1"
"pit-trial","47","228355","0.0-47.0","battery-v0.2","w","elianto","#d1e6df","32","-1","-1","0","-10","[]","0","3&age=8&participant_ID=5&order=1","2","67","5","3","lose","go","0"
"pit-trial","48","233218","0.0-48.0","battery-v0.2","s","elianto","#d1e6df","-1","-1","-1","1","+10","[]","0","3&age=8&participant_ID=5&order=1","2","68","6","2","win","no-go","0"
"pit-trial","49","238080","0.0-49.0","battery-v0.2","e","elianto","#d1e6df","-1","-1","-1","1","0","[]","0","3&age=8&participant_ID=5&order=1","2","69","4","4","lose","no-go","0"
"pit-trial","50","242937","0.0-50.0","battery-v0.2","w","elianto","#d1e6df","32","-1","-1","0","-10","[]","0","3&age=8&participant_ID=5&order=1","2","70","5","3","lose","go","0"
"pit-trial","51","247789","0.0-51.0","battery-v0.2","p","elianto","#d1e6df","-1","-1","-1","1","0","[]","0","3&age=8&participant_ID=5&order=1","2","71","7","4","lose","no-go","0"
"pit-trial","52","252651","0.0-52.0","battery-v0.2","s","elianto","#d1e6df","-1","-1","-1","1","+10","[]","0","3&age=8&participant_ID=5&order=1","2","72","6","2","win","no-go","0"
"pit-trial","53","257515","0.0-53.0","battery-v0.2","p","elianto","#d1e6df","-1","-1","-1","1","0","[]","0","3&age=8&participant_ID=5&order=1","2","73","7","4","lose","no-go","0"
"pit-trial","54","262374","0.0-54.0","battery-v0.2","w","elianto","#d1e6df","32","-1","-1","0","-10","[]","0","3&age=8&participant_ID=5&order=1","2","74","5","3","lose","go","0"
"pit-trial","55","267233","0.0-55.0","battery-v0.2","s","elianto","#d1e6df","-1","-1","-1","1","0","[]","0","3&age=8&participant_ID=5&order=1","2","75","6","2","win","no-go","1"
"pit-trial","56","272087","0.0-56.0","battery-v0.2","e","elianto","#d1e6df","-1","-1","-1","1","0","[]","0","3&age=8&participant_ID=5&order=1","2","76","4","4","lose","no-go","0"
"pit-trial","57","276949","0.0-57.0","battery-v0.2","p","elianto","#d1e6df","-1","-1","-1","1","0","[]","0","3&age=8&participant_ID=5&order=1","2","77","7","4","lose","no-go","0"
"pit-trial","58","281810","0.0-58.0","battery-v0.2","s","elianto","#d1e6df","-1","-1","-1","1","+10","[]","0","3&age=8&participant_ID=5&order=1","2","78","6","2","win","no-go","0"
"pit-trial","59","286667","0.0-59.0","battery-v0.2","w","elianto","#d1e6df","32","-1","-1","0","-10","[]","0","3&age=8&participant_ID=5&order=1","2","79","5","3","lose","go","0"
"pit-trial","60","291528","0.0-60.0","battery-v0.2","e","elianto","#d1e6df","-1","-1","-1","1","-10","[]","0","3&age=8&participant_ID=5&order=1","2","80","4","4","lose","no-go","1"
"pit-trial","61","296385","0.0-61.0","battery-v0.2","w","elianto","#d1e6df","32","-1","-1","0","-10","[]","0","3&age=8&participant_ID=5&order=1","2","81","5","3","lose","go","0"
"pit-trial","62","301245","0.0-62.0","battery-v0.2","p","elianto","#d1e6df","-1","-1","-1","1","0","[]","0","3&age=8&participant_ID=5&order=1","2","82","7","4","lose","no-go","0"
"pit-trial","63","306102","0.0-63.0","battery-v0.2","s","elianto","#d1e6df","-1","-1","-1","1","0","[]","0","3&age=8&participant_ID=5&order=1","2","83","6","2","win","no-go","1"
"pit-trial","64","310962","0.0-64.0","battery-v0.2","e","elianto","#d1e6df","-1","-1","-1","1","0","[]","0","3&age=8&participant_ID=5&order=1","2","84","4","4","lose","no-go","0"
"pit-trial","65","315822","0.0-65.0","battery-v0.2","s","elianto","#d1e6df","-1","-1","-1","1","+10","[]","0","3&age=8&participant_ID=5&order=1","2","85","6","2","win","no-go","0"
"pit-trial","66","320679","0.0-66.0","battery-v0.2","w","elianto","#d1e6df","32","-1","-1","0","0","[]","0","3&age=8&participant_ID=5&order=1","2","86","5","3","lose","go","1"
"pit-trial","67","325544","0.0-67.0","battery-v0.2","p","elianto","#d1e6df","-1","-1","-1","1","0","[]","0","3&age=8&participant_ID=5&order=1","2","87","7","4","lose","no-go","0"
"pit-trial","68","330398","0.0-68.0","battery-v0.2","e","elianto","#d1e6df","-1","-1","-1","1","-10","[]","0","3&age=8&participant_ID=5&order=1","2","88","4","4","lose","no-go","1"
"pit-trial","69","335259","0.0-69.0","battery-v0.2","p","elianto","#d1e6df","-1","-1","-1","1","0","[]","0","3&age=8&participant_ID=5&order=1","2","89","7","4","lose","no-go","0"
"pit-trial","70","340117","0.0-70.0","battery-v0.2","e","elianto","#d1e6df","-1","-1","-1","1","0","[]","0","3&age=8&participant_ID=5&order=1","2","90","4","4","lose","no-go","0"
"pit-trial","71","344974","0.0-71.0","battery-v0.2","w","elianto","#d1e6df","32","-1","-1","0","-10","[]","0","3&age=8&participant_ID=5&order=1","2","91","5","3","lose","go","0"
"pit-trial","72","349827","0.0-72.0","battery-v0.2","s","elianto","#d1e6df","-1","-1","-1","1","+10","[]","0","3&age=8&participant_ID=5&order=1","2","92","6","2","win","no-go","0"
"pit-trial","73","354683","0.0-73.0","battery-v0.2","w","elianto","#d1e6df","32","-1","-1","0","-10","[]","0","3&age=8&participant_ID=5&order=1","2","93","5","3","lose","go","0"
"pit-trial","74","359541","0.0-74.0","battery-v0.2","s","elianto","#d1e6df","-1","-1","-1","1","+10","[]","0","3&age=8&participant_ID=5&order=1","2","94","6","2","win","no-go","0"
"pit-trial","75","364397","0.0-75.0","battery-v0.2","g","elianto","#d1e6df","-1","-1","-1","1","0","[]","0","3&age=8&participant_ID=5&order=1","2","95","8","4","lose","no-go","0"
"pit-trial","76","369253","0.0-76.0","battery-v0.2","p","elianto","#d1e6df","-1","-1","-1","1","0","[]","0","3&age=8&participant_ID=5&order=1","2","96","7","4","lose","no-go","0"
"pit-trial","77","374107","0.0-77.0","battery-v0.2","w","elianto","#d1e6df","32","-1","-1","0","-10","[]","0","3&age=8&participant_ID=5&order=1","2","97","5","3","lose","go","0"
"pit-trial","78","378970","0.0-78.0","battery-v0.2","s","elianto","#d1e6df","-1","-1","-1","1","+10","[]","0","3&age=8&participant_ID=5&order=1","2","98","6","2","win","no-go","0"
"pit-trial","79","383826","0.0-79.0","battery-v0.2","p","elianto","#d1e6df","-1","-1","-1","1","0","[]","0","3&age=8&participant_ID=5&order=1","2","99","7","4","lose","no-go","0"
"pit-trial","80","388681","0.0-80.0","battery-v0.2","g","elianto","#d1e6df","-1","-1","-1","1","-10","[]","0","3&age=8&participant_ID=5&order=1","2","100","8","4","lose","no-go","1"
"pit-trial","81","393540","0.0-81.0","battery-v0.2","l","elianto","#d1e6df","32","-1","-1","0","0","[]","0","3&age=8&participant_ID=5&order=1","2","101","10","3","lose","go","1"
"pit-trial","82","398403","0.0-82.0","battery-v0.2","s","elianto","#d1e6df","-1","-1","-1","1","+10","[]","0","3&age=8&participant_ID=5&order=1","2","102","6","2","win","no-go","0"
"pit-trial","83","403266","0.0-83.0","battery-v0.2","a","elianto","#d1e6df","32","-1","-1","0","0","[]","0","3&age=8&participant_ID=5&order=1","2","103","9","1","win","go","0"
"pit-trial","84","408120","0.0-84.0","battery-v0.2","g","elianto","#d1e6df","-1","-1","-1","1","0","[]","0","3&age=8&participant_ID=5&order=1","2","104","8","4","lose","no-go","0"
"pit-trial","85","412984","0.0-85.0","battery-v0.2","s","elianto","#d1e6df","-1","-1","-1","1","0","[]","0","3&age=8&participant_ID=5&order=1","2","105","6","2","win","no-go","1"
"pit-trial","86","417840","0.0-86.0","battery-v0.2","a","elianto","#d1e6df","32","-1","-1","0","0","[]","0","3&age=8&participant_ID=5&order=1","2","106","9","1","win","go","0"
"pit-trial","87","422699","0.0-87.0","battery-v0.2","l","elianto","#d1e6df","32","-1","-1","0","-10","[]","0","3&age=8&participant_ID=5&order=1","2","107","10","3","lose","go","0"
"pit-trial","88","427588","0.0-88.0","battery-v0.2","g","elianto","#d1e6df","-1","-1","-1","1","0","[]","0","3&age=8&participant_ID=5&order=1","2","108","8","4","lose","no-go","0"
"pit-trial","89","432440","0.0-89.0","battery-v0.2","u","elianto","#d1e6df","32","-1","-1","0","0","[]","0","3&age=8&participant_ID=5&order=1","2","109","11","1","win","go","0"
"pit-trial","90","437303","0.0-90.0","battery-v0.2","a","elianto","#d1e6df","32","-1","-1","0","+10","[]","0","3&age=8&participant_ID=5&order=1","2","110","9","1","win","go","1"
"pit-trial","91","442190","0.0-91.0","battery-v0.2","g","elianto","#d1e6df","-1","-1","-1","1","0","[]","0","3&age=8&participant_ID=5&order=1","2","111","8","4","lose","no-go","0"
"pit-trial","92","447051","0.0-92.0","battery-v0.2","l","elianto","#d1e6df","32","-1","-1","0","-10","[]","0","3&age=8&participant_ID=5&order=1","2","112","10","3","lose","go","0"
"pit-trial","93","451909","0.0-93.0","battery-v0.2","a","elianto","#d1e6df","32","-1","-1","0","0","[]","0","3&age=8&participant_ID=5&order=1","2","113","9","1","win","go","0"
"pit-trial","94","456765","0.0-94.0","battery-v0.2","g","elianto","#d1e6df","-1","-1","-1","1","0","[]","0","3&age=8&participant_ID=5&order=1","2","114","8","4","lose","no-go","0"
"pit-trial","95","461621","0.0-95.0","battery-v0.2","l","elianto","#d1e6df","32","-1","-1","0","-10","[]","0","3&age=8&participant_ID=5&order=1","2","115","10","3","lose","go","0"
"pit-trial","96","466480","0.0-96.0","battery-v0.2","u","elianto","#d1e6df","32","-1","-1","0","0","[]","0","3&age=8&participant_ID=5&order=1","2","116","11","1","win","go","0"
"pit-trial","97","471341","0.0-97.0","battery-v0.2","a","elianto","#d1e6df","32","-1","-1","0","0","[]","0","3&age=8&participant_ID=5&order=1","2","117","9","1","win","go","0"
"pit-trial","98","476202","0.0-98.0","battery-v0.2","u","elianto","#d1e6df","32","-1","-1","0","0","[]","0","3&age=8&participant_ID=5&order=1","2","118","11","1","win","go","0"
"pit-trial","99","481055","0.0-99.0","battery-v0.2","l","elianto","#d1e6df","32","-1","-1","0","0","[]","0","3&age=8&participant_ID=5&order=1","2","119","10","3","lose","go","1"
"pit-trial","100","485912","0.0-100.0","battery-v0.2","g","elianto","#d1e6df","-1","-1","-1","1","-10","[]","0","3&age=8&participant_ID=5&order=1","2","120","8","4","lose","no-go","1"
"pit-trial","101","490768","0.0-101.0","battery-v0.2","g","elianto","#d1e6df","-1","-1","-1","1","0","[]","0","3&age=8&participant_ID=5&order=1","2","121","8","4","lose","no-go","0"
"pit-trial","102","495628","0.0-102.0","battery-v0.2","l","elianto","#d1e6df","32","-1","-1","0","0","[]","0","3&age=8&participant_ID=5&order=1","2","122","10","3","lose","go","1"
"pit-trial","103","500488","0.0-103.0","battery-v0.2","a","elianto","#d1e6df","32","-1","-1","0","0","[]","0","3&age=8&participant_ID=5&order=1","2","123","9","1","win","go","0"
"pit-trial","104","505343","0.0-104.0","battery-v0.2","u","elianto","#d1e6df","32","-1","-1","0","0","[]","0","3&age=8&participant_ID=5&order=1","2","124","11","1","win","go","0"
"pit-trial","105","510198","0.0-105.0","battery-v0.2","a","elianto","#d1e6df","32","-1","-1","0","0","[]","0","3&age=8&participant_ID=5&order=1","2","125","9","1","win","go","0"
"pit-trial","106","515058","0.0-106.0","battery-v0.2","u","elianto","#d1e6df","32","-1","-1","0","0","[]","0","3&age=8&participant_ID=5&order=1","2","126","11","1","win","go","0"
"pit-trial","107","519911","0.0-107.0","battery-v0.2","l","elianto","#d1e6df","32","-1","-1","0","-10","[]","0","3&age=8&participant_ID=5&order=1","2","127","10","3","lose","go","0"
"pit-trial","108","524764","0.0-108.0","battery-v0.2","g","elianto","#d1e6df","-1","-1","-1","1","0","[]","0","3&age=8&participant_ID=5&order=1","2","128","8","4","lose","no-go","0"
"pit-trial","109","529620","0.0-109.0","battery-v0.2","l","elianto","#d1e6df","32","-1","-1","0","-10","[]","0","3&age=8&participant_ID=5&order=1","2","129","10","3","lose","go","0"
"pit-trial","110","534475","0.0-110.0","battery-v0.2","u","elianto","#d1e6df","32","-1","-1","0","0","[]","0","3&age=8&participant_ID=5&order=1","2","130","11","1","win","go","0"
"pit-trial","111","539334","0.0-111.0","battery-v0.2","g","elianto","#d1e6df","-1","-1","-1","1","0","[]","0","3&age=8&participant_ID=5&order=1","2","131","8","4","lose","no-go","0"
"pit-trial","112","544190","0.0-112.0","battery-v0.2","a","elianto","#d1e6df","32","-1","-1","0","0","[]","0","3&age=8&participant_ID=5&order=1","2","132","9","1","win","go","0"
"pit-trial","113","549048","0.0-113.0","battery-v0.2","l","elianto","#d1e6df","32","-1","-1","0","0","[]","0","3&age=8&participant_ID=5&order=1","2","133","10","3","lose","go","1"
"pit-trial","114","553906","0.0-114.0","battery-v0.2","g","elianto","#d1e6df","-1","-1","-1","1","0","[]","0","3&age=8&participant_ID=5&order=1","2","134","8","4","lose","no-go","0"
"pit-trial","115","558767","0.0-115.0","battery-v0.2","a","elianto","#d1e6df","32","-1","-1","0","+10","[]","0","3&age=8&participant_ID=5&order=1","2","135","9","1","win","go","1"
"pit-trial","116","563628","0.0-116.0","battery-v0.2","u","elianto","#d1e6df","32","-1","-1","0","0","[]","0","3&age=8&participant_ID=5&order=1","2","136","11","1","win","go","0"
"pit-trial","117","568489","0.0-117.0","battery-v0.2","a","elianto","#d1e6df","32","-1","-1","0","0","[]","0","3&age=8&participant_ID=5&order=1","2","137","9","1","win","go","0"
"pit-trial","118","573344","0.0-118.0","battery-v0.2","g","elianto","#d1e6df","-1","-1","-1","1","0","[]","0","3&age=8&participant_ID=5&order=1","2","138","8","4","lose","no-go","0"
"pit-trial","119","578204","0.0-119.0","battery-v0.2","l","elianto","#d1e6df","32","-1","-1","0","0","[]","0","3&age=8&participant_ID=5&order=1","2","139","10","3","lose","go","1"
"pit-trial","120","583062","0.0-120.0","battery-v0.2","u","elianto","#d1e6df","32","-1","-1","0","0","[]","0","3&age=8&participant_ID=5&order=1","2","140","11","1","win","go","0"
"pit-trial","121","587921","0.0-121.0","battery-v0.2","r","elianto","#d1e6df","32","-1","-1","0","-10","[]","0","3&age=8&participant_ID=5&order=1","3","141","1","3","lose","go","0"
"pit-trial","122","592786","0.0-122.0","battery-v0.2","m","elianto","#d1e6df","-1","-1","-1","1","+10","[]","0","3&age=8&participant_ID=5&order=1","3","142","0","2","win","no-go","0"
"pit-trial","123","597641","0.0-123.0","battery-v0.2","y","elianto","#d1e6df","-1","-1","-1","1","0","[]","0","3&age=8&participant_ID=5&order=1","3","143","2","4","lose","no-go","0"
"pit-trial","124","602499","0.0-124.0","battery-v0.2","h","elianto","#d1e6df","32","-1","-1","0","0","[]","0","3&age=8&participant_ID=5&order=1","3","144","3","1","win","go","0"
"pit-trial","125","607358","0.0-125.0","battery-v0.2","m","elianto","#d1e6df","-1","-1","-1","1","+10","[]","0","3&age=8&participant_ID=5&order=1","3","145","0","2","win","no-go","0"
"pit-trial","126","612216","0.0-126.0","battery-v0.2","y","elianto","#d1e6df","-1","-1","-1","1","0","[]","0","3&age=8&participant_ID=5&order=1","3","146","2","4","lose","no-go","0"
"pit-trial","127","617076","0.0-127.0","battery-v0.2","h","elianto","#d1e6df","32","-1","-1","0","+10","[]","0","3&age=8&participant_ID=5&order=1","3","147","3","1","win","go","1"
"pit-trial","128","621937","0.0-128.0","battery-v0.2","r","elianto","#d1e6df","32","-1","-1","0","-10","[]","0","3&age=8&participant_ID=5&order=1","3","148","1","3","lose","go","0"
"pit-trial","129","626796","0.0-129.0","battery-v0.2","m","elianto","#d1e6df","-1","-1","-1","1","+10","[]","0","3&age=8&participant_ID=5&order=1","3","149","0","2","win","no-go","0"
"pit-trial","130","631651","0.0-130.0","battery-v0.2","h","elianto","#d1e6df","32","-1","-1","0","0","[]","0","3&age=8&participant_ID=5&order=1","3","150","3","1","win","go","0"
"pit-trial","131","636509","0.0-131.0","battery-v0.2","y","elianto","#d1e6df","-1","-1","-1","1","0","[]","0","3&age=8&participant_ID=5&order=1","3","151","2","4","lose","no-go","0"
"pit-trial","132","641365","0.0-132.0","battery-v0.2","r","elianto","#d1e6df","32","-1","-1","0","-10","[]","0","3&age=8&participant_ID=5&order=1","3","152","1","3","lose","go","0"
"pit-trial","133","646222","0.0-133.0","battery-v0.2","m","elianto","#d1e6df","-1","-1","-1","1","+10","[]","0","3&age=8&participant_ID=5&order=1","3","153","0","2","win","no-go","0"
"pit-trial","134","651080","0.0-134.0","battery-v0.2","y","elianto","#d1e6df","-1","-1","-1","1","-10","[]","0","3&age=8&participant_ID=5&order=1","3","154","2","4","lose","no-go","1"
"pit-trial","135","655939","0.0-135.0","battery-v0.2","r","elianto","#d1e6df","32","-1","-1","0","-10","[]","0","3&age=8&participant_ID=5&order=1","3","155","1","3","lose","go","0"
"pit-trial","136","660801","0.0-136.0","battery-v0.2","h","elianto","#d1e6df","32","-1","-1","0","0","[]","0","3&age=8&participant_ID=5&order=1","3","156","3","1","win","go","0"
"pit-trial","137","665663","0.0-137.0","battery-v0.2","h","elianto","#d1e6df","32","-1","-1","0","+10","[]","0","3&age=8&participant_ID=5&order=1","3","157","3","1","win","go","1"
"pit-trial","138","670525","0.0-138.0","battery-v0.2","y","elianto","#d1e6df","-1","-1","-1","1","0","[]","0","3&age=8&participant_ID=5&order=1","3","158","2","4","lose","no-go","0"
"pit-trial","139","675382","0.0-139.0","battery-v0.2","r","elianto","#d1e6df","32","-1","-1","0","-10","[]","0","3&age=8&participant_ID=5&order=1","3","159","1","3","lose","go","0"
"pit-trial","140","680245","0.0-140.0","battery-v0.2","m","elianto","#d1e6df","-1","-1","-1","1","0","[]","0","3&age=8&participant_ID=5&order=1","3","160","0","2","win","no-go","1"
"pit-trial","141","685098","0.0-141.0","battery-v0.2","h","elianto","#d1e6df","32","-1","-1","0","0","[]","0","3&age=8&participant_ID=5&order=1","3","161","3","1","win","go","0"
"pit-trial","142","689961","0.0-142.0","battery-v0.2","m","elianto","#d1e6df","-1","-1","-1","1","+10","[]","0","3&age=8&participant_ID=5&order=1","3","162","0","2","win","no-go","0"
"pit-trial","143","694819","0.0-143.0","battery-v0.2","r","elianto","#d1e6df","32","-1","-1","0","0","[]","0","3&age=8&participant_ID=5&order=1","3","163","1","3","lose","go","1"
"pit-trial","144","699679","0.0-144.0","battery-v0.2","y","elianto","#d1e6df","-1","-1","-1","1","0","[]","0","3&age=8&participant_ID=5&order=1","3","164","2","4","lose","no-go","0"
"pit-trial","145","704534","0.0-145.0","battery-v0.2","y","elianto","#d1e6df","-1","-1","-1","1","-10","[]","0","3&age=8&participant_ID=5&order=1","3","165","2","4","lose","no-go","1"
"pit-trial","146","709389","0.0-146.0","battery-v0.2","r","elianto","#d1e6df","32","-1","-1","0","-10","[]","0","3&age=8&participant_ID=5&order=1","3","166","1","3","lose","go","0"
"pit-trial","147","714246","0.0-147.0","battery-v0.2","m","elianto","#d1e6df","-1","-1","-1","1","0","[]","0","3&age=8&participant_ID=5&order=1","3","167","0","2","win","no-go","1"
"pit-trial","148","719105","0.0-148.0","battery-v0.2","h","elianto","#d1e6df","32","-1","-1","0","0","[]","0","3&age=8&participant_ID=5&order=1","3","168","3","1","win","go","0"
"pit-trial","149","723964","0.0-149.0","battery-v0.2","m","elianto","#d1e6df","-1","-1","-1","1","+10","[]","0","3&age=8&participant_ID=5&order=1","3","169","0","2","win","no-go","0"
"pit-trial","150","728821","0.0-150.0","battery-v0.2","h","elianto","#d1e6df","32","-1","-1","0","0","[]","0","3&age=8&participant_ID=5&order=1","3","170","3","1","win","go","0"
"pit-trial","151","733683","0.0-151.0","battery-v0.2","r","elianto","#d1e6df","32","-1","-1","0","-10","[]","0","3&age=8&participant_ID=5&order=1","3","171","1","3","lose","go","0"
"pit-trial","152","738540","0.0-152.0","battery-v0.2","y","elianto","#d1e6df","-1","-1","-1","1","0","[]","0","3&age=8&participant_ID=5&order=1","3","172","2","4","lose","no-go","0"
"pit-trial","153","743398","0.0-153.0","battery-v0.2","y","elianto","#d1e6df","-1","-1","-1","1","0","[]","0","3&age=8&participant_ID=5&order=1","3","173","2","4","lose","no-go","0"
"pit-trial","154","748259","0.0-154.0","battery-v0.2","c","elianto","#d1e6df","-1","-1","-1","1","0","[]","0","3&age=8&participant_ID=5&order=1","3","174","5","4","lose","no-go","0"
"pit-trial","155","753119","0.0-155.0","battery-v0.2","z","elianto","#d1e6df","32","-1","-1","0","0","[]","0","3&age=8&participant_ID=5&order=1","3","175","4","3","lose","go","1"
"pit-trial","156","757977","0.0-156.0","battery-v0.2","r","elianto","#d1e6df","32","-1","-1","0","-10","[]","0","3&age=8&participant_ID=5&order=1","3","176","1","3","lose","go","0"
"pit-trial","157","762833","0.0-157.0","battery-v0.2","r","elianto","#d1e6df","32","-1","-1","0","-10","[]","0","3&age=8&participant_ID=5&order=1","3","177","1","3","lose","go","0"
"pit-trial","158","767695","0.0-158.0","battery-v0.2","y","elianto","#d1e6df","-1","-1","-1","1","0","[]","0","3&age=8&participant_ID=5&order=1","3","178","2","4","lose","no-go","0"
"pit-trial","159","772552","0.0-159.0","battery-v0.2","c","elianto","#d1e6df","-1","-1","-1","1","0","[]","0","3&age=8&participant_ID=5&order=1","3","179","5","4","lose","no-go","0"
"pit-trial","160","777408","0.0-160.0","battery-v0.2","z","elianto","#d1e6df","32","-1","-1","0","-10","[]","0","3&age=8&participant_ID=5&order=1","3","180","4","3","lose","go","0"
"pit-trial","161","782265","0.0-161.0","battery-v0.2","b","elianto","#d1e6df","-1","-1","-1","1","+10","[]","0","3&age=8&participant_ID=5&order=1","3","181","6","2","win","no-go","0"
"pit-trial","162","787126","0.0-162.0","battery-v0.2","y","elianto","#d1e6df","-1","-1","-1","1","-10","[]","0","3&age=8&participant_ID=5&order=1","3","182","2","4","lose","no-go","1"
"pit-trial","163","791988","0.0-163.0","battery-v0.2","z","elianto","#d1e6df","32","-1","-1","0","-10","[]","0","3&age=8&participant_ID=5&order=1","3","183","4","3","lose","go","0"
"pit-trial","164","796847","0.0-164.0","battery-v0.2","c","elianto","#d1e6df","-1","-1","-1","1","0","[]","0","3&age=8&participant_ID=5&order=1","3","184","5","4","lose","no-go","0"
"pit-trial","165","801710","0.0-165.0","battery-v0.2","b","elianto","#d1e6df","-1","-1","-1","1","+10","[]","0","3&age=8&participant_ID=5&order=1","3","185","6","2","win","no-go","0"
"pit-trial","166","806564","0.0-166.0","battery-v0.2","c","elianto","#d1e6df","-1","-1","-1","1","-10","[]","0","3&age=8&participant_ID=5&order=1","3","186","5","4","lose","no-go","1"
"pit-trial","167","811422","0.0-167.0","battery-v0.2","z","elianto","#d1e6df","32","-1","-1","0","-10","[]","0","3&age=8&participant_ID=5&order=1","3","187","4","3","lose","go","0"
"pit-trial","168","816283","0.0-168.0","battery-v0.2","y","elianto","#d1e6df","-1","-1","-1","1","0","[]","0","3&age=8&participant_ID=5&order=1","3","188","2","4","lose","no-go","0"
"pit-trial","169","821150","0.0-169.0","battery-v0.2","b","elianto","#d1e6df","-1","-1","-1","1","+10","[]","0","3&age=8&participant_ID=5&order=1","3","189","6","2","win","no-go","0"
"pit-trial","170","826006","0.0-170.0","battery-v0.2","z","elianto","#d1e6df","32","-1","-1","0","-10","[]","0","3&age=8&participant_ID=5&order=1","3","190","4","3","lose","go","0"
"pit-trial","171","830864","0.0-171.0","battery-v0.2","t","elianto","#d1e6df","32","-1","-1","0","0","[]","0","3&age=8&participant_ID=5&order=1","3","191","7","1","win","go","0"
"pit-trial","172","835721","0.0-172.0","battery-v0.2","c","elianto","#d1e6df","-1","-1","-1","1","-10","[]","0","3&age=8&participant_ID=5&order=1","3","192","5","4","lose","no-go","1"
"pit-trial","173","840574","0.0-173.0","battery-v0.2","c","elianto","#d1e6df","-1","-1","-1","1","0","[]","0","3&age=8&participant_ID=5&order=1","3","193","5","4","lose","no-go","0"
"pit-trial","174","845428","0.0-174.0","battery-v0.2","t","elianto","#d1e6df","32","-1","-1","0","0","[]","0","3&age=8&participant_ID=5&order=1","3","194","7","1","win","go","0"
"pit-trial","175","850286","0.0-175.0","battery-v0.2","b","elianto","#d1e6df","-1","-1","-1","1","+10","[]","0","3&age=8&participant_ID=5&order=1","3","195","6","2","win","no-go","0"
"pit-trial","176","855146","0.0-176.0","battery-v0.2","z","elianto","#d1e6df","32","-1","-1","0","-10","[]","0","3&age=8&participant_ID=5&order=1","3","196","4","3","lose","go","0"
"pit-trial","177","860004","0.0-177.0","battery-v0.2","c","elianto","#d1e6df","-1","-1","-1","1","0","[]","0","3&age=8&participant_ID=5&order=1","3","197","5","4","lose","no-go","0"
"pit-trial","178","864863","0.0-178.0","battery-v0.2","t","elianto","#d1e6df","32","-1","-1","0","0","[]","0","3&age=8&participant_ID=5&order=1","3","198","7","1","win","go","0"
"pit-trial","179","869722","0.0-179.0","battery-v0.2","b","elianto","#d1e6df","-1","-1","-1","1","+10","[]","0","3&age=8&participant_ID=5&order=1","3","199","6","2","win","no-go","0"
"pit-trial","180","874574","0.0-180.0","battery-v0.2","z","elianto","#d1e6df","32","-1","-1","0","-10","[]","0","3&age=8&participant_ID=5&order=1","3","200","4","3","lose","go","0"
"pit-trial","181","879433","0.0-181.0","battery-v0.2","c","elianto","#d1e6df","-1","-1","-1","1","0","[]","0","3&age=8&participant_ID=5&order=1","3","201","5","4","lose","no-go","0"
"pit-trial","182","884285","0.0-182.0","battery-v0.2","t","elianto","#d1e6df","32","-1","-1","0","+10","[]","0","3&age=8&participant_ID=5&order=1","3","202","7","1","win","go","1"
"pit-trial","183","889144","0.0-183.0","battery-v0.2","z","elianto","#d1e6df","32","-1","-1","0","0","[]","0","3&age=8&participant_ID=5&order=1","3","203","4","3","lose","go","1"
"pit-trial","184","894003","0.0-184.0","battery-v0.2","b","elianto","#d1e6df","-1","-1","-1","1","+10","[]","0","3&age=8&participant_ID=5&order=1","3","204","6","2","win","no-go","0"
"pit-trial","185","898857","0.0-185.0","battery-v0.2","c","elianto","#d1e6df","-1","-1","-1","1","-10","[]","0","3&age=8&participant_ID=5&order=1","3","205","5","4","lose","no-go","1"
"pit-trial","186","903713","0.0-186.0","battery-v0.2","b","elianto","#d1e6df","-1","-1","-1","1","0","[]","0","3&age=8&participant_ID=5&order=1","3","206","6","2","win","no-go","1"
"pit-trial","187","908571","0.0-187.0","battery-v0.2","z","elianto","#d1e6df","32","-1","-1","0","-10","[]","0","3&age=8&participant_ID=5&order=1","3","207","4","3","lose","go","0"
"pit-trial","188","913429","0.0-188.0","battery-v0.2","t","elianto","#d1e6df","32","-1","-1","0","0","[]","0","3&age=8&participant_ID=5&order=1","3","208","7","1","win","go","0"
"pit-trial","189","918284","0.0-189.0","battery-v0.2","c","elianto","#d1e6df","-1","-1","-1","1","-10","[]","0","3&age=8&participant_ID=5&order=1","3","209","5","4","lose","no-go","1"
"pit-trial","190","923142","0.0-190.0","battery-v0.2","z","elianto","#d1e6df","32","-1","-1","0","-10","[]","0","3&age=8&participant_ID=5&order=1","3","210","4","3","lose","go","0"
"pit-trial","191","928001","0.0-191.0","battery-v0.2","t","elianto","#d1e6df","32","-1","-1","0","0","[]","0","3&age=8&participant_ID=5&order=1","3","211","7","1","win","go","0"
"pit-trial","192","932861","0.0-192.0","battery-v0.2","b","elianto","#d1e6df","-1","-1","-1","1","+10","[]","0","3&age=8&participant_ID=5&order=1","3","212","6","2","win","no-go","0"
"pit-trial","193","937718","0.0-193.0","battery-v0.2","z","elianto","#d1e6df","32","-1","-1","0","-10","[]","0","3&age=8&participant_ID=5&order=1","3","213","4","3","lose","go","0"
"pit-trial","194","942571","0.0-194.0","battery-v0.2","b","elianto","#d1e6df","-1","-1","-1","1","+10","[]","0","3&age=8&participant_ID=5&order=1","3","214","6","2","win","no-go","0"
"pit-trial","195","947427","0.0-195.0","battery-v0.2","t","elianto","#d1e6df","32","-1","-1","0","0","[]","0","3&age=8&participant_ID=5&order=1","3","215","7","1","win","go","0"
"pit-trial","196","952286","0.0-196.0","battery-v0.2","x","elianto","#d1e6df","32","-1","-1","0","0","[]","0","3&age=8&participant_ID=5&order=1","3","216","8","1","win","go","0"
"pit-trial","197","957143","0.0-197.0","battery-v0.2","z","elianto","#d1e6df","32","-1","-1","0","-10","[]","0","3&age=8&participant_ID=5&order=1","3","217","4","3","lose","go","0"
"pit-trial","198","962004","0.0-198.0","battery-v0.2","x","elianto","#d1e6df","32","-1","-1","0","0","[]","0","3&age=8&participant_ID=5&order=1","3","218","8","1","win","go","0"
"pit-trial","199","966862","0.0-199.0","battery-v0.2","b","elianto","#d1e6df","-1","-1","-1","1","+10","[]","0","3&age=8&participant_ID=5&order=1","3","219","6","2","win","no-go","0"
"pit-trial","200","971718","0.0-200.0","battery-v0.2","t","elianto","#d1e6df","32","-1","-1","0","0","[]","0","3&age=8&participant_ID=5&order=1","3","220","7","1","win","go","0"
"pit-trial","201","976580","0.0-201.0","battery-v0.2","t","elianto","#d1e6df","32","-1","-1","0","0","[]","0","3&age=8&participant_ID=5&order=1","3","221","7","1","win","go","0"
"pit-trial","202","981436","0.0-202.0","battery-v0.2","f","elianto","#d1e6df","-1","-1","-1","1","+10","[]","0","3&age=8&participant_ID=5&order=1","3","222","9","2","win","no-go","0"
"pit-trial","203","986291","0.0-203.0","battery-v0.2","x","elianto","#d1e6df","32","-1","-1","0","0","[]","0","3&age=8&participant_ID=5&order=1","3","223","8","1","win","go","0"
"pit-trial","204","991150","0.0-204.0","battery-v0.2","b","elianto","#d1e6df","-1","-1","-1","1","+10","[]","0","3&age=8&participant_ID=5&order=1","3","224","6","2","win","no-go","0"
"pit-trial","205","996010","0.0-205.0","battery-v0.2","t","elianto","#d1e6df","32","-1","-1","0","+10","[]","0","3&age=8&participant_ID=5&order=1","3","225","7","1","win","go","1"
"pit-trial","206","1000866","0.0-206.0","battery-v0.2","x","elianto","#d1e6df","32","-1","-1","0","0","[]","0","3&age=8&participant_ID=5&order=1","3","226","8","1","win","go","0"
"pit-trial","207","1005722","0.0-207.0","battery-v0.2","b","elianto","#d1e6df","-1","-1","-1","1","+10","[]","0","3&age=8&participant_ID=5&order=1","3","227","6","2","win","no-go","0"
"pit-trial","208","1010583","0.0-208.0","battery-v0.2","f","elianto","#d1e6df","-1","-1","-1","1","+10","[]","0","3&age=8&participant_ID=5&order=1","3","228","9","2","win","no-go","0"
"pit-trial","209","1015443","0.0-209.0","battery-v0.2","x","elianto","#d1e6df","32","-1","-1","0","+10","[]","0","3&age=8&participant_ID=5&order=1","3","229","8","1","win","go","1"
"pit-trial","210","1020301","0.0-210.0","battery-v0.2","n","elianto","#d1e6df","32","-1","-1","0","-10","[]","0","3&age=8&participant_ID=5&order=1","3","230","10","3","lose","go","0"
"pit-trial","211","1025155","0.0-211.0","battery-v0.2","q","elianto","#d1e6df","-1","-1","-1","1","0","[]","0","3&age=8&participant_ID=5&order=1","3","231","11","4","lose","no-go","0"
"pit-trial","212","1030017","0.0-212.0","battery-v0.2","f","elianto","#d1e6df","-1","-1","-1","1","0","[]","0","3&age=8&participant_ID=5&order=1","3","232","9","2","win","no-go","1"
"pit-trial","213","1034877","0.0-213.0","battery-v0.2","x","elianto","#d1e6df","32","-1","-1","0","0","[]","0","3&age=8&participant_ID=5&order=1","3","233","8","1","win","go","0"
"pit-trial","214","1039731","0.0-214.0","battery-v0.2","n","elianto","#d1e6df","32","-1","-1","0","-10","[]","0","3&age=8&participant_ID=5&order=1","3","234","10","3","lose","go","0"
"pit-trial","215","1044591","0.0-215.0","battery-v0.2","f","elianto","#d1e6df","-1","-1","-1","1","+10","[]","0","3&age=8&participant_ID=5&order=1","3","235","9","2","win","no-go","0"
"pit-trial","216","1049446","0.0-216.0","battery-v0.2","q","elianto","#d1e6df","-1","-1","-1","1","0","[]","0","3&age=8&participant_ID=5&order=1","3","236","11","4","lose","no-go","0"
"pit-trial","217","1054301","0.0-217.0","battery-v0.2","f","elianto","#d1e6df","-1","-1","-1","1","+10","[]","0","3&age=8&participant_ID=5&order=1","3","237","9","2","win","no-go","0"
"pit-trial","218","1059160","0.0-218.0","battery-v0.2","q","elianto","#d1e6df","-1","-1","-1","1","0","[]","0","3&age=8&participant_ID=5&order=1","3","238","11","4","lose","no-go","0"
"pit-trial","219","1064021","0.0-219.0","battery-v0.2","n","elianto","#d1e6df","32","-1","-1","0","0","[]","0","3&age=8&participant_ID=5&order=1","3","239","10","3","lose","go","1"
"pit-trial","220","1068878","0.0-220.0","battery-v0.2","x","elianto","#d1e6df","32","-1","-1","0","0","[]","0","3&age=8&participant_ID=5&order=1","3","240","8","1","win","go","0"
"pit-trial","221","1073734","0.0-221.0","battery-v0.2","q","elianto","#d1e6df","-1","-1","-1","1","-10","[]","0","3&age=8&participant_ID=5&order=1","3","241","11","4","lose","no-go","1"
"pit-trial","222","1078591","0.0-222.0","battery-v0.2","x","elianto","#d1e6df","32","-1","-1","0","+10","[]","0","3&age=8&participant_ID=5&order=1","3","242","8","1","win","go","1"
"pit-trial","223","1083450","0.0-223.0","battery-v0.2","f","elianto","#d1e6df","-1","-1","-1","1","0","[]","0","3&age=8&participant_ID=5&order=1","3","243","9","2","win","no-go","1"
"pit-trial","224","1088308","0.0-224.0","battery-v0.2","n","elianto","#d1e6df","32","-1","-1","0","-10","[]","0","3&age=8&participant_ID=5&order=1","3","244","10","3","lose","go","0"
"pit-trial","225","1093167","0.0-225.0","battery-v0.2","q","elianto","#d1e6df","-1","-1","-1","1","0","[]","0","3&age=8&participant_ID=5&order=1","3","245","11","4","lose","no-go","0"
"pit-trial","226","1098025","0.0-226.0","battery-v0.2","n","elianto","#d1e6df","32","-1","-1","0","-10","[]","0","3&age=8&participant_ID=5&order=1","3","246","10","3","lose","go","0"
"pit-trial","227","1102887","0.0-227.0","battery-v0.2","x","elianto","#d1e6df","32","-1","-1","0","0","[]","0","3&age=8&participant_ID=5&order=1","3","247","8","1","win","go","0"
"pit-trial","228","1107748","0.0-228.0","battery-v0.2","f","elianto","#d1e6df","-1","-1","-1","1","0","[]","0","3&age=8&participant_ID=5&order=1","3","248","9","2","win","no-go","1"
"pit-trial","229","1112603","0.0-229.0","battery-v0.2","f","elianto","#d1e6df","-1","-1","-1","1","0","[]","0","3&age=8&participant_ID=5&order=1","3","249","9","2","win","no-go","1"
"pit-trial","230","1117457","0.0-230.0","battery-v0.2","q","elianto","#d1e6df","-1","-1","-1","1","-10","[]","0","3&age=8&participant_ID=5&order=1","3","250","11","4","lose","no-go","1"
"pit-trial","231","1122314","0.0-231.0","battery-v0.2","n","elianto","#d1e6df","32","-1","-1","0","-10","[]","0","3&age=8&participant_ID=5&order=1","3","251","10","3","lose","go","0"
"pit-trial","232","1127169","0.0-232.0","battery-v0.2","x","elianto","#d1e6df","32","-1","-1","0","0","[]","0","3&age=8&participant_ID=5&order=1","3","252","8","1","win","go","0"
"pit-trial","233","1132027","0.0-233.0","battery-v0.2","q","elianto","#d1e6df","-1","-1","-1","1","0","[]","0","3&age=8&participant_ID=5&order=1","3","253","11","4","lose","no-go","0"
"pit-trial","234","1136885","0.0-234.0","battery-v0.2","f","elianto","#d1e6df","-1","-1","-1","1","0","[]","0","3&age=8&participant_ID=5&order=1","3","254","9","2","win","no-go","1"
"pit-trial","235","1141745","0.0-235.0","battery-v0.2","x","elianto","#d1e6df","32","-1","-1","0","0","[]","0","3&age=8&participant_ID=5&order=1","3","255","8","1","win","go","0"
"pit-trial","236","1146602","0.0-236.0","battery-v0.2","n","elianto","#d1e6df","32","-1","-1","0","-10","[]","0","3&age=8&participant_ID=5&order=1","3","256","10","3","lose","go","0"
"pit-trial","237","1151463","0.0-237.0","battery-v0.2","f","elianto","#d1e6df","-1","-1","-1","1","0","[]","0","3&age=8&participant_ID=5&order=1","3","257","9","2","win","no-go","1"
"pit-trial","238","1156321","0.0-238.0","battery-v0.2","n","elianto","#d1e6df","32","-1","-1","0","0","[]","0","3&age=8&participant_ID=5&order=1","3","258","10","3","lose","go","1"
"pit-trial","239","1161178","0.0-239.0","battery-v0.2","q","elianto","#d1e6df","-1","-1","-1","1","0","[]","0","3&age=8&participant_ID=5&order=1","3","259","11","4","lose","no-go","0"
"pit-trial","240","1166049","0.0-240.0","battery-v0.2","x","elianto","#d1e6df","32","-1","-1","0","0","[]","0","3&age=8&participant_ID=5&order=1","3","260","8","1","win","go","0"
