"trial_type","trial_index","time_elapsed","internal_node_id","task_version","view_history","rt","rune","rune_set","hex","correct","choice","accuracy","outcome","keys","total_keys","block","practice","value","responses","num_errors","sub","trial","stimulus","robot","valence","action","sham"
"pavlovia","0","73","0.0-0.0","battery-v0.2","","","","","","","","","","","","","","","","","","","","","","",""
"pit-instructions","1","62083","0.0-1.0-0.0","battery-v0.2","[{""page_index"":0,""viewing_time"":3079.7099999617785},{""page_index"":1,""viewing_time"":2924.84999995213},{""page_index"":2,""viewing_time"":6093.375000054948},{""page_index"":3,""viewing_time"":3553.19500004407},{""page_index"":4,""viewing_time"":7593.799999915063},{""page_index"":5,""viewing_time"":5043.019999982789},{""page_index"":6,""viewing_time"":6094.040000112727},{""page_index"":7,""viewing_time"":15730.199999990873},{""page_index"":8,""viewing_time"":5970.74999997858},{""page_index"":9,""viewing_time"":5923.59999998007}]","62007.46999995317","","","","","","","","","","","","","","","","","","","","",""
"pit-trial","2","65241","0.0-1.0-1.0-0.0","battery-v0.2","","437.7749999985099","1","elianto","#3366ff99","32","32","1","+10","1937.940000090748","1","0","1","","","","","","","","","",""
"pit-trial","3","69271","0.0-1.0-1.1-0.1","battery-v0.2","","-1","1","elianto","#3366ff99","32","-1","0","+1","","0","0","1","","","","","","","","","",""
"pit-trial","4","72940","0.0-1.0-1.2-0.2","battery-v0.2","","951.3250000309199","1","elianto","#3366ff99","32","32","1","+10","2451.4150000177324","1","0","1","","","","","","","","","",""
"pit-trial","5","76227","0.0-1.0-1.3-0.3","battery-v0.2","","562.184999929741","1","elianto","#3366ff99","32","32","1","+10","2068.6099999584258","1","0","1","","","","","","","","","",""
"pit-trial","6","79218","0.0-1.0-1.4-0.4","battery-v0.2","","263.56999995186925","1","elianto","#3366ff99","32","32","1","+10","1769.869999960065","1","0","1","","","","","","","","","",""
"call-function","7","79225","0.0-1.0-2.0","battery-v0.2","","","","","","","","","","","","","","","","","","","","","","",""
"pit-instructions","8","99267","0.0-1.0-3.0","battery-v0.2","[{""page_index"":0,""viewing_time"":11387.755000032485},{""page_index"":1,""viewing_time"":8655.885000014678}]","20044.304999988526","","","","","","","","","","","","","","","","","","","","",""
"pit-trial","9","102926","0.0-1.0-4.0-0.0","battery-v0.2","","942.8749999497086","2","elianto","#3366ff99","-1","32","0","+1","2443.9349999884143","1","0","2","","","","","","","","","",""
"pit-trial","10","106951","0.0-1.0-4.1-0.1","battery-v0.2","","-1","2","elianto","#3366ff99","-1","-1","1","+10","","0","0","2","","","","","","","","","",""
"pit-trial","11","110975","0.0-1.0-4.2-0.2","battery-v0.2","","-1","2","elianto","#3366ff99","-1","-1","1","+10","","0","0","2","","","","","","","","","",""
"pit-trial","12","115009","0.0-1.0-4.3-0.3","battery-v0.2","","-1","2","elianto","#3366ff99","-1","-1","1","+10","","0","0","2","","","","","","","","","",""
"call-function","13","115020","0.0-1.0-5.0","battery-v0.2","","","","","","","","","","","","","","","","","","","","","","",""
"pit-instructions","14","135580","0.0-1.0-6.0","battery-v0.2","[{""page_index"":0,""viewing_time"":11135.454999981448},{""page_index"":1,""viewing_time"":9423.285000026226}]","20559.314999962226","","","","","","","","","","","","","","","","","","","","",""
"pit-trial","15","139610","0.0-1.0-7.0-0.0","battery-v0.2","","-1","3","elianto","#f73b6a7A","-1","-1","1","-1","","0","0","3","","","","","","","","","",""
"pit-trial","16","143632","0.0-1.0-7.1-0.1","battery-v0.2","","-1","3","elianto","#f73b6a7A","-1","-1","1","-1","","0","0","3","","","","","","","","","",""
"pit-trial","17","147661","0.0-1.0-7.2-0.2","battery-v0.2","","-1","3","elianto","#f73b6a7A","-1","-1","1","-1","","0","0","3","","","","","","","","","",""
"pit-trial","18","151694","0.0-1.0-7.3-0.3","battery-v0.2","","-1","3","elianto","#f73b6a7A","-1","-1","1","-1","","0","0","3","","","","","","","","","",""
"call-function","19","151705","0.0-1.0-8.0","battery-v0.2","","","","","","","","","","","","","","","","","","","","","","",""
"pit-instructions","20","159424","0.0-1.0-9.0","battery-v0.2","[{""page_index"":0,""viewing_time"":2932.550000026822},{""page_index"":1,""viewing_time"":4785.58999998495}]","7718.835000065155","","","","","","","","","","","","","","","","","","","","",""
"pit-trial","21","163451","0.0-1.0-10.0-0.0","battery-v0.2","","-1","4","elianto","#f73b6a7A","32","-1","0","-10","","0","0","4","","","","","","","","","",""
"pit-trial","22","166429","0.0-1.0-10.1-0.1","battery-v0.2","","254.82000003103167","4","elianto","#f73b6a7A","32","32","1","-1","1762.6999999629334","1","0","4","","","","","","","","","",""
"pit-trial","23","169493","0.0-1.0-10.2-0.2","battery-v0.2","","338.50499999243766","4","elianto","#f73b6a7A","32","32","1","-1","1838.7949999887496","1","0","4","","","","","","","","","",""
"pit-trial","24","173196","0.0-1.0-10.3-0.3","battery-v0.2","","985.4049999266863","4","elianto","#f73b6a7A","32","32","1","-1","2486.17499996908","1","0","4","","","","","","","","","",""
"call-function","25","173207","0.0-1.0-11.0","battery-v0.2","","","","","","","","","","","","","","","","","","","","","","",""
"pit-instructions","26","198173","0.0-1.0-12.0","battery-v0.2","[{""page_index"":0,""viewing_time"":9594.795000040904},{""page_index"":1,""viewing_time"":2457.2799999732524},{""page_index"":2,""viewing_time"":3327.9549999861047},{""page_index"":3,""viewing_time"":2247.7100000251085},{""page_index"":4,""viewing_time"":4705.344999907538},{""page_index"":5,""viewing_time"":2631.2250000191852}]","24964.934999938123","","","","","","","","","","","","","","","","","","","","",""
"pit-comprehension","27","216535","0.0-1.0-13.0","battery-v0.2","","18347.40999992937","","","","","","","","","","","","","Press SPACE,+10,-1,True,True","0","","","","","","",""
"pit-instructions","28","222709","0.0-2.0","battery-v0.2","[{""page_index"":0,""viewing_time"":2036.21499997098},{""page_index"":1,""viewing_time"":4119.360000011511}]","6156.2449999619275","","","","","","","","","","","","","","","","","","","","",""
"pit-trial","29","226133","0.0-3.0","battery-v0.2","","685.6649999972433","J","elianto","#f73b6a7A","32","32","1","-10","2192.3299999907613","1","1","","","","","273","1","1","3","lose","go","1"
"pit-trial","30","229395","0.0-4.0","battery-v0.2","","532.1850000182167","D","elianto","#f73b6a7A","-1","32","0","-10","2038.3800000417978","1","1","","","","","273","2","2","4","lose","no-go","0"
"pit-trial","31","232548","0.0-5.0","battery-v0.2","","434.32999996002764","V","elianto","#3366ff99","-1","32","0","+1","1934.6149999182671","1","1","","","","","273","3","0","2","win","no-go","0"
"pit-trial","32","236588","0.0-6.0","battery-v0.2","","-1","K","elianto","#3366ff99","32","-1","0","+10","","0","1","","","","","273","4","3","1","win","go","1"
"pit-trial","33","239955","0.0-7.0","battery-v0.2","","647.0899999840185","D","elianto","#f73b6a7A","-1","32","0","-10","2153.1649999087676","1","1","","","","","273","5","2","4","lose","no-go","0"
"pit-trial","34","243628","0.0-8.0","battery-v0.2","","952.0900000352412","V","elianto","#3366ff99","-1","32","0","+1","2453.6950000328943","1","1","","","","","273","6","0","2","win","no-go","0"
"pit-trial","35","246912","0.0-9.0","battery-v0.2","","562.0199999539182","J","elianto","#f73b6a7A","32","32","1","-1","2064.4549999851733","1","1","","","","","273","7","1","3","lose","go","0"
"pit-trial","36","250945","0.0-10.0","battery-v0.2","","-1","K","elianto","#3366ff99","32","-1","0","+1","","0","1","","","","","273","8","3","1","win","go","0"
"pit-trial","37","254970","0.0-11.0","battery-v0.2","","-1","D","elianto","#f73b6a7A","-1","-1","1","-10","2863.560000085272","1","1","","","","","273","9","2","4","lose","no-go","1"
"pit-trial","38","258988","0.0-12.0","battery-v0.2","","-1","V","elianto","#3366ff99","-1","-1","1","+10","","0","1","","","","","273","10","0","2","win","no-go","0"
"pit-trial","39","263022","0.0-13.0","battery-v0.2","","-1","J","elianto","#f73b6a7A","32","-1","0","-10","","0","1","","","","","273","11","1","3","lose","go","0"
"pit-trial","40","266463","0.0-14.0","battery-v0.2","","715.0350000010803","K","elianto","#3366ff99","32","32","1","+10","2222.9499999666587","1","1","","","","","273","12","3","1","win","go","0"
"pit-trial","41","270249","0.0-15.0","battery-v0.2","","1066.7399999219924","V","elianto","#3366ff99","-1","32","0","+10","2568.7299999408424","1","1","","","","","273","13","0","2","win","no-go","1"
"pit-trial","42","274272","0.0-16.0","battery-v0.2","","-1","J","elianto","#f73b6a7A","32","-1","0","-10","","0","1","","","","","273","14","1","3","lose","go","0"
"pit-trial","43","277998","0.0-17.0","battery-v0.2","","1004.0599999483675","K","elianto","#3366ff99","32","32","1","+10","2509.1550000943244","1","1","","","","","273","15","3","1","win","go","0"
"pit-trial","44","281680","0.0-18.0","battery-v0.2","","952.8799999970943","D","elianto","#f73b6a7A","-1","32","0","-10","2456.45999989938","1","1","","","","","273","16","2","4","lose","no-go","0"
"pit-trial","45","285213","0.0-19.0","battery-v0.2","","809.2999999644235","V","elianto","#3366ff99","-1","32","0","+1","2312.8100000321865","1","1","","","","","273","17","0","2","win","no-go","0"
"pit-trial","46","288665","0.0-20.0","battery-v0.2","","733.3899999503046","K","elianto","#3366ff99","32","32","1","+1","2235.2699999464676","1","1","","","","","273","18","3","1","win","go","1"
"pit-trial","47","292363","0.0-21.0","battery-v0.2","","978.1600000569597","D","elianto","#f73b6a7A","-1","32","0","-1","2480.130000039935","1","1","","","","","273","19","2","4","lose","no-go","1"
"pit-trial","48","296388","0.0-22.0","battery-v0.2","","-1","J","elianto","#f73b6a7A","32","-1","0","-10","","0","1","","","","","273","20","1","3","lose","go","0"
"pit-trial","49","299721","0.0-23.0","battery-v0.2","","613.0799999227747","D","elianto","#f73b6a7A","-1","32","0","-1","2119.2949999822304","1","1","","","","","273","21","2","4","lose","no-go","1"
"pit-trial","50","303754","0.0-24.0","battery-v0.2","","-1","K","elianto","#3366ff99","32","-1","0","+10","","0","1","","","","","273","22","3","1","win","go","1"
"pit-trial","51","307272","0.0-25.0","battery-v0.2","","787.7299999818206","V","elianto","#3366ff99","-1","32","0","+10","2291.990000056103","1","1","","","","","273","23","0","2","win","no-go","1"
"pit-trial","52","311307","0.0-26.0","battery-v0.2","","-1","J","elianto","#f73b6a7A","32","-1","0","-10","","0","1","","","","","273","24","1","3","lose","go","0"
"pit-trial","53","315333","0.0-27.0","battery-v0.2","","-1","K","elianto","#3366ff99","32","-1","0","+1","","0","1","","","","","273","25","3","1","win","go","0"
"pit-trial","54","319348","0.0-28.0","battery-v0.2","","-1","V","elianto","#3366ff99","-1","-1","1","+10","","0","1","","","","","273","26","0","2","win","no-go","0"
"pit-trial","55","322787","0.0-29.0","battery-v0.2","","716.7050000280142","J","elianto","#f73b6a7A","32","32","1","-1","2219.5199999259785","1","1","","","","","273","27","1","3","lose","go","0"
"pit-trial","56","326611","0.0-30.0","battery-v0.2","","1098.2749999966472","D","elianto","#f73b6a7A","-1","32","0","-1","2602.3600000189617","1","1","","","","","273","28","2","4","lose","no-go","1"
"pit-trial","57","330113","0.0-31.0","battery-v0.2","","784.4849999528378","D","elianto","#f73b6a7A","-1","32","0","-1","2288.300000014715","1","1","","","","","273","29","2","4","lose","no-go","1"
"pit-trial","58","334153","0.0-32.0","battery-v0.2","","-1","V","elianto","#3366ff99","-1","-1","1","+10","","0","1","","","","","273","30","0","2","win","no-go","0"
"pit-trial","59","338129","0.0-33.0","battery-v0.2","","1255.6750000221655","J","elianto","#f73b6a7A","32","32","1","-1","2756.1599999899045","1","1","","","","","273","31","1","3","lose","go","0"
"pit-trial","60","342170","0.0-34.0","battery-v0.2","","-1","K","elianto","#3366ff99","32","-1","0","+1","","0","1","","","","","273","32","3","1","win","go","0"
"pit-trial","61","346203","0.0-35.0","battery-v0.2","","-1","J","elianto","#f73b6a7A","32","-1","0","-10","","0","1","","","","","273","33","1","3","lose","go","0"
"pit-trial","62","349852","0.0-36.0","battery-v0.2","","926.4250000705943","E","elianto","#f73b6a7A","32","32","1","-10","2430.874999961816","1","1","","","","","273","34","4","3","lose","go","1"
"pit-trial","63","353888","0.0-37.0","battery-v0.2","","-1","W","elianto","#f73b6a7A","-1","-1","1","-1","","0","1","","","","","273","35","5","4","lose","no-go","0"
"pit-trial","64","357296","0.0-38.0","battery-v0.2","","678.4549999283627","D","elianto","#f73b6a7A","-1","32","0","-1","2184.919999912381","1","1","","","","","273","36","2","4","lose","no-go","1"
"pit-trial","65","360568","0.0-39.0","battery-v0.2","","544.4750000024214","D","elianto","#f73b6a7A","-1","32","0","-10","2046.0500000044703","1","1","","","","","273","37","2","4","lose","no-go","0"
"pit-trial","66","364163","0.0-40.0","battery-v0.2","","872.0749999629334","E","elianto","#f73b6a7A","32","32","1","-10","2378.3950000070035","1","1","","","","","273","38","4","3","lose","go","1"
"pit-trial","67","367552","0.0-41.0","battery-v0.2","","664.1400000080466","W","elianto","#f73b6a7A","-1","32","0","-10","2164.7349999984726","1","1","","","","","273","39","5","4","lose","no-go","0"
"pit-trial","68","371578","0.0-42.0","battery-v0.2","","-1","J","elianto","#f73b6a7A","32","-1","0","-10","","0","1","","","","","273","40","1","3","lose","go","0"
"pit-trial","69","374949","0.0-43.0","battery-v0.2","","651.8299999879673","S","elianto","#3366ff99","-1","32","0","+1","2152.2450000047684","1","1","","","","","273","41","6","2","win","no-go","0"
"pit-trial","70","378987","0.0-44.0","battery-v0.2","","-1","D","elianto","#f73b6a7A","-1","-1","1","-1","","0","1","","","","","273","42","2","4","lose","no-go","0"
"pit-trial","71","383019","0.0-45.0","battery-v0.2","","-1","W","elianto","#f73b6a7A","-1","-1","1","-1","","0","1","","","","","273","43","5","4","lose","no-go","0"
"pit-trial","72","387052","0.0-46.0","battery-v0.2","","-1","E","elianto","#f73b6a7A","32","-1","0","-10","","0","1","","","","","273","44","4","3","lose","go","0"
"pit-trial","73","391080","0.0-47.0","battery-v0.2","","-1","E","elianto","#f73b6a7A","32","-1","0","-10","","0","1","","","","","273","45","4","3","lose","go","0"
"pit-trial","74","394662","0.0-48.0","battery-v0.2","","864.4399999175221","W","elianto","#f73b6a7A","-1","32","0","-10","2364.8449999745935","1","1","","","","","273","46","5","4","lose","no-go","0"
"pit-trial","75","398703","0.0-49.0","battery-v0.2","","-1","D","elianto","#f73b6a7A","-1","-1","1","-1","","0","1","","","","","273","47","2","4","lose","no-go","0"
"pit-trial","76","402727","0.0-50.0","battery-v0.2","","-1","S","elianto","#3366ff99","-1","-1","1","+10","","0","1","","","","","273","48","6","2","win","no-go","0"
"pit-trial","77","406747","0.0-51.0","battery-v0.2","","-1","P","elianto","#3366ff99","32","-1","0","+1","","0","1","","","","","273","49","7","1","win","go","0"
"pit-trial","78","410770","0.0-52.0","battery-v0.2","","-1","E","elianto","#f73b6a7A","32","-1","0","-10","","0","1","","","","","273","50","4","3","lose","go","0"
"pit-trial","79","414803","0.0-53.0","battery-v0.2","","-1","W","elianto","#f73b6a7A","-1","-1","1","-1","","0","1","","","","","273","51","5","4","lose","no-go","0"
"pit-trial","80","418011","0.0-54.0","battery-v0.2","","482.6899999752641","S","elianto","#3366ff99","-1","32","0","+10","1988.6900000274181","1","1","","","","","273","52","6","2","win","no-go","1"
"pit-trial","81","421270","0.0-55.0","battery-v0.2","","540.1899999706075","P","elianto","#3366ff99","32","32","1","+10","2040.789999999106","1","1","","","","","273","53","7","1","win","go","0"
"pit-trial","82","424344","0.0-56.0","battery-v0.2","","344.04500003438443","W","elianto","#f73b6a7A","-1","32","0","-1","1851.4000000432134","1","1","","","","","273","54","5","4","lose","no-go","1"
"pit-trial","83","428099","0.0-57.0","battery-v0.2","","1037.2300000162795","E","elianto","#f73b6a7A","32","32","1","-1","2540.485000004992","1","1","","","","","273","55","4","3","lose","go","0"
"pit-trial","84","431320","0.0-58.0","battery-v0.2","","496.80500000249594","S","elianto","#3366ff99","-1","32","0","+1","2003.0450000194833","1","1","","","","","273","56","6","2","win","no-go","0"
"pit-trial","85","434778","0.0-59.0","battery-v0.2","","736.8150000693277","S","elianto","#3366ff99","-1","32","0","+1","2240.43000000529","1","1","","","","","273","57","6","2","win","no-go","0"
"pit-trial","86","438797","0.0-60.0","battery-v0.2","","-1","W","elianto","#f73b6a7A","-1","-1","1","-1","","0","1","","","","","273","58","5","4","lose","no-go","0"
"pit-trial","87","442811","0.0-61.0","battery-v0.2","","-1","E","elianto","#f73b6a7A","32","-1","0","-10","","0","1","","","","","273","59","4","3","lose","go","0"
"pit-trial","88","446460","0.0-62.0","battery-v0.2","","928.5649999510497","P","elianto","#3366ff99","32","32","1","+10","2431.2199999112636","1","1","","","","","273","60","7","1","win","go","0"
"pit-trial","89","449955","0.0-63.0","battery-v0.2","","777.2399999666959","S","elianto","#3366ff99","-1","32","0","+10","2280.644999933429","1","1","","","","","273","61","6","2","win","no-go","1"
"pit-trial","90","453986","0.0-64.0","battery-v0.2","","-1","E","elianto","#f73b6a7A","32","-1","0","-10","","0","1","","","","","273","62","4","3","lose","go","0"
"pit-trial","91","458018","0.0-65.0","battery-v0.2","","-1","P","elianto","#3366ff99","32","-1","0","+1","2949.305000016466","1","1","","","","","273","63","7","1","win","go","0"
"pit-trial","92","461629","0.0-66.0","battery-v0.2","","889.4699999364093","W","elianto","#f73b6a7A","-1","32","0","-1","2393.7300000106916","1","1","","","","","273","64","5","4","lose","no-go","1"
"pit-trial","93","465127","0.0-67.0","battery-v0.2","","772.3499999847263","P","elianto","#3366ff99","32","32","1","+10","2272.6650000549853","1","1","","","","","273","65","7","1","win","go","0"
"pit-trial","94","469169","0.0-68.0","battery-v0.2","","-1","E","elianto","#f73b6a7A","32","-1","0","-10","","0","1","","","","","273","66","4","3","lose","go","0"
"pit-trial","95","473194","0.0-69.0","battery-v0.2","","-1","W","elianto","#f73b6a7A","-1","-1","1","-1","","0","1","","","","","273","67","5","4","lose","no-go","0"
"pit-trial","96","476403","0.0-70.0","battery-v0.2","","491.52999999932945","S","elianto","#3366ff99","-1","32","0","+1","1995.230000000447","1","1","","","","","273","68","6","2","win","no-go","0"
"pit-trial","97","480436","0.0-71.0","battery-v0.2","","-1","E","elianto","#f73b6a7A","32","-1","0","-10","","0","1","","","","","273","69","4","3","lose","go","0"
"pit-trial","98","484462","0.0-72.0","battery-v0.2","","-1","W","elianto","#f73b6a7A","-1","-1","1","-1","","0","1","","","","","273","70","5","4","lose","no-go","0"
"pit-trial","99","488500","0.0-73.0","battery-v0.2","","-1","P","elianto","#3366ff99","32","-1","0","+1","3000.660000019707","1","1","","","","","273","71","7","1","win","go","0"
"pit-trial","100","492171","0.0-74.0","battery-v0.2","","952.4749999400228","S","elianto","#3366ff99","-1","32","0","+1","2458.900000085123","1","1","","","","","273","72","6","2","win","no-go","0"
"pit-trial","101","495350","0.0-75.0","battery-v0.2","","459.21000000089407","S","elianto","#3366ff99","-1","32","0","+1","1964.5899999886751","1","1","","","","","273","73","6","2","win","no-go","0"
"pit-trial","102","498753","0.0-76.0","battery-v0.2","","680.3350000409409","G","elianto","#3366ff99","32","32","1","+10","2186.3349999766797","1","1","","","","","273","74","8","1","win","go","0"
"pit-trial","103","501966","0.0-77.0","battery-v0.2","","492.99499997869134","P","elianto","#3366ff99","32","32","1","+10","1999.2150000762194","1","1","","","","","273","75","7","1","win","go","0"
"pit-trial","104","505997","0.0-78.0","battery-v0.2","","-1","E","elianto","#f73b6a7A","32","-1","0","-10","","0","1","","","","","273","76","4","3","lose","go","0"
"pit-trial","105","510028","0.0-79.0","battery-v0.2","","-1","G","elianto","#3366ff99","32","-1","0","+10","","0","1","","","","","273","77","8","1","win","go","1"
"pit-trial","106","514058","0.0-80.0","battery-v0.2","","-1","S","elianto","#3366ff99","-1","-1","1","+10","","0","1","","","","","273","78","6","2","win","no-go","0"
"pit-trial","107","518094","0.0-81.0","battery-v0.2","","-1","E","elianto","#f73b6a7A","32","-1","0","-1","","0","1","","","","","273","79","4","3","lose","go","1"
"pit-trial","108","522124","0.0-82.0","battery-v0.2","","-1","P","elianto","#3366ff99","32","-1","0","+10","","0","1","","","","","273","80","7","1","win","go","1"
"pit-trial","109","526165","0.0-83.0","battery-v0.2","","-1","A","elianto","#3366ff99","-1","-1","1","+10","","0","1","","","","","273","81","9","2","win","no-go","0"
"pit-trial","110","530198","0.0-84.0","battery-v0.2","","-1","G","elianto","#3366ff99","32","-1","0","+10","","0","1","","","","","273","82","8","1","win","go","1"
"pit-trial","111","534224","0.0-85.0","battery-v0.2","","-1","S","elianto","#3366ff99","-1","-1","1","+10","","0","1","","","","","273","83","6","2","win","no-go","0"
"pit-trial","112","538040","0.0-86.0","battery-v0.2","","1091.9099999591708","P","elianto","#3366ff99","32","32","1","+10","2592.4749999539927","1","1","","","","","273","84","7","1","win","go","0"
"pit-trial","113","541359","0.0-87.0","battery-v0.2","","595.3549999976531","P","elianto","#3366ff99","32","32","1","+1","2096.2999999755993","1","1","","","","","273","85","7","1","win","go","1"
"pit-trial","114","545390","0.0-88.0","battery-v0.2","","-1","A","elianto","#3366ff99","-1","-1","1","+10","","0","1","","","","","273","86","9","2","win","no-go","0"
"pit-trial","115","549413","0.0-89.0","battery-v0.2","","-1","G","elianto","#3366ff99","32","-1","0","+1","","0","1","","","","","273","87","8","1","win","go","0"
"pit-trial","116","553440","0.0-90.0","battery-v0.2","","-1","S","elianto","#3366ff99","-1","-1","1","+10","","0","1","","","","","273","88","6","2","win","no-go","0"
"pit-trial","117","557013","0.0-91.0","battery-v0.2","","846.7899999814108","L","elianto","#f73b6a7A","32","32","1","-1","2347.5150000303984","1","1","","","","","273","89","10","3","lose","go","0"
"pit-trial","118","560423","0.0-92.0","battery-v0.2","","682.024999987334","G","elianto","#3366ff99","32","32","1","+10","2188.5800000745803","1","1","","","","","273","90","8","1","win","go","0"
"pit-trial","119","564444","0.0-93.0","battery-v0.2","","-1","A","elianto","#3366ff99","-1","-1","1","+10","","0","1","","","","","273","91","9","2","win","no-go","0"
"pit-trial","120","568012","0.0-94.0","battery-v0.2","","850.6449999986216","U","elianto","#f73b6a7A","-1","32","0","-10","2350.925000035204","1","1","","","","","273","92","11","4","lose","no-go","0"
"pit-trial","121","572051","0.0-95.0","battery-v0.2","","-1","U","elianto","#f73b6a7A","-1","-1","1","-1","","0","1","","","","","273","93","11","4","lose","no-go","0"
"pit-trial","122","575397","0.0-96.0","battery-v0.2","","625.3599999472499","G","elianto","#3366ff99","32","32","1","+10","2132.880000048317","1","1","","","","","273","94","8","1","win","go","0"
"pit-trial","123","579434","0.0-97.0","battery-v0.2","","-1","A","elianto","#3366ff99","-1","-1","1","+10","","0","1","","","","","273","95","9","2","win","no-go","0"
"pit-trial","124","583084","0.0-98.0","battery-v0.2","","921.0599999642","L","elianto","#f73b6a7A","32","32","1","-1","2425.1599999843165","1","1","","","","","273","96","10","3","lose","go","0"
"pit-trial","125","586676","0.0-99.0","battery-v0.2","","866.8349999934435","L","elianto","#f73b6a7A","32","32","1","-1","2369.524999987334","1","1","","","","","273","97","10","3","lose","go","0"
"pit-trial","126","590710","0.0-100.0","battery-v0.2","","-1","A","elianto","#3366ff99","-1","-1","1","+10","","0","1","","","","","273","98","9","2","win","no-go","0"
"pit-trial","127","594226","0.0-101.0","battery-v0.2","","792.2650000546128","G","elianto","#3366ff99","32","32","1","+10","2292.989999987185","1","1","","","","","273","99","8","1","win","go","0"
"pit-trial","128","598267","0.0-102.0","battery-v0.2","","-1","U","elianto","#f73b6a7A","-1","-1","1","-1","","0","1","","","","","273","100","11","4","lose","no-go","0"
"pit-trial","129","601658","0.0-103.0","battery-v0.2","","663.4149999590591","L","elianto","#f73b6a7A","32","32","1","-1","2166.5299999294803","1","1","","","","","273","101","10","3","lose","go","0"
"pit-trial","130","604863","0.0-104.0","battery-v0.2","","482.5000000419095","G","elianto","#3366ff99","32","32","1","+10","1984.2349999817088","1","1","","","","","273","102","8","1","win","go","0"
"pit-trial","131","608895","0.0-105.0","battery-v0.2","","-1","U","elianto","#f73b6a7A","-1","-1","1","-1","","0","1","","","","","273","103","11","4","lose","no-go","0"
"pit-trial","132","612935","0.0-106.0","battery-v0.2","","-1","A","elianto","#3366ff99","-1","-1","1","+10","","0","1","","","","","273","104","9","2","win","no-go","0"
"pit-trial","133","616460","0.0-107.0","battery-v0.2","","797.8250000160187","G","elianto","#3366ff99","32","32","1","+10","2300.4499999806285","1","1","","","","","273","105","8","1","win","go","0"
"pit-trial","134","620479","0.0-108.0","battery-v0.2","","-1","A","elianto","#3366ff99","-1","-1","1","+10","","0","1","","","","","273","106","9","2","win","no-go","0"
"pit-trial","135","624044","0.0-109.0","battery-v0.2","","843.5699999099597","L","elianto","#f73b6a7A","32","32","1","-10","2343.680000049062","1","1","","","","","273","107","10","3","lose","go","1"
"pit-trial","136","628076","0.0-110.0","battery-v0.2","","-1","U","elianto","#f73b6a7A","-1","-1","1","-1","","0","1","","","","","273","108","11","4","lose","no-go","0"
"pit-trial","137","632097","0.0-111.0","battery-v0.2","","-1","U","elianto","#f73b6a7A","-1","-1","1","-10","","0","1","","","","","273","109","11","4","lose","no-go","1"
"pit-trial","138","635815","0.0-112.0","battery-v0.2","","995.0449999887496","G","elianto","#3366ff99","32","32","1","+10","2500.7400000467896","1","1","","","","","273","110","8","1","win","go","0"
"pit-trial","139","639843","0.0-113.0","battery-v0.2","","-1","A","elianto","#3366ff99","-1","-1","1","+1","","0","1","","","","","273","111","9","2","win","no-go","1"
"pit-trial","140","643575","0.0-114.0","battery-v0.2","","1008.8949999772012","L","elianto","#f73b6a7A","32","32","1","-1","2509.9249999038875","1","1","","","","","273","112","10","3","lose","go","0"
"pit-trial","141","647617","0.0-115.0","battery-v0.2","","-1","L","elianto","#f73b6a7A","32","-1","0","-10","","0","1","","","","","273","113","10","3","lose","go","0"
"pit-trial","142","651650","0.0-116.0","battery-v0.2","","-1","A","elianto","#3366ff99","-1","-1","1","+10","","0","1","","","","","273","114","9","2","win","no-go","0"
"pit-trial","143","655002","0.0-117.0","battery-v0.2","","622.6100000785664","G","elianto","#3366ff99","32","32","1","+10","2125.3499999875203","1","1","","","","","273","115","8","1","win","go","0"
"pit-trial","144","659034","0.0-118.0","battery-v0.2","","-1","U","elianto","#f73b6a7A","-1","-1","1","-1","","0","1","","","","","273","116","11","4","lose","no-go","0"
"pit-trial","145","662285","0.0-119.0","battery-v0.2","","536.1999999731779","G","elianto","#3366ff99","32","32","1","+10","2039.2449999926612","1","1","","","","","273","117","8","1","win","go","0"
"pit-trial","146","666310","0.0-120.0","battery-v0.2","","-1","U","elianto","#f73b6a7A","-1","-1","1","-1","","0","1","","","","","273","118","11","4","lose","no-go","0"
"pit-trial","147","670328","0.0-121.0","battery-v0.2","","-1","A","elianto","#3366ff99","-1","-1","1","+10","","0","1","","","","","273","119","9","2","win","no-go","0"
"pit-trial","148","673765","0.0-122.0","battery-v0.2","","722.8650000179186","L","elianto","#f73b6a7A","32","32","1","-1","2223.3349999878556","1","1","","","","","273","120","10","3","lose","go","0"
"pit-instructions","149","708848","0.0-123.0","battery-v0.2","[{""page_index"":0,""viewing_time"":4726.250000065193},{""page_index"":1,""viewing_time"":30350.2950000111}]","35077.35000003595","","","","","","","","","","","","","","","","","","","","",""
"pit-trial","150","712892","0.0-124.0","battery-v0.2","","-1","N","elianto","#3366ff99","-1","-1","1","+10","","0","2","","","","","273","121","1","2","win","no-go","0"
"pit-trial","151","716925","0.0-125.0","battery-v0.2","","-1","Q","elianto","#3366ff99","-1","-1","1","+1","","0","2","","","","","273","122","0","2","win","no-go","1"
"pit-trial","152","720966","0.0-126.0","battery-v0.2","","-1","F","elianto","#3366ff99","32","-1","0","+1","","0","2","","","","","273","123","2","1","win","go","0"
"pit-trial","153","724381","0.0-127.0","battery-v0.2","","693.8949999166653","X","elianto","#f73b6a7A","32","32","1","-1","2198.0050000129268","1","2","","","","","273","124","3","3","lose","go","0"
"pit-trial","154","728417","0.0-128.0","battery-v0.2","","-1","N","elianto","#3366ff99","-1","-1","1","+10","","0","2","","","","","273","125","1","2","win","no-go","0"
"pit-trial","155","731898","0.0-129.0","battery-v0.2","","761.545000015758","F","elianto","#3366ff99","32","32","1","+10","2264.0500001143664","1","2","","","","","273","126","2","1","win","go","0"
"pit-trial","156","735533","0.0-130.0","battery-v0.2","","903.2900000456721","Q","elianto","#3366ff99","-1","32","0","+1","2409.459999995306","1","2","","","","","273","127","0","2","win","no-go","0"
"pit-trial","157","739332","0.0-131.0","battery-v0.2","","1069.715000106953","X","elianto","#f73b6a7A","32","32","1","-1","2572.029999922961","1","2","","","","","273","128","3","3","lose","go","0"
"pit-trial","158","743366","0.0-132.0","battery-v0.2","","-1","N","elianto","#3366ff99","-1","-1","1","+10","","0","2","","","","","273","129","1","2","win","no-go","0"
"pit-trial","159","746628","0.0-133.0","battery-v0.2","","546.6749999905005","Q","elianto","#3366ff99","-1","32","0","+10","2046.864999923855","1","2","","","","","273","130","0","2","win","no-go","1"
"pit-trial","160","749924","0.0-134.0","battery-v0.2","","565.7549999887124","F","elianto","#3366ff99","32","32","1","+10","2073.8150000106543","1","2","","","","","273","131","2","1","win","go","0"
"pit-trial","161","753234","0.0-135.0","battery-v0.2","","591.5250000543892","X","elianto","#f73b6a7A","32","32","1","-1","2092.8850000491366","1","2","","","","","273","132","3","3","lose","go","0"
"pit-trial","162","756670","0.0-136.0","battery-v0.2","","727.5949999457225","X","elianto","#f73b6a7A","32","32","1","-1","2228.720000013709","1","2","","","","","273","133","3","3","lose","go","0"
"pit-trial","163","760026","0.0-137.0","battery-v0.2","","629.6299999812618","Q","elianto","#3366ff99","-1","32","0","+1","2132.4499999172986","1","2","","","","","273","134","0","2","win","no-go","0"
"pit-trial","164","764059","0.0-138.0","battery-v0.2","","-1","N","elianto","#3366ff99","-1","-1","1","+10","","0","2","","","","","273","135","1","2","win","no-go","0"
"pit-trial","165","767493","0.0-139.0","battery-v0.2","","701.0800000280142","F","elianto","#3366ff99","32","32","1","+10","2208.450000034645","1","2","","","","","273","136","2","1","win","go","0"
"pit-trial","166","771263","0.0-140.0","battery-v0.2","","1044.6099999826401","X","elianto","#f73b6a7A","32","32","1","-10","2549.820000072941","1","2","","","","","273","137","3","3","lose","go","1"
"pit-trial","167","774674","0.0-141.0","battery-v0.2","","693.0300000822172","F","elianto","#3366ff99","32","32","1","+10","2193.1900000199676","1","2","","","","","273","138","2","1","win","go","0"
"pit-trial","168","778184","0.0-142.0","battery-v0.2","","777.4849999696016","Q","elianto","#3366ff99","-1","32","0","+1","2282.3649999918416","1","2","","","","","273","139","0","2","win","no-go","0"
"pit-trial","169","782226","0.0-143.0","battery-v0.2","","-1","N","elianto","#3366ff99","-1","-1","1","+10","","0","2","","","","","273","140","1","2","win","no-go","0"
"pit-trial","170","785602","0.0-144.0","battery-v0.2","","645.1549999183044","X","elianto","#f73b6a7A","32","32","1","-1","2150.5299999844283","1","2","","","","","273","141","3","3","lose","go","0"
"pit-trial","171","788944","0.0-145.0","battery-v0.2","","614.7900000214577","F","elianto","#3366ff99","32","32","1","+10","2116.5299999993294","1","2","","","","","273","142","2","1","win","go","0"
"pit-trial","172","792969","0.0-146.0","battery-v0.2","","-1","N","elianto","#3366ff99","-1","-1","1","+10","","0","2","","","","","273","143","1","2","win","no-go","0"
"pit-trial","173","796638","0.0-147.0","battery-v0.2","","950.5300000309944","Q","elianto","#3366ff99","-1","32","0","+1","2451.924999943003","1","2","","","","","273","144","0","2","win","no-go","0"
"pit-trial","174","800670","0.0-148.0","battery-v0.2","","-1","N","elianto","#3366ff99","-1","-1","1","+10","","0","2","","","","","273","145","1","2","win","no-go","0"
"pit-trial","175","804703","0.0-149.0","battery-v0.2","","-1","Q","elianto","#3366ff99","-1","-1","1","+1","","0","2","","","","","273","146","0","2","win","no-go","1"
"pit-trial","176","808269","0.0-150.0","battery-v0.2","","838.8399999821559","X","elianto","#f73b6a7A","32","32","1","-10","2341.8100000126287","1","2","","","","","273","147","3","3","lose","go","1"
"pit-trial","177","811774","0.0-151.0","battery-v0.2","","777.0899999886751","F","elianto","#3366ff99","32","32","1","+10","2279.270000057295","1","2","","","","","273","148","2","1","win","go","0"
"pit-trial","178","814971","0.0-152.0","battery-v0.2","","471.2899998994544","Q","elianto","#3366ff99","-1","32","0","+1","1977.58999990765","1","2","","","","","273","149","0","2","win","no-go","0"
"pit-trial","179","819011","0.0-153.0","battery-v0.2","","-1","X","elianto","#f73b6a7A","32","-1","0","-10","","0","2","","","","","273","150","3","3","lose","go","0"
"pit-trial","180","822954","0.0-154.0","battery-v0.2","","1215.0050000054762","N","elianto","#3366ff99","-1","32","0","+1","2716.9749999884516","1","2","","","","","273","151","1","2","win","no-go","0"
"pit-trial","181","826263","0.0-155.0","battery-v0.2","","582.0450000464916","F","elianto","#3366ff99","32","32","1","+1","2082.159999990836","1","2","","","","","273","152","2","1","win","go","1"
"pit-trial","182","829880","0.0-156.0","battery-v0.2","","888.7400000821799","Q","elianto","#3366ff99","-1","32","0","+1","2394.9850000208244","1","2","","","","","273","153","0","2","win","no-go","0"
"pit-trial","183","833505","0.0-157.0","battery-v0.2","","904.244999983348","T","elianto","#f73b6a7A","-1","32","0","-10","2407.61500003282","1","2","","","","","273","154","4","4","lose","no-go","0"
"pit-trial","184","837529","0.0-158.0","battery-v0.2","","-1","B","elianto","#f73b6a7A","32","-1","0","-10","","0","2","","","","","273","155","5","3","lose","go","0"
"pit-trial","185","841112","0.0-159.0","battery-v0.2","","866.4700000081211","F","elianto","#3366ff99","32","32","1","+10","2367.1249999897555","1","2","","","","","273","156","2","1","win","go","0"
"pit-trial","186","844454","0.0-160.0","battery-v0.2","","614.7049999563023","B","elianto","#f73b6a7A","32","32","1","-10","2123.230000026524","1","2","","","","","273","157","5","3","lose","go","1"
"pit-trial","187","848060","0.0-161.0","battery-v0.2","","888.829999952577","F","elianto","#3366ff99","32","32","1","+10","2389.7649999707937","1","2","","","","","273","158","2","1","win","go","0"
"pit-trial","188","852093","0.0-162.0","battery-v0.2","","-1","T","elianto","#f73b6a7A","-1","-1","1","-1","","0","2","","","","","273","159","4","4","lose","no-go","0"
"pit-trial","189","855398","0.0-163.0","battery-v0.2","","580.7599999243394","Q","elianto","#3366ff99","-1","32","0","+1","2081.7449999740347,2268.2950000744313","2","2","","","","","273","160","0","2","win","no-go","0"
"pit-trial","190","859005","0.0-164.0","battery-v0.2","","888.234999962151","C","elianto","#3366ff99","-1","32","0","+1","2390.639999997802","1","2","","","","","273","161","6","2","win","no-go","0"
"pit-trial","191","863030","0.0-165.0","battery-v0.2","","-1","T","elianto","#f73b6a7A","-1","-1","1","-1","","0","2","","","","","273","162","4","4","lose","no-go","0"
"pit-trial","192","866639","0.0-166.0","battery-v0.2","","886.519999941811","B","elianto","#f73b6a7A","32","32","1","-1","2390.8949999604374","1","2","","","","","273","163","5","3","lose","go","0"
"pit-trial","193","870078","0.0-167.0","battery-v0.2","","714.68500001356","F","elianto","#3366ff99","32","32","1","+10","2215.684999944642","1","2","","","","","273","164","2","1","win","go","0"
"pit-trial","194","873640","0.0-168.0","battery-v0.2","","844.9450000189245","B","elianto","#f73b6a7A","32","32","1","-1","2346.4699999894947","1","2","","","","","273","165","5","3","lose","go","0"
"pit-trial","195","876979","0.0-169.0","battery-v0.2","","622.8750000009313","F","elianto","#3366ff99","32","32","1","+10","2124.8100000666454","1","2","","","","","273","166","2","1","win","go","0"
"pit-trial","196","881014","0.0-170.0","battery-v0.2","","-1","C","elianto","#3366ff99","-1","-1","1","+10","","0","2","","","","","273","167","6","2","win","no-go","0"
"pit-trial","197","885047","0.0-171.0","battery-v0.2","","-1","T","elianto","#f73b6a7A","-1","-1","1","-1","","0","2","","","","","273","168","4","4","lose","no-go","0"
"pit-trial","198","889075","0.0-172.0","battery-v0.2","","-1","B","elianto","#f73b6a7A","32","-1","0","-10","","0","2","","","","","273","169","5","3","lose","go","0"
"pit-trial","199","893106","0.0-173.0","battery-v0.2","","-1","Z","elianto","#f73b6a7A","-1","-1","1","-1","","0","2","","","","","273","170","7","4","lose","no-go","0"
"pit-trial","200","897130","0.0-174.0","battery-v0.2","","-1","C","elianto","#3366ff99","-1","-1","1","+10","","0","2","","","","","273","171","6","2","win","no-go","0"
"pit-trial","201","901160","0.0-175.0","battery-v0.2","","-1","T","elianto","#f73b6a7A","-1","-1","1","-1","","0","2","","","","","273","172","4","4","lose","no-go","0"
"pit-trial","202","905197","0.0-176.0","battery-v0.2","","-1","C","elianto","#3366ff99","-1","-1","1","+1","","0","2","","","","","273","173","6","2","win","no-go","1"
"pit-trial","203","909227","0.0-177.0","battery-v0.2","","-1","T","elianto","#f73b6a7A","-1","-1","1","-1","","0","2","","","","","273","174","4","4","lose","no-go","0"
"pit-trial","204","912875","0.0-178.0","battery-v0.2","","916.7550000129268","B","elianto","#f73b6a7A","32","32","1","-10","2427.365000010468","1","2","","","","","273","175","5","3","lose","go","1"
"pit-trial","205","916914","0.0-179.0","battery-v0.2","","-1","Z","elianto","#f73b6a7A","-1","-1","1","-1","","0","2","","","","","273","176","7","4","lose","no-go","0"
"pit-trial","206","920940","0.0-180.0","battery-v0.2","","-1","C","elianto","#3366ff99","-1","-1","1","+10","","0","2","","","","","273","177","6","2","win","no-go","0"
"pit-trial","207","924980","0.0-181.0","battery-v0.2","","-1","T","elianto","#f73b6a7A","-1","-1","1","-1","","0","2","","","","","273","178","4","4","lose","no-go","0"
"pit-trial","208","928472","0.0-182.0","battery-v0.2","","764.0550000360236","B","elianto","#f73b6a7A","32","32","1","-1","2270.6750000361353","1","2","","","","","273","179","5","3","lose","go","0"
"pit-trial","209","932506","0.0-183.0","battery-v0.2","","-1","Z","elianto","#f73b6a7A","-1","-1","1","-1","","0","2","","","","","273","180","7","4","lose","no-go","0"
"pit-trial","210","936475","0.0-184.0","battery-v0.2","","1249.8999999370426","B","elianto","#f73b6a7A","32","32","1","-1","2754.289999953471","1","2","","","","","273","181","5","3","lose","go","0"
"pit-trial","211","940514","0.0-185.0","battery-v0.2","","-1","Z","elianto","#f73b6a7A","-1","-1","1","-1","","0","2","","","","","273","182","7","4","lose","no-go","0"
"pit-trial","212","944547","0.0-186.0","battery-v0.2","","-1","C","elianto","#3366ff99","-1","-1","1","+10","","0","2","","","","","273","183","6","2","win","no-go","0"
"pit-trial","213","948575","0.0-187.0","battery-v0.2","","-1","T","elianto","#f73b6a7A","-1","-1","1","-1","","0","2","","","","","273","184","4","4","lose","no-go","0"
"pit-trial","214","952608","0.0-188.0","battery-v0.2","","-1","C","elianto","#3366ff99","-1","-1","1","+1","","0","2","","","","","273","185","6","2","win","no-go","1"
"pit-trial","215","956648","0.0-189.0","battery-v0.2","","-1","T","elianto","#f73b6a7A","-1","-1","1","-1","","0","2","","","","","273","186","4","4","lose","no-go","0"
"pit-trial","216","960144","0.0-190.0","battery-v0.2","","777.8099999995902","B","elianto","#f73b6a7A","32","32","1","-1","2278.509999974631","1","2","","","","","273","187","5","3","lose","go","0"
"pit-trial","217","964175","0.0-191.0","battery-v0.2","","-1","Z","elianto","#f73b6a7A","-1","-1","1","-1","","0","2","","","","","273","188","7","4","lose","no-go","0"
"pit-trial","218","968190","0.0-192.0","battery-v0.2","","-1","T","elianto","#f73b6a7A","-1","-1","1","-1","","0","2","","","","","273","189","4","4","lose","no-go","0"
"pit-trial","219","971595","0.0-193.0","battery-v0.2","","677.4100000038743","B","elianto","#f73b6a7A","32","32","1","-1","2177.73999995552","1","2","","","","","273","190","5","3","lose","go","0"
"pit-trial","220","974842","0.0-194.0","battery-v0.2","","524.4599999859929","C","elianto","#3366ff99","-1","32","0","+1","2030.6499999715015","1","2","","","","","273","191","6","2","win","no-go","0"
"pit-trial","221","978881","0.0-195.0","battery-v0.2","","-1","Z","elianto","#f73b6a7A","-1","-1","1","-1","","0","2","","","","","273","192","7","4","lose","no-go","0"
"pit-trial","222","982909","0.0-196.0","battery-v0.2","","-1","Z","elianto","#f73b6a7A","-1","-1","1","-1","","0","2","","","","","273","193","7","4","lose","no-go","0"
"pit-trial","223","986509","0.0-197.0","battery-v0.2","","880.5849999189377","C","elianto","#3366ff99","-1","32","0","+1","2382.424999959767","1","2","","","","","273","194","6","2","win","no-go","0"
"pit-trial","224","990446","0.0-198.0","battery-v0.2","","1206.884999992326","B","elianto","#f73b6a7A","32","32","1","-1","2710.770000005141","1","2","","","","","273","195","5","3","lose","go","0"
"pit-trial","225","994474","0.0-199.0","battery-v0.2","","-1","H","elianto","#f73b6a7A","-1","-1","1","-1","","0","2","","","","","273","196","8","4","lose","no-go","0"
"pit-trial","226","998516","0.0-200.0","battery-v0.2","","-1","H","elianto","#f73b6a7A","-1","-1","1","-1","","0","2","","","","","273","197","8","4","lose","no-go","0"
"pit-trial","227","1001910","0.0-201.0","battery-v0.2","","667.9999999469146","C","elianto","#3366ff99","-1","32","0","+1","2169.4700000807643","1","2","","","","","273","198","6","2","win","no-go","0"
"pit-trial","228","1005945","0.0-202.0","battery-v0.2","","-1","B","elianto","#f73b6a7A","32","-1","0","-10","2904.4749999884516","1","2","","","","","273","199","5","3","lose","go","0"
"pit-trial","229","1009972","0.0-203.0","battery-v0.2","","-1","Z","elianto","#f73b6a7A","-1","-1","1","-1","","0","2","","","","","273","200","7","4","lose","no-go","0"
"pit-trial","230","1014014","0.0-204.0","battery-v0.2","","-1","H","elianto","#f73b6a7A","-1","-1","1","-1","","0","2","","","","","273","201","8","4","lose","no-go","0"
"pit-trial","231","1017246","0.0-205.0","battery-v0.2","","512.165000080131","C","elianto","#3366ff99","-1","32","0","+1","2014.9950000923127","1","2","","","","","273","202","6","2","win","no-go","0"
"pit-trial","232","1021279","0.0-206.0","battery-v0.2","","-1","R","elianto","#f73b6a7A","32","-1","0","-10","","0","2","","","","","273","203","10","3","lose","go","0"
"pit-trial","233","1025314","0.0-207.0","battery-v0.2","","-1","Y","elianto","#3366ff99","32","-1","0","+1","","0","2","","","","","273","204","9","1","win","go","0"
"pit-trial","234","1028738","0.0-208.0","battery-v0.2","","695.5799999414012","C","elianto","#3366ff99","-1","32","0","+10","2198.050000006333","1","2","","","","","273","205","6","2","win","no-go","1"
"pit-trial","235","1031906","0.0-209.0","battery-v0.2","","443.2449999731034","Y","elianto","#3366ff99","32","32","1","+10","1946.1750000482425","1","2","","","","","273","206","9","1","win","go","0"
"pit-trial","236","1035289","0.0-210.0","battery-v0.2","","660.7950000325218","R","elianto","#f73b6a7A","32","32","1","-1","2161.1549999797717","1","2","","","","","273","207","10","3","lose","go","0"
"pit-trial","237","1039331","0.0-211.0","battery-v0.2","","-1","H","elianto","#f73b6a7A","-1","-1","1","-1","","0","2","","","","","273","208","8","4","lose","no-go","0"
"pit-trial","238","1043356","0.0-212.0","battery-v0.2","","-1","M","elianto","#3366ff99","32","-1","0","+1","","0","2","","","","","273","209","11","1","win","go","0"
"pit-trial","239","1046724","0.0-213.0","battery-v0.2","","649.9799999874085","Y","elianto","#3366ff99","32","32","1","+10","2150.8100000210106","1","2","","","","","273","210","9","1","win","go","0"
"pit-trial","240","1050764","0.0-214.0","battery-v0.2","","-1","H","elianto","#f73b6a7A","-1","-1","1","-1","","0","2","","","","","273","211","8","4","lose","no-go","0"
"pit-trial","241","1054735","0.0-215.0","battery-v0.2","","1238.759999978356","R","elianto","#f73b6a7A","32","32","1","-10","2742.3849999904633","1","2","","","","","273","212","10","3","lose","go","1"
"pit-trial","242","1058765","0.0-216.0","battery-v0.2","","-1","R","elianto","#f73b6a7A","32","-1","0","-10","","0","2","","","","","273","213","10","3","lose","go","0"
"pit-trial","243","1062797","0.0-217.0","battery-v0.2","","-1","H","elianto","#f73b6a7A","-1","-1","1","-1","","0","2","","","","","273","214","8","4","lose","no-go","0"
"pit-trial","244","1066322","0.0-218.0","battery-v0.2","","796.2449999758974","Y","elianto","#3366ff99","32","32","1","+10","2300.1449999865144","1","2","","","","","273","215","9","1","win","go","0"
"pit-trial","245","1070172","0.0-219.0","battery-v0.2","","1126.410000026226","M","elianto","#3366ff99","32","32","1","+10","2629.714999930002","1","2","","","","","273","216","11","1","win","go","0"
"pit-trial","246","1073880","0.0-220.0","battery-v0.2","","987.7450000494719","R","elianto","#f73b6a7A","32","32","1","-10","2489.4550000317395","1","2","","","","","273","217","10","3","lose","go","1"
"pit-trial","247","1077745","0.0-221.0","battery-v0.2","","1140.4549999861047","Y","elianto","#3366ff99","32","32","1","+10","2648.3550000702962","1","2","","","","","273","218","9","1","win","go","0"
"pit-trial","248","1081771","0.0-222.0","battery-v0.2","","-1","M","elianto","#3366ff99","32","-1","0","+1","2894.9099999153987","1","2","","","","","273","219","11","1","win","go","0"
"pit-trial","249","1085798","0.0-223.0","battery-v0.2","","-1","H","elianto","#f73b6a7A","-1","-1","1","-1","","0","2","","","","","273","220","8","4","lose","no-go","0"
"pit-trial","250","1089823","0.0-224.0","battery-v0.2","","-1","H","elianto","#f73b6a7A","-1","-1","1","-1","","0","2","","","","","273","221","8","4","lose","no-go","0"
"pit-trial","251","1093690","0.0-225.0","battery-v0.2","","1149.5050000958145","R","elianto","#f73b6a7A","32","32","1","-1","2650.0600000144914","1","2","","","","","273","222","10","3","lose","go","0"
"pit-trial","252","1097155","0.0-226.0","battery-v0.2","","740.4800000367686","M","elianto","#3366ff99","32","32","1","+1","2241.355000063777","1","2","","","","","273","223","11","1","win","go","1"
"pit-trial","253","1100673","0.0-227.0","battery-v0.2","","792.3200000077486","Y","elianto","#3366ff99","32","32","1","+10","2293.9799999585375","1","2","","","","","273","224","9","1","win","go","0"
"pit-trial","254","1104066","0.0-228.0","battery-v0.2","","667.9450001101941","Y","elianto","#3366ff99","32","32","1","+10","2170.6549999071285","1","2","","","","","273","225","9","1","win","go","0"
"pit-trial","255","1107525","0.0-229.0","battery-v0.2","","734.6449999604374","M","elianto","#3366ff99","32","32","1","+10","2240.330000058748","1","2","","","","","273","226","11","1","win","go","0"
"pit-trial","256","1111548","0.0-230.0","battery-v0.2","","-1","R","elianto","#f73b6a7A","32","-1","0","-10","","0","2","","","","","273","227","10","3","lose","go","0"
"pit-trial","257","1115582","0.0-231.0","battery-v0.2","","-1","H","elianto","#f73b6a7A","-1","-1","1","-1","","0","2","","","","","273","228","8","4","lose","no-go","0"
"pit-trial","258","1119607","0.0-232.0","battery-v0.2","","-1","R","elianto","#f73b6a7A","32","-1","0","-10","","0","2","","","","","273","229","10","3","lose","go","0"
"pit-trial","259","1122876","0.0-233.0","battery-v0.2","","547.9350000387058","M","elianto","#3366ff99","32","32","1","+10","1051.6100000822917,2048.120000050403","2","2","","","","","273","230","11","1","win","go","0"
"pit-trial","260","1126913","0.0-234.0","battery-v0.2","","-1","H","elianto","#f73b6a7A","-1","-1","1","-1","","0","2","","","","","273","231","8","4","lose","no-go","0"
"pit-trial","261","1130337","0.0-235.0","battery-v0.2","","692.5650000339374","Y","elianto","#3366ff99","32","32","1","+10","2199.0950000472367","1","2","","","","","273","232","9","1","win","go","0"
"pit-trial","262","1133760","0.0-236.0","battery-v0.2","","704.3100000591949","M","elianto","#3366ff99","32","32","1","+10","2206.1749999411404","1","2","","","","","273","233","11","1","win","go","0"
"pit-trial","263","1137538","0.0-237.0","battery-v0.2","","1058.7700000032783","R","elianto","#f73b6a7A","32","32","1","-1","2559.0249999659136","1","2","","","","","273","234","10","3","lose","go","0"
"pit-trial","264","1140789","0.0-238.0","battery-v0.2","","533.0649999668822","Y","elianto","#3366ff99","32","32","1","+10","2034.0600000927225","1","2","","","","","273","235","9","1","win","go","0"
"pit-trial","265","1144822","0.0-239.0","battery-v0.2","","-1","H","elianto","#f73b6a7A","-1","-1","1","-10","","0","2","","","","","273","236","8","4","lose","no-go","1"
"pit-trial","266","1148863","0.0-240.0","battery-v0.2","","-1","H","elianto","#f73b6a7A","-1","-1","1","-1","","0","2","","","","","273","237","8","4","lose","no-go","0"
"pit-trial","267","1152421","0.0-241.0","battery-v0.2","","833.3400000119582","M","elianto","#3366ff99","32","32","1","+1","2336.349999997765","1","2","","","","","273","238","11","1","win","go","1"
"pit-trial","268","1156042","0.0-242.0","battery-v0.2","","906.2200000043958","Y","elianto","#3366ff99","32","32","1","+1","2407.589999958873","1","2","","","","","273","239","9","1","win","go","1"
"pit-trial","269","1160074","0.0-243.0","battery-v0.2","","-1","R","elianto","#f73b6a7A","32","-1","0","-1","","0","2","","","","","273","240","10","3","lose","go","1"
