"trial_type","trial_index","time_elapsed","internal_node_id","task_version","success","view_history","rt","rune","rune_set","hex","correct","choice","accuracy","outcome","keys","total_keys","block","practice","subject","participantId","value","responses","num_errors","sub","trial","stimulus","robot","valence","action","sham"
"pavlovia","0","8","0.0-0.0","battery-v0.2","","","","","","","","","","","","","","","","","","","","","","","","","",""
"fullscreen","1","2883","0.0-1.0","battery-v0.2","true","","","","","","","","","","","","","","","","","","","","","","","","",""
"pit-instructions","2","58744","0.0-2.0-0.0","battery-v0.2","","[{""page_index"":0,""viewing_time"":1965},{""page_index"":1,""viewing_time"":3968},{""page_index"":2,""viewing_time"":5073},{""page_index"":3,""viewing_time"":4502},{""page_index"":4,""viewing_time"":2241},{""page_index"":5,""viewing_time"":1848},{""page_index"":6,""viewing_time"":2504},{""page_index"":7,""viewing_time"":2679},{""page_index"":8,""viewing_time"":1192},{""page_index"":9,""viewing_time"":3489},{""page_index"":10,""viewing_time"":1063},{""page_index"":11,""viewing_time"":664},{""page_index"":12,""viewing_time"":919},{""page_index"":13,""viewing_time"":5202},{""page_index"":14,""viewing_time"":9518},{""page_index"":15,""viewing_time"":2096},{""page_index"":16,""viewing_time"":3224},{""page_index"":17,""viewing_time"":3712}]","55859","","","","","","","","","","","","","","","","","","","","","","",""
"pit-trial","3","62239","0.0-2.0-1.0-0.0","battery-v0.2","","","642","&#9776;","elianto","#3366ff99","32","32","1","+10","1492","1","0","1","5dd311f27aa0d6327c0a2bdd&order=1&STUDY_ID=61caf85b4892b889f6411591","999","","","","","","","","","",""
"pit-trial","4","65589","0.0-2.0-1.0-1.0","battery-v0.2","","","497","&#9776;","elianto","#3366ff99","32","32","1","+10","1348","1","0","1","5dd311f27aa0d6327c0a2bdd&order=1&STUDY_ID=61caf85b4892b889f6411591","999","","","","","","","","","",""
"pit-trial","5","68860","0.0-2.0-1.0-2.0","battery-v0.2","","","419","&#9776;","elianto","#3366ff99","32","32","1","+10","1269","1","0","1","5dd311f27aa0d6327c0a2bdd&order=1&STUDY_ID=61caf85b4892b889f6411591","999","","","","","","","","","",""
"pit-trial","6","72150","0.0-2.0-1.0-3.0","battery-v0.2","","","439","&#9776;","elianto","#3366ff99","32","32","1","0","1290","1","0","1","5dd311f27aa0d6327c0a2bdd&order=1&STUDY_ID=61caf85b4892b889f6411591","999","","","","","","","","","",""
"pit-trial","7","75470","0.0-2.0-1.0-4.0","battery-v0.2","","","465","&#9776;","elianto","#3366ff99","32","32","1","+10","1316","1","0","1","5dd311f27aa0d6327c0a2bdd&order=1&STUDY_ID=61caf85b4892b889f6411591","999","","","","","","","","","",""
"call-function","8","75474","0.0-2.0-2.0","battery-v0.2","","","","","","","","","","","","","","","","","","","","","","","","","",""
"pit-instructions","9","89198","0.0-2.0-3.0","battery-v0.2","","[{""page_index"":0,""viewing_time"":4562},{""page_index"":1,""viewing_time"":2496},{""page_index"":2,""viewing_time"":2505},{""page_index"":3,""viewing_time"":4159}]","13722","","","","","","","","","","","","","","","","","","","","","","",""
"pit-trial","10","92518","0.0-2.0-4.0-0.0","battery-v0.2","","","466","&#9761;","elianto","#3366ff99","-1","32","0","0","1317","1","0","2","5dd311f27aa0d6327c0a2bdd&order=1&STUDY_ID=61caf85b4892b889f6411591","999","","","","","","","","","",""
"pit-trial","11","95857","0.0-2.0-4.0-1.0","battery-v0.2","","","486","&#9761;","elianto","#3366ff99","-1","32","0","0","1337","1","0","2","5dd311f27aa0d6327c0a2bdd&order=1&STUDY_ID=61caf85b4892b889f6411591","999","","","","","","","","","",""
"pit-trial","12","100709","0.0-2.0-4.0-2.0","battery-v0.2","","","-1","&#9761;","elianto","#3366ff99","-1","-1","1","+10","","0","0","2","5dd311f27aa0d6327c0a2bdd&order=1&STUDY_ID=61caf85b4892b889f6411591","999","","","","","","","","","",""
"pit-trial","13","103992","0.0-2.0-4.0-3.0","battery-v0.2","","","430","&#9761;","elianto","#3366ff99","-1","32","0","0","1281","1","0","2","5dd311f27aa0d6327c0a2bdd&order=1&STUDY_ID=61caf85b4892b889f6411591","999","","","","","","","","","",""
"pit-trial","14","108844","0.0-2.0-4.0-4.0","battery-v0.2","","","-1","&#9761;","elianto","#3366ff99","-1","-1","1","0","","0","0","2","5dd311f27aa0d6327c0a2bdd&order=1&STUDY_ID=61caf85b4892b889f6411591","999","","","","","","","","","",""
"pit-trial","15","112252","0.0-2.0-4.1-0.1","battery-v0.2","","","555","&#9761;","elianto","#3366ff99","-1","32","0","0","1406","1","0","2","5dd311f27aa0d6327c0a2bdd&order=1&STUDY_ID=61caf85b4892b889f6411591","999","","","","","","","","","",""
"pit-trial","16","117107","0.0-2.0-4.1-1.1","battery-v0.2","","","-1","&#9761;","elianto","#3366ff99","-1","-1","1","+10","","0","0","2","5dd311f27aa0d6327c0a2bdd&order=1&STUDY_ID=61caf85b4892b889f6411591","999","","","","","","","","","",""
"pit-trial","17","121961","0.0-2.0-4.1-2.1","battery-v0.2","","","-1","&#9761;","elianto","#3366ff99","-1","-1","1","+10","","0","0","2","5dd311f27aa0d6327c0a2bdd&order=1&STUDY_ID=61caf85b4892b889f6411591","999","","","","","","","","","",""
"pit-trial","18","125376","0.0-2.0-4.1-3.1","battery-v0.2","","","560","&#9761;","elianto","#3366ff99","-1","32","0","0","1412","1","0","2","5dd311f27aa0d6327c0a2bdd&order=1&STUDY_ID=61caf85b4892b889f6411591","999","","","","","","","","","",""
"pit-trial","19","130229","0.0-2.0-4.1-4.1","battery-v0.2","","","-1","&#9761;","elianto","#3366ff99","-1","-1","1","0","","0","0","2","5dd311f27aa0d6327c0a2bdd&order=1&STUDY_ID=61caf85b4892b889f6411591","999","","","","","","","","","",""
"pit-trial","20","133991","0.0-2.0-4.2-0.2","battery-v0.2","","","906","&#9761;","elianto","#3366ff99","-1","32","0","0","1758","1","0","2","5dd311f27aa0d6327c0a2bdd&order=1&STUDY_ID=61caf85b4892b889f6411591","999","","","","","","","","","",""
"pit-trial","21","137198","0.0-2.0-4.2-1.2","battery-v0.2","","","352","&#9761;","elianto","#3366ff99","-1","32","0","0","1203","1","0","2","5dd311f27aa0d6327c0a2bdd&order=1&STUDY_ID=61caf85b4892b889f6411591","999","","","","","","","","","",""
"pit-trial","22","140898","0.0-2.0-4.2-2.2","battery-v0.2","","","847","&#9761;","elianto","#3366ff99","-1","32","0","0","1698","1","0","2","5dd311f27aa0d6327c0a2bdd&order=1&STUDY_ID=61caf85b4892b889f6411591","999","","","","","","","","","",""
"pit-trial","23","145748","0.0-2.0-4.2-3.2","battery-v0.2","","","-1","&#9761;","elianto","#3366ff99","-1","-1","1","+10","","0","0","2","5dd311f27aa0d6327c0a2bdd&order=1&STUDY_ID=61caf85b4892b889f6411591","999","","","","","","","","","",""
"pit-trial","24","149362","0.0-2.0-4.2-4.2","battery-v0.2","","","763","&#9761;","elianto","#3366ff99","-1","32","0","+10","1613","1","0","2","5dd311f27aa0d6327c0a2bdd&order=1&STUDY_ID=61caf85b4892b889f6411591","999","","","","","","","","","",""
"pit-trial","25","153175","0.0-2.0-4.3-0.3","battery-v0.2","","","962","&#9761;","elianto","#3366ff99","-1","32","0","0","1812","1","0","2","5dd311f27aa0d6327c0a2bdd&order=1&STUDY_ID=61caf85b4892b889f6411591","999","","","","","","","","","",""
"pit-trial","26","158026","0.0-2.0-4.3-1.3","battery-v0.2","","","-1","&#9761;","elianto","#3366ff99","-1","-1","1","+10","","0","0","2","5dd311f27aa0d6327c0a2bdd&order=1&STUDY_ID=61caf85b4892b889f6411591","999","","","","","","","","","",""
"pit-trial","27","162877","0.0-2.0-4.3-2.3","battery-v0.2","","","-1","&#9761;","elianto","#3366ff99","-1","-1","1","+10","","0","0","2","5dd311f27aa0d6327c0a2bdd&order=1&STUDY_ID=61caf85b4892b889f6411591","999","","","","","","","","","",""
"pit-trial","28","167728","0.0-2.0-4.3-3.3","battery-v0.2","","","-1","&#9761;","elianto","#3366ff99","-1","-1","1","+10","","0","0","2","5dd311f27aa0d6327c0a2bdd&order=1&STUDY_ID=61caf85b4892b889f6411591","999","","","","","","","","","",""
"pit-trial","29","172581","0.0-2.0-4.3-4.3","battery-v0.2","","","-1","&#9761;","elianto","#3366ff99","-1","-1","1","0","","0","0","2","5dd311f27aa0d6327c0a2bdd&order=1&STUDY_ID=61caf85b4892b889f6411591","999","","","","","","","","","",""
"call-function","30","172582","0.0-2.0-5.0","battery-v0.2","","","","","","","","","","","","","","","","","","","","","","","","","",""
"pit-instructions","31","180697","0.0-2.0-6.0","battery-v0.2","","[{""page_index"":0,""viewing_time"":4956},{""page_index"":1,""viewing_time"":3159}]","8115","","","","","","","","","","","","","","","","","","","","","","",""
"pit-trial","32","185553","0.0-2.0-7.0-0.0","battery-v0.2","","","-1","&#9826;","elianto","#f73b6a7A","-1","-1","1","0","","0","0","3","5dd311f27aa0d6327c0a2bdd&order=1&STUDY_ID=61caf85b4892b889f6411591","999","","","","","","","","","",""
"pit-trial","33","190405","0.0-2.0-7.0-1.0","battery-v0.2","","","-1","&#9826;","elianto","#f73b6a7A","-1","-1","1","0","","0","0","3","5dd311f27aa0d6327c0a2bdd&order=1&STUDY_ID=61caf85b4892b889f6411591","999","","","","","","","","","",""
"pit-trial","34","193777","0.0-2.0-7.0-2.0","battery-v0.2","","","518","&#9826;","elianto","#f73b6a7A","-1","32","0","0","1369","1","0","3","5dd311f27aa0d6327c0a2bdd&order=1&STUDY_ID=61caf85b4892b889f6411591","999","","","","","","","","","",""
"pit-trial","35","198632","0.0-2.0-7.0-3.0","battery-v0.2","","","-1","&#9826;","elianto","#f73b6a7A","-1","-1","1","0","","0","0","3","5dd311f27aa0d6327c0a2bdd&order=1&STUDY_ID=61caf85b4892b889f6411591","999","","","","","","","","","",""
"pit-trial","36","203487","0.0-2.0-7.0-4.0","battery-v0.2","","","-1","&#9826;","elianto","#f73b6a7A","-1","-1","1","0","","0","0","3","5dd311f27aa0d6327c0a2bdd&order=1&STUDY_ID=61caf85b4892b889f6411591","999","","","","","","","","","",""
"pit-trial","37","206799","0.0-2.0-7.1-0.1","battery-v0.2","","","458","&#9826;","elianto","#f73b6a7A","-1","32","0","-10","1309","1","0","3","5dd311f27aa0d6327c0a2bdd&order=1&STUDY_ID=61caf85b4892b889f6411591","999","","","","","","","","","",""
"pit-trial","38","211652","0.0-2.0-7.1-1.1","battery-v0.2","","","-1","&#9826;","elianto","#f73b6a7A","-1","-1","1","0","","0","0","3","5dd311f27aa0d6327c0a2bdd&order=1&STUDY_ID=61caf85b4892b889f6411591","999","","","","","","","","","",""
"pit-trial","39","214946","0.0-2.0-7.1-2.1","battery-v0.2","","","440","&#9826;","elianto","#f73b6a7A","-1","32","0","0","1291","1","0","3","5dd311f27aa0d6327c0a2bdd&order=1&STUDY_ID=61caf85b4892b889f6411591","999","","","","","","","","","",""
"pit-trial","40","219798","0.0-2.0-7.1-3.1","battery-v0.2","","","-1","&#9826;","elianto","#f73b6a7A","-1","-1","1","0","","0","0","3","5dd311f27aa0d6327c0a2bdd&order=1&STUDY_ID=61caf85b4892b889f6411591","999","","","","","","","","","",""
"pit-trial","41","224653","0.0-2.0-7.1-4.1","battery-v0.2","","","-1","&#9826;","elianto","#f73b6a7A","-1","-1","1","0","","0","0","3","5dd311f27aa0d6327c0a2bdd&order=1&STUDY_ID=61caf85b4892b889f6411591","999","","","","","","","","","",""
"pit-trial","42","229504","0.0-2.0-7.2-0.2","battery-v0.2","","","-1","&#9826;","elianto","#f73b6a7A","-1","-1","1","0","","0","0","3","5dd311f27aa0d6327c0a2bdd&order=1&STUDY_ID=61caf85b4892b889f6411591","999","","","","","","","","","",""
"pit-trial","43","234356","0.0-2.0-7.2-1.2","battery-v0.2","","","-1","&#9826;","elianto","#f73b6a7A","-1","-1","1","0","","0","0","3","5dd311f27aa0d6327c0a2bdd&order=1&STUDY_ID=61caf85b4892b889f6411591","999","","","","","","","","","",""
"pit-trial","44","239206","0.0-2.0-7.2-2.2","battery-v0.2","","","-1","&#9826;","elianto","#f73b6a7A","-1","-1","1","-10","","0","0","3","5dd311f27aa0d6327c0a2bdd&order=1&STUDY_ID=61caf85b4892b889f6411591","999","","","","","","","","","",""
"pit-trial","45","242671","0.0-2.0-7.2-3.2","battery-v0.2","","","613","&#9826;","elianto","#f73b6a7A","-1","32","0","-10","1464","1","0","3","5dd311f27aa0d6327c0a2bdd&order=1&STUDY_ID=61caf85b4892b889f6411591","999","","","","","","","","","",""
"pit-trial","46","247522","0.0-2.0-7.2-4.2","battery-v0.2","","","-1","&#9826;","elianto","#f73b6a7A","-1","-1","1","0","","0","0","3","5dd311f27aa0d6327c0a2bdd&order=1&STUDY_ID=61caf85b4892b889f6411591","999","","","","","","","","","",""
"pit-trial","47","252374","0.0-2.0-7.3-0.3","battery-v0.2","","","-1","&#9826;","elianto","#f73b6a7A","-1","-1","1","0","","0","0","3","5dd311f27aa0d6327c0a2bdd&order=1&STUDY_ID=61caf85b4892b889f6411591","999","","","","","","","","","",""
"pit-trial","48","255482","0.0-2.0-7.3-1.3","battery-v0.2","","","256","&#9826;","elianto","#f73b6a7A","-1","32","0","-10","1107","1","0","3","5dd311f27aa0d6327c0a2bdd&order=1&STUDY_ID=61caf85b4892b889f6411591","999","","","","","","","","","",""
"pit-trial","49","260334","0.0-2.0-7.3-2.3","battery-v0.2","","","-1","&#9826;","elianto","#f73b6a7A","-1","-1","1","-10","","0","0","3","5dd311f27aa0d6327c0a2bdd&order=1&STUDY_ID=61caf85b4892b889f6411591","999","","","","","","","","","",""
"pit-trial","50","265185","0.0-2.0-7.3-3.3","battery-v0.2","","","-1","&#9826;","elianto","#f73b6a7A","-1","-1","1","0","","0","0","3","5dd311f27aa0d6327c0a2bdd&order=1&STUDY_ID=61caf85b4892b889f6411591","999","","","","","","","","","",""
"pit-trial","51","270038","0.0-2.0-7.3-4.3","battery-v0.2","","","-1","&#9826;","elianto","#f73b6a7A","-1","-1","1","0","","0","0","3","5dd311f27aa0d6327c0a2bdd&order=1&STUDY_ID=61caf85b4892b889f6411591","999","","","","","","","","","",""
"call-function","52","270039","0.0-2.0-8.0","battery-v0.2","","","","","","","","","","","","","","","","","","","","","","","","","",""
"pit-instructions","53","277635","0.0-2.0-9.0","battery-v0.2","","[{""page_index"":0,""viewing_time"":3733},{""page_index"":1,""viewing_time"":3863}]","7596","","","","","","","","","","","","","","","","","","","","","","",""
"pit-trial","54","282489","0.0-2.0-10.0-0.0","battery-v0.2","","","-1","&#9789;","elianto","#f73b6a7A","32","-1","0","-10","","0","0","4","5dd311f27aa0d6327c0a2bdd&order=1&STUDY_ID=61caf85b4892b889f6411591","999","","","","","","","","","",""
"pit-trial","55","287342","0.0-2.0-10.0-1.0","battery-v0.2","","","-1","&#9789;","elianto","#f73b6a7A","32","-1","0","-10","","0","0","4","5dd311f27aa0d6327c0a2bdd&order=1&STUDY_ID=61caf85b4892b889f6411591","999","","","","","","","","","",""
"pit-trial","56","290616","0.0-2.0-10.0-2.0","battery-v0.2","","","419","&#9789;","elianto","#f73b6a7A","32","32","1","0","1271","1","0","4","5dd311f27aa0d6327c0a2bdd&order=1&STUDY_ID=61caf85b4892b889f6411591","999","","","","","","","","","",""
"pit-trial","57","295467","0.0-2.0-10.0-3.0","battery-v0.2","","","-1","&#9789;","elianto","#f73b6a7A","32","-1","0","-10","","0","0","4","5dd311f27aa0d6327c0a2bdd&order=1&STUDY_ID=61caf85b4892b889f6411591","999","","","","","","","","","",""
"pit-trial","58","300320","0.0-2.0-10.0-4.0","battery-v0.2","","","-1","&#9789;","elianto","#f73b6a7A","32","-1","0","0","","0","0","4","5dd311f27aa0d6327c0a2bdd&order=1&STUDY_ID=61caf85b4892b889f6411591","999","","","","","","","","","",""
"pit-trial","59","305171","0.0-2.0-10.1-0.1","battery-v0.2","","","-1","&#9789;","elianto","#f73b6a7A","32","-1","0","-10","","0","0","4","5dd311f27aa0d6327c0a2bdd&order=1&STUDY_ID=61caf85b4892b889f6411591","999","","","","","","","","","",""
"pit-trial","60","310022","0.0-2.0-10.1-1.1","battery-v0.2","","","-1","&#9789;","elianto","#f73b6a7A","32","-1","0","-10","","0","0","4","5dd311f27aa0d6327c0a2bdd&order=1&STUDY_ID=61caf85b4892b889f6411591","999","","","","","","","","","",""
"pit-trial","61","314875","0.0-2.0-10.1-2.1","battery-v0.2","","","-1","&#9789;","elianto","#f73b6a7A","32","-1","0","-10","2913","1","0","4","5dd311f27aa0d6327c0a2bdd&order=1&STUDY_ID=61caf85b4892b889f6411591","999","","","","","","","","","",""
"pit-trial","62","319725","0.0-2.0-10.1-3.1","battery-v0.2","","","-1","&#9789;","elianto","#f73b6a7A","32","-1","0","-10","","0","0","4","5dd311f27aa0d6327c0a2bdd&order=1&STUDY_ID=61caf85b4892b889f6411591","999","","","","","","","","","",""
"pit-trial","63","324577","0.0-2.0-10.1-4.1","battery-v0.2","","","-1","&#9789;","elianto","#f73b6a7A","32","-1","0","0","","0","0","4","5dd311f27aa0d6327c0a2bdd&order=1&STUDY_ID=61caf85b4892b889f6411591","999","","","","","","","","","",""
"pit-trial","64","328042","0.0-2.0-10.2-0.2","battery-v0.2","","","612","&#9789;","elianto","#f73b6a7A","32","32","1","0","1462","1","0","4","5dd311f27aa0d6327c0a2bdd&order=1&STUDY_ID=61caf85b4892b889f6411591","999","","","","","","","","","",""
"pit-trial","65","332893","0.0-2.0-10.2-1.2","battery-v0.2","","","-1","&#9789;","elianto","#f73b6a7A","32","-1","0","-10","","0","0","4","5dd311f27aa0d6327c0a2bdd&order=1&STUDY_ID=61caf85b4892b889f6411591","999","","","","","","","","","",""
"pit-trial","66","337745","0.0-2.0-10.2-2.2","battery-v0.2","","","-1","&#9789;","elianto","#f73b6a7A","32","-1","0","-10","","0","0","4","5dd311f27aa0d6327c0a2bdd&order=1&STUDY_ID=61caf85b4892b889f6411591","999","","","","","","","","","",""
"pit-trial","67","342596","0.0-2.0-10.2-3.2","battery-v0.2","","","-1","&#9789;","elianto","#f73b6a7A","32","-1","0","-10","","0","0","4","5dd311f27aa0d6327c0a2bdd&order=1&STUDY_ID=61caf85b4892b889f6411591","999","","","","","","","","","",""
"pit-trial","68","346142","0.0-2.0-10.2-4.2","battery-v0.2","","","694","&#9789;","elianto","#f73b6a7A","32","32","1","-10","1544","1","0","4","5dd311f27aa0d6327c0a2bdd&order=1&STUDY_ID=61caf85b4892b889f6411591","999","","","","","","","","","",""
"pit-trial","69","350997","0.0-2.0-10.3-0.3","battery-v0.2","","","-1","&#9789;","elianto","#f73b6a7A","32","-1","0","-10","","0","0","4","5dd311f27aa0d6327c0a2bdd&order=1&STUDY_ID=61caf85b4892b889f6411591","999","","","","","","","","","",""
"pit-trial","70","355849","0.0-2.0-10.3-1.3","battery-v0.2","","","-1","&#9789;","elianto","#f73b6a7A","32","-1","0","-10","","0","0","4","5dd311f27aa0d6327c0a2bdd&order=1&STUDY_ID=61caf85b4892b889f6411591","999","","","","","","","","","",""
"pit-trial","71","360700","0.0-2.0-10.3-2.3","battery-v0.2","","","-1","&#9789;","elianto","#f73b6a7A","32","-1","0","-10","","0","0","4","5dd311f27aa0d6327c0a2bdd&order=1&STUDY_ID=61caf85b4892b889f6411591","999","","","","","","","","","",""
"pit-trial","72","365552","0.0-2.0-10.3-3.3","battery-v0.2","","","-1","&#9789;","elianto","#f73b6a7A","32","-1","0","-10","","0","0","4","5dd311f27aa0d6327c0a2bdd&order=1&STUDY_ID=61caf85b4892b889f6411591","999","","","","","","","","","",""
"pit-trial","73","370403","0.0-2.0-10.3-4.3","battery-v0.2","","","-1","&#9789;","elianto","#f73b6a7A","32","-1","0","0","","0","0","4","5dd311f27aa0d6327c0a2bdd&order=1&STUDY_ID=61caf85b4892b889f6411591","999","","","","","","","","","",""
"pit-trial","74","375254","0.0-2.0-10.4-0.4","battery-v0.2","","","-1","&#9789;","elianto","#f73b6a7A","32","-1","0","-10","","0","0","4","5dd311f27aa0d6327c0a2bdd&order=1&STUDY_ID=61caf85b4892b889f6411591","999","","","","","","","","","",""
"pit-trial","75","378579","0.0-2.0-10.4-1.4","battery-v0.2","","","473","&#9789;","elianto","#f73b6a7A","32","32","1","0","1323","1","0","4","5dd311f27aa0d6327c0a2bdd&order=1&STUDY_ID=61caf85b4892b889f6411591","999","","","","","","","","","",""
"pit-trial","76","382876","0.0-2.0-10.4-2.4","battery-v0.2","","","1445","&#9789;","elianto","#f73b6a7A","32","32","1","0","2295","1","0","4","5dd311f27aa0d6327c0a2bdd&order=1&STUDY_ID=61caf85b4892b889f6411591","999","","","","","","","","","",""
"pit-trial","77","386620","0.0-2.0-10.4-3.4","battery-v0.2","","","892","&#9789;","elianto","#f73b6a7A","32","32","1","0","1742","1","0","4","5dd311f27aa0d6327c0a2bdd&order=1&STUDY_ID=61caf85b4892b889f6411591","999","","","","","","","","","",""
"pit-trial","78","390114","0.0-2.0-10.4-4.4","battery-v0.2","","","643","&#9789;","elianto","#f73b6a7A","32","32","1","-10","1492","1","0","4","5dd311f27aa0d6327c0a2bdd&order=1&STUDY_ID=61caf85b4892b889f6411591","999","","","","","","","","","",""
"pit-instructions","79","403501","0.0-2.0-10.4-5.4-0.4","battery-v0.2","","[{""page_index"":0,""viewing_time"":4106},{""page_index"":1,""viewing_time"":4249},{""page_index"":2,""viewing_time"":5031}]","13386","","","","","","","","","","","","","","","","","","","","","","",""
"call-function","80","403502","0.0-2.0-11.0","battery-v0.2","","","","","","","","","","","","","","","","","","","","","","","","","",""
"pit-instructions","81","428116","0.0-2.0-12.0","battery-v0.2","","[{""page_index"":0,""viewing_time"":5496},{""page_index"":1,""viewing_time"":8824},{""page_index"":2,""viewing_time"":6062},{""page_index"":3,""viewing_time"":2447},{""page_index"":4,""viewing_time"":1784}]","24613","","","","","","","","","","","","","","","","","","","","","","",""
"pit-comprehension","82","433328","0.0-2.0-13.0-0.0","battery-v0.2","","","5210","","","","","","","","","","","","","","","SPACE","0","","","","","","",""
"pit-instructions","83","434499","0.0-2.0-13.0-1.0","battery-v0.2","","[{""page_index"":0,""viewing_time"":1156}]","1157","","","","","","","","","","","","","","","","","","","","","","",""
"pit-comprehension","84","442916","0.0-2.0-14.0-0.0","battery-v0.2","","","8415","","","","","","","","","","","","","","","10","0","","","","","","",""
"pit-instructions","85","443779","0.0-2.0-14.0-1.0","battery-v0.2","","[{""page_index"":0,""viewing_time"":848}]","848","","","","","","","","","","","","","","","","","","","","","","",""
"pit-comprehension","86","448084","0.0-2.0-15.0-0.0","battery-v0.2","","","4304","","","","","","","","","","","","","","","-10","1","","","","","","",""
"pit-instructions","87","456923","0.0-2.0-15.0-1.0","battery-v0.2","","[{""page_index"":0,""viewing_time"":8816}]","8817","","","","","","","","","","","","","","","","","","","","","","",""
"pit-instructions","88","457714","0.0-2.0-15.0-2.0-0.0","battery-v0.2","","[{""page_index"":0,""viewing_time"":789}]","789","","","","","","","","","","","","","","","","","","","","","","",""
"pit-comprehension","89","464077","0.0-2.0-15.1-0.1","battery-v0.2","","","6358","","","","","","","","","","","","","","","0","0","","","","","","",""
"pit-instructions","90","464882","0.0-2.0-15.1-1.1","battery-v0.2","","[{""page_index"":0,""viewing_time"":774}]","774","","","","","","","","","","","","","","","","","","","","","","",""
"pit-comprehension","91","485482","0.0-2.0-16.0-0.0","battery-v0.2","","","20598","","","","","","","","","","","","","","","False","1","","","","","","",""
"pit-instructions","92","491088","0.0-2.0-16.0-1.0","battery-v0.2","","[{""page_index"":0,""viewing_time"":5591}]","5591","","","","","","","","","","","","","","","","","","","","","","",""
"pit-instructions","93","491848","0.0-2.0-16.0-2.0-0.0","battery-v0.2","","[{""page_index"":0,""viewing_time"":759}]","759","","","","","","","","","","","","","","","","","","","","","","",""
"pit-comprehension","94","500737","0.0-2.0-16.1-0.1","battery-v0.2","","","8887","","","","","","","","","","","","","","","True","0","","","","","","",""
"pit-instructions","95","501503","0.0-2.0-16.1-1.1","battery-v0.2","","[{""page_index"":0,""viewing_time"":752}]","752","","","","","","","","","","","","","","","","","","","","","","",""
"pit-comprehension","96","513720","0.0-2.0-17.0-0.0","battery-v0.2","","","12215","","","","","","","","","","","","","","","True","0","","","","","","",""
"pit-instructions","97","514455","0.0-2.0-17.0-1.0","battery-v0.2","","[{""page_index"":0,""viewing_time"":719}]","719","","","","","","","","","","","","","","","","","","","","","","",""
"pit-comprehension","98","518896","0.0-2.0-18.0-0.0","battery-v0.2","","","4440","","","","","","","","","","","","","","","True","0","","","","","","",""
"pit-instructions","99","519623","0.0-2.0-18.0-1.0","battery-v0.2","","[{""page_index"":0,""viewing_time"":711}]","711","","","","","","","","","","","","","","","","","","","","","","",""
"pit-instructions","100","525214","0.0-3.0","battery-v0.2","","[{""page_index"":0,""viewing_time"":1071},{""page_index"":1,""viewing_time"":1576},{""page_index"":2,""viewing_time"":2944}]","5591","","","","","","","","","","","","","","","","","","","","","","",""
"pit-trial","101","528860","0.0-4.0","battery-v0.2","","","791","&#9733;","elianto","#3366ff99","-1","32","0","0","1644","1","1","","","","","","","5dd311f27aa0d6327c0a2bdd&order=1&STUDY_ID=61caf85b4892b889f6411591","1","2","2","win","no-go","0"
"pit-trial","102","532345","0.0-5.0","battery-v0.2","","","630","&#9752;","elianto","#f73b6a7A","32","32","1","-10","1481","1","1","","","","","","","5dd311f27aa0d6327c0a2bdd&order=1&STUDY_ID=61caf85b4892b889f6411591","2","3","3","lose","go","1"
"pit-trial","103","535901","0.0-6.0","battery-v0.2","","","702","&#9730;","elianto","#3366ff99","32","32","1","+10","1554","1","1","","","","","","","5dd311f27aa0d6327c0a2bdd&order=1&STUDY_ID=61caf85b4892b889f6411591","3","1","1","win","go","0"
"pit-trial","104","539518","0.0-7.0","battery-v0.2","","","762","&#9728;","elianto","#f73b6a7A","-1","32","0","-10","1615","1","1","","","","","","","5dd311f27aa0d6327c0a2bdd&order=1&STUDY_ID=61caf85b4892b889f6411591","4","0","4","lose","no-go","0"
"pit-trial","105","544370","0.0-8.0","battery-v0.2","","","-1","&#9752;","elianto","#f73b6a7A","32","-1","0","-10","","0","1","","","","","","","5dd311f27aa0d6327c0a2bdd&order=1&STUDY_ID=61caf85b4892b889f6411591","5","3","3","lose","go","0"
"pit-trial","106","549225","0.0-9.0","battery-v0.2","","","-1","&#9728;","elianto","#f73b6a7A","-1","-1","1","0","","0","1","","","","","","","5dd311f27aa0d6327c0a2bdd&order=1&STUDY_ID=61caf85b4892b889f6411591","6","0","4","lose","no-go","0"
"pit-trial","107","552653","0.0-10.0","battery-v0.2","","","573","&#9730;","elianto","#3366ff99","32","32","1","+10","1424","1","1","","","","","","","5dd311f27aa0d6327c0a2bdd&order=1&STUDY_ID=61caf85b4892b889f6411591","7","1","1","win","go","0"
"pit-trial","108","556130","0.0-11.0","battery-v0.2","","","622","&#9733;","elianto","#3366ff99","-1","32","0","0","1474","1","1","","","","","","","5dd311f27aa0d6327c0a2bdd&order=1&STUDY_ID=61caf85b4892b889f6411591","8","2","2","win","no-go","0"
"pit-trial","109","559570","0.0-12.0","battery-v0.2","","","586","&#9730;","elianto","#3366ff99","32","32","1","+10","1438","1","1","","","","","","","5dd311f27aa0d6327c0a2bdd&order=1&STUDY_ID=61caf85b4892b889f6411591","9","1","1","win","go","0"
"pit-trial","110","563534","0.0-13.0","battery-v0.2","","","1110","&#9752;","elianto","#f73b6a7A","32","32","1","0","1962","1","1","","","","","","","5dd311f27aa0d6327c0a2bdd&order=1&STUDY_ID=61caf85b4892b889f6411591","10","3","3","lose","go","0"
"pit-trial","111","567126","0.0-14.0","battery-v0.2","","","739","&#9733;","elianto","#3366ff99","-1","32","0","0","1591","1","1","","","","","","","5dd311f27aa0d6327c0a2bdd&order=1&STUDY_ID=61caf85b4892b889f6411591","11","2","2","win","no-go","0"
"pit-trial","112","571979","0.0-15.0","battery-v0.2","","","-1","&#9728;","elianto","#f73b6a7A","-1","-1","1","-10","","0","1","","","","","","","5dd311f27aa0d6327c0a2bdd&order=1&STUDY_ID=61caf85b4892b889f6411591","12","0","4","lose","no-go","1"
"pit-trial","113","575657","0.0-16.0","battery-v0.2","","","826","&#9730;","elianto","#3366ff99","32","32","1","+10","1676","1","1","","","","","","","5dd311f27aa0d6327c0a2bdd&order=1&STUDY_ID=61caf85b4892b889f6411591","13","1","1","win","go","0"
"pit-trial","114","580510","0.0-17.0","battery-v0.2","","","-1","&#9728;","elianto","#f73b6a7A","-1","-1","1","-10","","0","1","","","","","","","5dd311f27aa0d6327c0a2bdd&order=1&STUDY_ID=61caf85b4892b889f6411591","14","0","4","lose","no-go","1"
"pit-trial","115","584203","0.0-18.0","battery-v0.2","","","807","&#9752;","elianto","#f73b6a7A","32","32","1","0","1658","1","1","","","","","","","5dd311f27aa0d6327c0a2bdd&order=1&STUDY_ID=61caf85b4892b889f6411591","15","3","3","lose","go","0"
"pit-trial","116","589055","0.0-19.0","battery-v0.2","","","-1","&#9733;","elianto","#3366ff99","-1","-1","1","+10","","0","1","","","","","","","5dd311f27aa0d6327c0a2bdd&order=1&STUDY_ID=61caf85b4892b889f6411591","16","2","2","win","no-go","0"
"pit-trial","117","592586","0.0-20.0","battery-v0.2","","","677","&#9752;","elianto","#f73b6a7A","32","32","1","0","1529","1","1","","","","","","","5dd311f27aa0d6327c0a2bdd&order=1&STUDY_ID=61caf85b4892b889f6411591","17","3","3","lose","go","0"
"pit-trial","118","597439","0.0-21.0","battery-v0.2","","","-1","&#9733;","elianto","#3366ff99","-1","-1","1","0","","0","1","","","","","","","5dd311f27aa0d6327c0a2bdd&order=1&STUDY_ID=61caf85b4892b889f6411591","18","2","2","win","no-go","1"
"pit-trial","119","600979","0.0-22.0","battery-v0.2","","","686","&#9730;","elianto","#3366ff99","32","32","1","+10","1538","1","1","","","","","","","5dd311f27aa0d6327c0a2bdd&order=1&STUDY_ID=61caf85b4892b889f6411591","19","1","1","win","go","0"
"pit-trial","120","604372","0.0-23.0","battery-v0.2","","","540","&#9728;","elianto","#f73b6a7A","-1","32","0","-10","1391","1","1","","","","","","","5dd311f27aa0d6327c0a2bdd&order=1&STUDY_ID=61caf85b4892b889f6411591","20","0","4","lose","no-go","0"
"pit-instructions","121","609490","0.0-24.0","battery-v0.2","","[{""page_index"":0,""viewing_time"":2606},{""page_index"":1,""viewing_time"":2511}]","5117","","","","","","","","","","","","","","","","","","","","","","",""
"pit-trial","122","613539","0.0-25.0","battery-v0.2","","","1196","m","elianto","#3366ff99","-1","32","0","+10","2047","1","2","","","","","","","5dd311f27aa0d6327c0a2bdd&order=1&STUDY_ID=61caf85b4892b889f6411591","21","0","2","win","no-go","1"
"pit-trial","123","617207","0.0-26.0","battery-v0.2","","","817","r","elianto","#f73b6a7A","32","32","1","-10","1668","1","2","","","","","","","5dd311f27aa0d6327c0a2bdd&order=1&STUDY_ID=61caf85b4892b889f6411591","22","1","3","lose","go","1"
"pit-trial","124","620697","0.0-27.0","battery-v0.2","","","636","y","elianto","#f73b6a7A","-1","32","0","-10","1487","1","2","","","","","","","5dd311f27aa0d6327c0a2bdd&order=1&STUDY_ID=61caf85b4892b889f6411591","23","2","4","lose","no-go","0"
"pit-trial","125","624627","0.0-28.0","battery-v0.2","","","1076","h","elianto","#3366ff99","32","32","1","+10","1929","1","2","","","","","","","5dd311f27aa0d6327c0a2bdd&order=1&STUDY_ID=61caf85b4892b889f6411591","24","3","1","win","go","0"
"pit-trial","126","629484","0.0-29.0","battery-v0.2","","","-1","r","elianto","#f73b6a7A","32","-1","0","-10","","0","2","","","","","","","5dd311f27aa0d6327c0a2bdd&order=1&STUDY_ID=61caf85b4892b889f6411591","25","1","3","lose","go","0"
"pit-trial","127","634337","0.0-30.0","battery-v0.2","","","-1","y","elianto","#f73b6a7A","-1","-1","1","0","","0","2","","","","","","","5dd311f27aa0d6327c0a2bdd&order=1&STUDY_ID=61caf85b4892b889f6411591","26","2","4","lose","no-go","0"
"pit-trial","128","637830","0.0-31.0","battery-v0.2","","","640","m","elianto","#3366ff99","-1","32","0","0","1490","1","2","","","","","","","5dd311f27aa0d6327c0a2bdd&order=1&STUDY_ID=61caf85b4892b889f6411591","27","0","2","win","no-go","0"
"pit-trial","129","641248","0.0-32.0","battery-v0.2","","","567","h","elianto","#3366ff99","32","32","1","+10","1417","1","2","","","","","","","5dd311f27aa0d6327c0a2bdd&order=1&STUDY_ID=61caf85b4892b889f6411591","28","3","1","win","go","0"
"pit-trial","130","645157","0.0-33.0","battery-v0.2","","","1058","r","elianto","#f73b6a7A","32","32","1","0","1909","1","2","","","","","","","5dd311f27aa0d6327c0a2bdd&order=1&STUDY_ID=61caf85b4892b889f6411591","29","1","3","lose","go","0"
"pit-trial","131","648592","0.0-34.0","battery-v0.2","","","583","m","elianto","#3366ff99","-1","32","0","0","1432","1","2","","","","","","","5dd311f27aa0d6327c0a2bdd&order=1&STUDY_ID=61caf85b4892b889f6411591","30","0","2","win","no-go","0"
"pit-trial","132","653443","0.0-35.0","battery-v0.2","","","-1","y","elianto","#f73b6a7A","-1","-1","1","0","","0","2","","","","","","","5dd311f27aa0d6327c0a2bdd&order=1&STUDY_ID=61caf85b4892b889f6411591","31","2","4","lose","no-go","0"
"pit-trial","133","656995","0.0-36.0","battery-v0.2","","","700","h","elianto","#3366ff99","32","32","1","+10","1550","1","2","","","","","","","5dd311f27aa0d6327c0a2bdd&order=1&STUDY_ID=61caf85b4892b889f6411591","32","3","1","win","go","0"
"pit-trial","134","660515","0.0-37.0","battery-v0.2","","","669","h","elianto","#3366ff99","32","32","1","+10","1518","1","2","","","","","","","5dd311f27aa0d6327c0a2bdd&order=1&STUDY_ID=61caf85b4892b889f6411591","33","3","1","win","go","0"
"pit-trial","135","665367","0.0-38.0","battery-v0.2","","","-1","r","elianto","#f73b6a7A","32","-1","0","-10","","0","2","","","","","","","5dd311f27aa0d6327c0a2bdd&order=1&STUDY_ID=61caf85b4892b889f6411591","34","1","3","lose","go","0"
"pit-trial","136","670219","0.0-39.0","battery-v0.2","","","-1","m","elianto","#3366ff99","-1","-1","1","+10","","0","2","","","","","","","5dd311f27aa0d6327c0a2bdd&order=1&STUDY_ID=61caf85b4892b889f6411591","35","0","2","win","no-go","0"
"pit-trial","137","674085","0.0-40.0","battery-v0.2","","","1014","y","elianto","#f73b6a7A","-1","32","0","-10","1864","1","2","","","","","","","5dd311f27aa0d6327c0a2bdd&order=1&STUDY_ID=61caf85b4892b889f6411591","36","2","4","lose","no-go","0"
"pit-trial","138","677584","0.0-41.0","battery-v0.2","","","647","r","elianto","#f73b6a7A","32","32","1","0","1497","1","2","","","","","","","5dd311f27aa0d6327c0a2bdd&order=1&STUDY_ID=61caf85b4892b889f6411591","37","1","3","lose","go","0"
"pit-trial","139","681238","0.0-42.0","battery-v0.2","","","801","h","elianto","#3366ff99","32","32","1","+10","1652","1","2","","","","","","","5dd311f27aa0d6327c0a2bdd&order=1&STUDY_ID=61caf85b4892b889f6411591","38","3","1","win","go","0"
"pit-trial","140","686090","0.0-43.0","battery-v0.2","","","-1","y","elianto","#f73b6a7A","-1","-1","1","0","","0","2","","","","","","","5dd311f27aa0d6327c0a2bdd&order=1&STUDY_ID=61caf85b4892b889f6411591","39","2","4","lose","no-go","0"
"pit-trial","141","690942","0.0-44.0","battery-v0.2","","","-1","m","elianto","#3366ff99","-1","-1","1","+10","","0","2","","","","","","","5dd311f27aa0d6327c0a2bdd&order=1&STUDY_ID=61caf85b4892b889f6411591","40","0","2","win","no-go","0"
"pit-trial","142","695793","0.0-45.0","battery-v0.2","","","-1","y","elianto","#f73b6a7A","-1","-1","1","-10","","0","2","","","","","","","5dd311f27aa0d6327c0a2bdd&order=1&STUDY_ID=61caf85b4892b889f6411591","41","2","4","lose","no-go","1"
"pit-trial","143","699276","0.0-46.0","battery-v0.2","","","631","r","elianto","#f73b6a7A","32","32","1","0","1482","1","2","","","","","","","5dd311f27aa0d6327c0a2bdd&order=1&STUDY_ID=61caf85b4892b889f6411591","42","1","3","lose","go","0"
"pit-trial","144","702774","0.0-47.0","battery-v0.2","","","646","h","elianto","#3366ff99","32","32","1","+10","1496","1","2","","","","","","","5dd311f27aa0d6327c0a2bdd&order=1&STUDY_ID=61caf85b4892b889f6411591","43","3","1","win","go","0"
"pit-trial","145","707626","0.0-48.0","battery-v0.2","","","-1","m","elianto","#3366ff99","-1","-1","1","+10","","0","2","","","","","","","5dd311f27aa0d6327c0a2bdd&order=1&STUDY_ID=61caf85b4892b889f6411591","44","0","2","win","no-go","0"
"pit-trial","146","712477","0.0-49.0","battery-v0.2","","","-1","y","elianto","#f73b6a7A","-1","-1","1","0","","0","2","","","","","","","5dd311f27aa0d6327c0a2bdd&order=1&STUDY_ID=61caf85b4892b889f6411591","45","2","4","lose","no-go","0"
"pit-trial","147","716085","0.0-50.0","battery-v0.2","","","755","h","elianto","#3366ff99","32","32","1","0","1606","1","2","","","","","","","5dd311f27aa0d6327c0a2bdd&order=1&STUDY_ID=61caf85b4892b889f6411591","46","3","1","win","go","1"
"pit-trial","148","720937","0.0-51.0","battery-v0.2","","","-1","m","elianto","#3366ff99","-1","-1","1","0","","0","2","","","","","","","5dd311f27aa0d6327c0a2bdd&order=1&STUDY_ID=61caf85b4892b889f6411591","47","0","2","win","no-go","1"
"pit-trial","149","724940","0.0-52.0","battery-v0.2","","","1148","r","elianto","#f73b6a7A","32","32","1","-10","2000","1","2","","","","","","","5dd311f27aa0d6327c0a2bdd&order=1&STUDY_ID=61caf85b4892b889f6411591","48","1","3","lose","go","1"
"pit-trial","150","729792","0.0-53.0","battery-v0.2","","","-1","m","elianto","#3366ff99","-1","-1","1","+10","","0","2","","","","","","","5dd311f27aa0d6327c0a2bdd&order=1&STUDY_ID=61caf85b4892b889f6411591","49","0","2","win","no-go","0"
"pit-trial","151","733287","0.0-54.0","battery-v0.2","","","641","r","elianto","#f73b6a7A","32","32","1","0","1493","1","2","","","","","","","5dd311f27aa0d6327c0a2bdd&order=1&STUDY_ID=61caf85b4892b889f6411591","50","1","3","lose","go","0"
"pit-trial","152","736669","0.0-55.0","battery-v0.2","","","526","h","elianto","#3366ff99","32","32","1","+10","1378","1","2","","","","","","","5dd311f27aa0d6327c0a2bdd&order=1&STUDY_ID=61caf85b4892b889f6411591","51","3","1","win","go","0"
"pit-trial","153","741521","0.0-56.0","battery-v0.2","","","-1","y","elianto","#f73b6a7A","-1","-1","1","0","","0","2","","","","","","","5dd311f27aa0d6327c0a2bdd&order=1&STUDY_ID=61caf85b4892b889f6411591","52","2","4","lose","no-go","0"
"pit-trial","154","746372","0.0-57.0","battery-v0.2","","","-1","y","elianto","#f73b6a7A","-1","-1","1","0","","0","2","","","","","","","5dd311f27aa0d6327c0a2bdd&order=1&STUDY_ID=61caf85b4892b889f6411591","53","2","4","lose","no-go","0"
"pit-trial","155","750410","0.0-58.0","battery-v0.2","","","1185","z","elianto","#f73b6a7A","32","32","1","0","2035","1","2","","","","","","","5dd311f27aa0d6327c0a2bdd&order=1&STUDY_ID=61caf85b4892b889f6411591","54","4","3","lose","go","0"
"pit-trial","156","754074","0.0-59.0","battery-v0.2","","","811","r","elianto","#f73b6a7A","32","32","1","0","1663","1","2","","","","","","","5dd311f27aa0d6327c0a2bdd&order=1&STUDY_ID=61caf85b4892b889f6411591","55","1","3","lose","go","0"
"pit-trial","157","758036","0.0-60.0","battery-v0.2","","","1107","c","elianto","#f73b6a7A","-1","32","0","-10","1959","1","2","","","","","","","5dd311f27aa0d6327c0a2bdd&order=1&STUDY_ID=61caf85b4892b889f6411591","56","5","4","lose","no-go","0"
"pit-trial","158","761443","0.0-61.0","battery-v0.2","","","555","r","elianto","#f73b6a7A","32","32","1","0","1406","1","2","","","","","","","5dd311f27aa0d6327c0a2bdd&order=1&STUDY_ID=61caf85b4892b889f6411591","57","1","3","lose","go","0"
"pit-trial","159","766296","0.0-62.0","battery-v0.2","","","-1","c","elianto","#f73b6a7A","-1","-1","1","0","","0","2","","","","","","","5dd311f27aa0d6327c0a2bdd&order=1&STUDY_ID=61caf85b4892b889f6411591","58","5","4","lose","no-go","0"
"pit-trial","160","769750","0.0-63.0","battery-v0.2","","","601","z","elianto","#f73b6a7A","32","32","1","-10","1453","1","2","","","","","","","5dd311f27aa0d6327c0a2bdd&order=1&STUDY_ID=61caf85b4892b889f6411591","59","4","3","lose","go","1"
"pit-trial","161","774602","0.0-64.0","battery-v0.2","","","-1","y","elianto","#f73b6a7A","-1","-1","1","0","","0","2","","","","","","","5dd311f27aa0d6327c0a2bdd&order=1&STUDY_ID=61caf85b4892b889f6411591","60","2","4","lose","no-go","0"
"pit-trial","162","779454","0.0-65.0","battery-v0.2","","","-1","y","elianto","#f73b6a7A","-1","-1","1","0","","0","2","","","","","","","5dd311f27aa0d6327c0a2bdd&order=1&STUDY_ID=61caf85b4892b889f6411591","61","2","4","lose","no-go","0"
"pit-trial","163","784307","0.0-66.0","battery-v0.2","","","-1","c","elianto","#f73b6a7A","-1","-1","1","0","","0","2","","","","","","","5dd311f27aa0d6327c0a2bdd&order=1&STUDY_ID=61caf85b4892b889f6411591","62","5","4","lose","no-go","0"
"pit-trial","164","788117","0.0-67.0","battery-v0.2","","","957","b","elianto","#3366ff99","-1","32","0","0","1808","1","2","","","","","","","5dd311f27aa0d6327c0a2bdd&order=1&STUDY_ID=61caf85b4892b889f6411591","63","6","2","win","no-go","0"
"pit-trial","165","791616","0.0-68.0","battery-v0.2","","","646","z","elianto","#f73b6a7A","32","32","1","0","1497","1","2","","","","","","","5dd311f27aa0d6327c0a2bdd&order=1&STUDY_ID=61caf85b4892b889f6411591","64","4","3","lose","go","0"
"pit-trial","166","796469","0.0-69.0","battery-v0.2","","","-1","y","elianto","#f73b6a7A","-1","-1","1","0","","0","2","","","","","","","5dd311f27aa0d6327c0a2bdd&order=1&STUDY_ID=61caf85b4892b889f6411591","65","2","4","lose","no-go","0"
"pit-trial","167","801321","0.0-70.0","battery-v0.2","","","-1","c","elianto","#f73b6a7A","-1","-1","1","-10","","0","2","","","","","","","5dd311f27aa0d6327c0a2bdd&order=1&STUDY_ID=61caf85b4892b889f6411591","66","5","4","lose","no-go","1"
"pit-trial","168","806173","0.0-71.0","battery-v0.2","","","-1","b","elianto","#3366ff99","-1","-1","1","+10","","0","2","","","","","","","5dd311f27aa0d6327c0a2bdd&order=1&STUDY_ID=61caf85b4892b889f6411591","67","6","2","win","no-go","0"
"pit-trial","169","809738","0.0-72.0","battery-v0.2","","","712","z","elianto","#f73b6a7A","32","32","1","0","1564","1","2","","","","","","","5dd311f27aa0d6327c0a2bdd&order=1&STUDY_ID=61caf85b4892b889f6411591","68","4","3","lose","go","0"
"pit-trial","170","814591","0.0-73.0","battery-v0.2","","","-1","b","elianto","#3366ff99","-1","-1","1","+10","","0","2","","","","","","","5dd311f27aa0d6327c0a2bdd&order=1&STUDY_ID=61caf85b4892b889f6411591","69","6","2","win","no-go","0"
"pit-trial","171","819441","0.0-74.0","battery-v0.2","","","-1","c","elianto","#f73b6a7A","-1","-1","1","0","","0","2","","","","","","","5dd311f27aa0d6327c0a2bdd&order=1&STUDY_ID=61caf85b4892b889f6411591","70","5","4","lose","no-go","0"
"pit-trial","172","823342","0.0-75.0","battery-v0.2","","","1048","z","elianto","#f73b6a7A","32","32","1","0","1898","1","2","","","","","","","5dd311f27aa0d6327c0a2bdd&order=1&STUDY_ID=61caf85b4892b889f6411591","71","4","3","lose","go","0"
"pit-trial","173","827313","0.0-76.0","battery-v0.2","","","1119","t","elianto","#3366ff99","32","32","1","+10","1969","1","2","","","","","","","5dd311f27aa0d6327c0a2bdd&order=1&STUDY_ID=61caf85b4892b889f6411591","72","7","1","win","go","0"
"pit-trial","174","832165","0.0-77.0","battery-v0.2","","","-1","b","elianto","#3366ff99","-1","-1","1","+10","","0","2","","","","","","","5dd311f27aa0d6327c0a2bdd&order=1&STUDY_ID=61caf85b4892b889f6411591","73","6","2","win","no-go","0"
"pit-trial","175","837017","0.0-78.0","battery-v0.2","","","-1","c","elianto","#f73b6a7A","-1","-1","1","0","","0","2","","","","","","","5dd311f27aa0d6327c0a2bdd&order=1&STUDY_ID=61caf85b4892b889f6411591","74","5","4","lose","no-go","0"
"pit-trial","176","840645","0.0-79.0","battery-v0.2","","","777","z","elianto","#f73b6a7A","32","32","1","0","1627","1","2","","","","","","","5dd311f27aa0d6327c0a2bdd&order=1&STUDY_ID=61caf85b4892b889f6411591","75","4","3","lose","go","0"
"pit-trial","177","844217","0.0-80.0","battery-v0.2","","","719","t","elianto","#3366ff99","32","32","1","+10","1569","1","2","","","","","","","5dd311f27aa0d6327c0a2bdd&order=1&STUDY_ID=61caf85b4892b889f6411591","76","7","1","win","go","0"
"pit-trial","178","847998","0.0-81.0","battery-v0.2","","","929","z","elianto","#f73b6a7A","32","32","1","-10","1778","1","2","","","","","","","5dd311f27aa0d6327c0a2bdd&order=1&STUDY_ID=61caf85b4892b889f6411591","77","4","3","lose","go","1"
"pit-trial","179","852849","0.0-82.0","battery-v0.2","","","-1","b","elianto","#3366ff99","-1","-1","1","+10","","0","2","","","","","","","5dd311f27aa0d6327c0a2bdd&order=1&STUDY_ID=61caf85b4892b889f6411591","78","6","2","win","no-go","0"
"pit-trial","180","857701","0.0-83.0","battery-v0.2","","","-1","c","elianto","#f73b6a7A","-1","-1","1","0","","0","2","","","","","","","5dd311f27aa0d6327c0a2bdd&order=1&STUDY_ID=61caf85b4892b889f6411591","79","5","4","lose","no-go","0"
"pit-trial","181","861213","0.0-84.0","battery-v0.2","","","661","t","elianto","#3366ff99","32","32","1","+10","1511","1","2","","","","","","","5dd311f27aa0d6327c0a2bdd&order=1&STUDY_ID=61caf85b4892b889f6411591","80","7","1","win","go","0"
"pit-trial","182","864866","0.0-85.0","battery-v0.2","","","802","z","elianto","#f73b6a7A","32","32","1","0","1652","1","2","","","","","","","5dd311f27aa0d6327c0a2bdd&order=1&STUDY_ID=61caf85b4892b889f6411591","81","4","3","lose","go","0"
"pit-trial","183","868360","0.0-86.0","battery-v0.2","","","642","t","elianto","#3366ff99","32","32","1","+10","1492","1","2","","","","","","","5dd311f27aa0d6327c0a2bdd&order=1&STUDY_ID=61caf85b4892b889f6411591","82","7","1","win","go","0"
"pit-trial","184","873213","0.0-87.0","battery-v0.2","","","-1","b","elianto","#3366ff99","-1","-1","1","+10","","0","2","","","","","","","5dd311f27aa0d6327c0a2bdd&order=1&STUDY_ID=61caf85b4892b889f6411591","83","6","2","win","no-go","0"
"pit-trial","185","878063","0.0-88.0","battery-v0.2","","","-1","c","elianto","#f73b6a7A","-1","-1","1","0","","0","2","","","","","","","5dd311f27aa0d6327c0a2bdd&order=1&STUDY_ID=61caf85b4892b889f6411591","84","5","4","lose","no-go","0"
"pit-trial","186","881568","0.0-89.0","battery-v0.2","","","654","t","elianto","#3366ff99","32","32","1","+10","1504","1","2","","","","","","","5dd311f27aa0d6327c0a2bdd&order=1&STUDY_ID=61caf85b4892b889f6411591","85","7","1","win","go","0"
"pit-trial","187","886419","0.0-90.0","battery-v0.2","","","-1","c","elianto","#f73b6a7A","-1","-1","1","0","","0","2","","","","","","","5dd311f27aa0d6327c0a2bdd&order=1&STUDY_ID=61caf85b4892b889f6411591","86","5","4","lose","no-go","0"
"pit-trial","188","889939","0.0-91.0","battery-v0.2","","","667","z","elianto","#f73b6a7A","32","32","1","0","1517","1","2","","","","","","","5dd311f27aa0d6327c0a2bdd&order=1&STUDY_ID=61caf85b4892b889f6411591","87","4","3","lose","go","0"
"pit-trial","189","894792","0.0-92.0","battery-v0.2","","","-1","b","elianto","#3366ff99","-1","-1","1","+10","","0","2","","","","","","","5dd311f27aa0d6327c0a2bdd&order=1&STUDY_ID=61caf85b4892b889f6411591","88","6","2","win","no-go","0"
"pit-trial","190","898436","0.0-93.0","battery-v0.2","","","790","c","elianto","#f73b6a7A","-1","32","0","0","1642","1","2","","","","","","","5dd311f27aa0d6327c0a2bdd&order=1&STUDY_ID=61caf85b4892b889f6411591","89","5","4","lose","no-go","1"
"pit-trial","191","901974","0.0-94.0","battery-v0.2","","","684","t","elianto","#3366ff99","32","32","1","0","1534","1","2","","","","","","","5dd311f27aa0d6327c0a2bdd&order=1&STUDY_ID=61caf85b4892b889f6411591","90","7","1","win","go","1"
"pit-trial","192","906826","0.0-95.0","battery-v0.2","","","-1","b","elianto","#3366ff99","-1","-1","1","+10","","0","2","","","","","","","5dd311f27aa0d6327c0a2bdd&order=1&STUDY_ID=61caf85b4892b889f6411591","91","6","2","win","no-go","0"
"pit-trial","193","910571","0.0-96.0","battery-v0.2","","","890","z","elianto","#f73b6a7A","32","32","1","0","1742","1","2","","","","","","","5dd311f27aa0d6327c0a2bdd&order=1&STUDY_ID=61caf85b4892b889f6411591","92","4","3","lose","go","0"
"pit-trial","194","914007","0.0-97.0","battery-v0.2","","","582","t","elianto","#3366ff99","32","32","1","+10","1434","1","2","","","","","","","5dd311f27aa0d6327c0a2bdd&order=1&STUDY_ID=61caf85b4892b889f6411591","93","7","1","win","go","0"
"pit-trial","195","917761","0.0-98.0","battery-v0.2","","","902","x","elianto","#3366ff99","32","32","1","+10","1753","1","2","","","","","","","5dd311f27aa0d6327c0a2bdd&order=1&STUDY_ID=61caf85b4892b889f6411591","94","8","1","win","go","0"
"pit-trial","196","921511","0.0-99.0","battery-v0.2","","","895","z","elianto","#f73b6a7A","32","32","1","0","1747","1","2","","","","","","","5dd311f27aa0d6327c0a2bdd&order=1&STUDY_ID=61caf85b4892b889f6411591","95","4","3","lose","go","0"
"pit-trial","197","926363","0.0-100.0","battery-v0.2","","","-1","b","elianto","#3366ff99","-1","-1","1","+10","","0","2","","","","","","","5dd311f27aa0d6327c0a2bdd&order=1&STUDY_ID=61caf85b4892b889f6411591","96","6","2","win","no-go","0"
"pit-trial","198","929843","0.0-101.0","battery-v0.2","","","625","z","elianto","#f73b6a7A","32","32","1","0","1476","1","2","","","","","","","5dd311f27aa0d6327c0a2bdd&order=1&STUDY_ID=61caf85b4892b889f6411591","97","4","3","lose","go","0"
"pit-trial","199","934698","0.0-102.0","battery-v0.2","","","-1","b","elianto","#3366ff99","-1","-1","1","0","","0","2","","","","","","","5dd311f27aa0d6327c0a2bdd&order=1&STUDY_ID=61caf85b4892b889f6411591","98","6","2","win","no-go","1"
"pit-trial","200","938155","0.0-103.0","battery-v0.2","","","603","t","elianto","#3366ff99","32","32","1","0","1454","1","2","","","","","","","5dd311f27aa0d6327c0a2bdd&order=1&STUDY_ID=61caf85b4892b889f6411591","99","7","1","win","go","1"
"pit-trial","201","941495","0.0-104.0","battery-v0.2","","","486","x","elianto","#3366ff99","32","32","1","0","1336","1","2","","","","","","","5dd311f27aa0d6327c0a2bdd&order=1&STUDY_ID=61caf85b4892b889f6411591","100","8","1","win","go","1"
"pit-trial","202","944920","0.0-105.0","battery-v0.2","","","571","t","elianto","#3366ff99","32","32","1","+10","1422","1","2","","","","","","","5dd311f27aa0d6327c0a2bdd&order=1&STUDY_ID=61caf85b4892b889f6411591","101","7","1","win","go","0"
"pit-trial","203","949775","0.0-106.0","battery-v0.2","","","-1","b","elianto","#3366ff99","-1","-1","1","0","","0","2","","","","","","","5dd311f27aa0d6327c0a2bdd&order=1&STUDY_ID=61caf85b4892b889f6411591","102","6","2","win","no-go","1"
"pit-trial","204","953422","0.0-107.0","battery-v0.2","","","793","f","elianto","#3366ff99","-1","32","0","0","1645","1","2","","","","","","","5dd311f27aa0d6327c0a2bdd&order=1&STUDY_ID=61caf85b4892b889f6411591","103","9","2","win","no-go","0"
"pit-trial","205","956969","0.0-108.0","battery-v0.2","","","693","x","elianto","#3366ff99","32","32","1","+10","1544","1","2","","","","","","","5dd311f27aa0d6327c0a2bdd&order=1&STUDY_ID=61caf85b4892b889f6411591","104","8","1","win","go","0"
"pit-trial","206","960654","0.0-109.0","battery-v0.2","","","831","x","elianto","#3366ff99","32","32","1","+10","1682","1","2","","","","","","","5dd311f27aa0d6327c0a2bdd&order=1&STUDY_ID=61caf85b4892b889f6411591","105","8","1","win","go","0"
"pit-trial","207","964583","0.0-110.0","battery-v0.2","","","1074","t","elianto","#3366ff99","32","32","1","+10","1926","1","2","","","","","","","5dd311f27aa0d6327c0a2bdd&order=1&STUDY_ID=61caf85b4892b889f6411591","106","7","1","win","go","0"
"pit-trial","208","969438","0.0-111.0","battery-v0.2","","","-1","b","elianto","#3366ff99","-1","-1","1","0","","0","2","","","","","","","5dd311f27aa0d6327c0a2bdd&order=1&STUDY_ID=61caf85b4892b889f6411591","107","6","2","win","no-go","1"
"pit-trial","209","973018","0.0-112.0","battery-v0.2","","","725","f","elianto","#3366ff99","-1","32","0","0","1577","1","2","","","","","","","5dd311f27aa0d6327c0a2bdd&order=1&STUDY_ID=61caf85b4892b889f6411591","108","9","2","win","no-go","0"
"pit-trial","210","977873","0.0-113.0","battery-v0.2","","","-1","f","elianto","#3366ff99","-1","-1","1","+10","","0","2","","","","","","","5dd311f27aa0d6327c0a2bdd&order=1&STUDY_ID=61caf85b4892b889f6411591","109","9","2","win","no-go","0"
"pit-trial","211","982045","0.0-114.0","battery-v0.2","","","1320","q","elianto","#f73b6a7A","-1","32","0","0","2171","1","2","","","","","","","5dd311f27aa0d6327c0a2bdd&order=1&STUDY_ID=61caf85b4892b889f6411591","110","11","4","lose","no-go","1"
"pit-trial","212","986007","0.0-115.0","battery-v0.2","","","1108","n","elianto","#f73b6a7A","32","32","1","0","1960","1","2","","","","","","","5dd311f27aa0d6327c0a2bdd&order=1&STUDY_ID=61caf85b4892b889f6411591","111","10","3","lose","go","0"
"pit-trial","213","989804","0.0-116.0","battery-v0.2","","","943","x","elianto","#3366ff99","32","32","1","+10","1794","1","2","","","","","","","5dd311f27aa0d6327c0a2bdd&order=1&STUDY_ID=61caf85b4892b889f6411591","112","8","1","win","go","0"
"pit-trial","214","993512","0.0-117.0","battery-v0.2","","","853","x","elianto","#3366ff99","32","32","1","0","1704","1","2","","","","","","","5dd311f27aa0d6327c0a2bdd&order=1&STUDY_ID=61caf85b4892b889f6411591","113","8","1","win","go","1"
"pit-trial","215","997849","0.0-118.0","battery-v0.2","","","1483","n","elianto","#f73b6a7A","32","32","1","-10","2335","1","2","","","","","","","5dd311f27aa0d6327c0a2bdd&order=1&STUDY_ID=61caf85b4892b889f6411591","114","10","3","lose","go","1"
"pit-trial","216","1001684","0.0-119.0","battery-v0.2","","","983","f","elianto","#3366ff99","-1","32","0","0","1833","1","2","","","","","","","5dd311f27aa0d6327c0a2bdd&order=1&STUDY_ID=61caf85b4892b889f6411591","115","9","2","win","no-go","0"
"pit-trial","217","1005783","0.0-120.0","battery-v0.2","","","1246","q","elianto","#f73b6a7A","-1","32","0","0","2097","1","2","","","","","","","5dd311f27aa0d6327c0a2bdd&order=1&STUDY_ID=61caf85b4892b889f6411591","116","11","4","lose","no-go","1"
"pit-trial","218","1009324","0.0-121.0","battery-v0.2","","","687","q","elianto","#f73b6a7A","-1","32","0","-10","1539","1","2","","","","","","","5dd311f27aa0d6327c0a2bdd&order=1&STUDY_ID=61caf85b4892b889f6411591","117","11","4","lose","no-go","0"
"pit-trial","219","1013602","0.0-122.0","battery-v0.2","","","1423","x","elianto","#3366ff99","32","32","1","0","2275","1","2","","","","","","","5dd311f27aa0d6327c0a2bdd&order=1&STUDY_ID=61caf85b4892b889f6411591","118","8","1","win","go","1"
"pit-trial","220","1017737","0.0-123.0","battery-v0.2","","","1283","f","elianto","#3366ff99","-1","32","0","0","2134","1","2","","","","","","","5dd311f27aa0d6327c0a2bdd&order=1&STUDY_ID=61caf85b4892b889f6411591","119","9","2","win","no-go","0"
"pit-trial","221","1022269","0.0-124.0","battery-v0.2","","","1679","n","elianto","#f73b6a7A","32","32","1","0","2529","1","2","","","","","","","5dd311f27aa0d6327c0a2bdd&order=1&STUDY_ID=61caf85b4892b889f6411591","120","10","3","lose","go","0"
"pit-trial","222","1025878","0.0-125.0","battery-v0.2","","","756","q","elianto","#f73b6a7A","-1","32","0","-10","1608","1","2","","","","","","","5dd311f27aa0d6327c0a2bdd&order=1&STUDY_ID=61caf85b4892b889f6411591","121","11","4","lose","no-go","0"
"pit-trial","223","1030731","0.0-126.0","battery-v0.2","","","-1","f","elianto","#3366ff99","-1","-1","1","0","","0","2","","","","","","","5dd311f27aa0d6327c0a2bdd&order=1&STUDY_ID=61caf85b4892b889f6411591","122","9","2","win","no-go","1"
"pit-trial","224","1034804","0.0-127.0","battery-v0.2","","","1218","n","elianto","#f73b6a7A","32","32","1","0","2069","1","2","","","","","","","5dd311f27aa0d6327c0a2bdd&order=1&STUDY_ID=61caf85b4892b889f6411591","123","10","3","lose","go","0"
"pit-trial","225","1038450","0.0-128.0","battery-v0.2","","","794","x","elianto","#3366ff99","32","32","1","0","1646","1","2","","","","","","","5dd311f27aa0d6327c0a2bdd&order=1&STUDY_ID=61caf85b4892b889f6411591","124","8","1","win","go","1"
"pit-trial","226","1042423","0.0-129.0","battery-v0.2","","","1117","q","elianto","#f73b6a7A","-1","32","0","0","1969","1","2","","","","","","","5dd311f27aa0d6327c0a2bdd&order=1&STUDY_ID=61caf85b4892b889f6411591","125","11","4","lose","no-go","1"
"pit-trial","227","1047275","0.0-130.0","battery-v0.2","","","-1","f","elianto","#3366ff99","-1","-1","1","0","","0","2","","","","","","","5dd311f27aa0d6327c0a2bdd&order=1&STUDY_ID=61caf85b4892b889f6411591","126","9","2","win","no-go","1"
"pit-trial","228","1051150","0.0-131.0","battery-v0.2","","","1020","x","elianto","#3366ff99","32","32","1","+10","1871","1","2","","","","","","","5dd311f27aa0d6327c0a2bdd&order=1&STUDY_ID=61caf85b4892b889f6411591","127","8","1","win","go","0"
"pit-trial","229","1054919","0.0-132.0","battery-v0.2","","","915","n","elianto","#f73b6a7A","32","32","1","0","1768","1","2","","","","","","","5dd311f27aa0d6327c0a2bdd&order=1&STUDY_ID=61caf85b4892b889f6411591","128","10","3","lose","go","0"
"pit-trial","230","1058520","0.0-133.0","battery-v0.2","","","746","x","elianto","#3366ff99","32","32","1","+10","1598","1","2","","","","","","","5dd311f27aa0d6327c0a2bdd&order=1&STUDY_ID=61caf85b4892b889f6411591","129","8","1","win","go","0"
"pit-trial","231","1062454","0.0-134.0","battery-v0.2","","","1080","q","elianto","#f73b6a7A","-1","32","0","0","1932","1","2","","","","","","","5dd311f27aa0d6327c0a2bdd&order=1&STUDY_ID=61caf85b4892b889f6411591","130","11","4","lose","no-go","1"
"pit-trial","232","1065848","0.0-135.0","battery-v0.2","","","540","n","elianto","#f73b6a7A","32","32","1","0","1391","1","2","","","","","","","5dd311f27aa0d6327c0a2bdd&order=1&STUDY_ID=61caf85b4892b889f6411591","131","10","3","lose","go","0"
"pit-trial","233","1069192","0.0-136.0","battery-v0.2","","","489","f","elianto","#3366ff99","-1","32","0","0","1342","1","2","","","","","","","5dd311f27aa0d6327c0a2bdd&order=1&STUDY_ID=61caf85b4892b889f6411591","132","9","2","win","no-go","0"
"pit-trial","234","1074044","0.0-137.0","battery-v0.2","","","-1","f","elianto","#3366ff99","-1","-1","1","0","","0","2","","","","","","","5dd311f27aa0d6327c0a2bdd&order=1&STUDY_ID=61caf85b4892b889f6411591","133","9","2","win","no-go","1"
"pit-trial","235","1077578","0.0-138.0","battery-v0.2","","","680","x","elianto","#3366ff99","32","32","1","+10","1531","1","2","","","","","","","5dd311f27aa0d6327c0a2bdd&order=1&STUDY_ID=61caf85b4892b889f6411591","134","8","1","win","go","0"
"pit-trial","236","1081075","0.0-139.0","battery-v0.2","","","644","q","elianto","#f73b6a7A","-1","32","0","-10","1495","1","2","","","","","","","5dd311f27aa0d6327c0a2bdd&order=1&STUDY_ID=61caf85b4892b889f6411591","135","11","4","lose","no-go","0"
"pit-trial","237","1084458","0.0-140.0","battery-v0.2","","","530","n","elianto","#f73b6a7A","32","32","1","0","1381","1","2","","","","","","","5dd311f27aa0d6327c0a2bdd&order=1&STUDY_ID=61caf85b4892b889f6411591","136","10","3","lose","go","0"
"pit-trial","238","1088005","0.0-141.0","battery-v0.2","","","691","q","elianto","#f73b6a7A","-1","32","0","-10","1543","1","2","","","","","","","5dd311f27aa0d6327c0a2bdd&order=1&STUDY_ID=61caf85b4892b889f6411591","137","11","4","lose","no-go","0"
"pit-trial","239","1091435","0.0-142.0","battery-v0.2","","","576","n","elianto","#f73b6a7A","32","32","1","0","1428","1","2","","","","","","","5dd311f27aa0d6327c0a2bdd&order=1&STUDY_ID=61caf85b4892b889f6411591","138","10","3","lose","go","0"
"pit-trial","240","1095143","0.0-143.0","battery-v0.2","","","853","f","elianto","#3366ff99","-1","32","0","+10","1705","1","2","","","","","","","5dd311f27aa0d6327c0a2bdd&order=1&STUDY_ID=61caf85b4892b889f6411591","139","9","2","win","no-go","1"
"pit-trial","241","1098841","0.0-144.0","battery-v0.2","","","847","x","elianto","#3366ff99","32","32","1","+10","1698","1","2","","","","","","","5dd311f27aa0d6327c0a2bdd&order=1&STUDY_ID=61caf85b4892b889f6411591","140","8","1","win","go","0"
"pit-instructions","242","1116758","0.0-145.0","battery-v0.2","","[{""page_index"":0,""viewing_time"":8795},{""page_index"":1,""viewing_time"":9119}]","17914","","","","","","","","","","","","","","","","","","","","","","",""
"pit-trial","243","1120490","0.0-146.0","battery-v0.2","","","877","g","elianto","#f73b6a7A","32","32","1","0","1730","1","3","","","","","","","5dd311f27aa0d6327c0a2bdd&order=1&STUDY_ID=61caf85b4892b889f6411591","141","3","3","lose","go","0"
"pit-trial","244","1123932","0.0-147.0","battery-v0.2","","","585","l","elianto","#3366ff99","-1","32","0","0","1437","1","3","","","","","","","5dd311f27aa0d6327c0a2bdd&order=1&STUDY_ID=61caf85b4892b889f6411591","142","1","2","win","no-go","0"
"pit-trial","245","1127509","0.0-148.0","battery-v0.2","","","724","a","elianto","#3366ff99","32","32","1","+10","1576","1","3","","","","","","","5dd311f27aa0d6327c0a2bdd&order=1&STUDY_ID=61caf85b4892b889f6411591","143","2","1","win","go","0"
"pit-trial","246","1131264","0.0-149.0","battery-v0.2","","","903","u","elianto","#3366ff99","-1","32","0","0","1754","1","3","","","","","","","5dd311f27aa0d6327c0a2bdd&order=1&STUDY_ID=61caf85b4892b889f6411591","144","0","2","win","no-go","0"
"pit-trial","247","1134642","0.0-150.0","battery-v0.2","","","524","u","elianto","#3366ff99","-1","32","0","0","1375","1","3","","","","","","","5dd311f27aa0d6327c0a2bdd&order=1&STUDY_ID=61caf85b4892b889f6411591","145","0","2","win","no-go","0"
"pit-trial","248","1138144","0.0-151.0","battery-v0.2","","","650","g","elianto","#f73b6a7A","32","32","1","0","1502","1","3","","","","","","","5dd311f27aa0d6327c0a2bdd&order=1&STUDY_ID=61caf85b4892b889f6411591","146","3","3","lose","go","0"
"pit-trial","249","1142999","0.0-152.0","battery-v0.2","","","-1","l","elianto","#3366ff99","-1","-1","1","+10","","0","3","","","","","","","5dd311f27aa0d6327c0a2bdd&order=1&STUDY_ID=61caf85b4892b889f6411591","147","1","2","win","no-go","0"
"pit-trial","250","1146671","0.0-153.0","battery-v0.2","","","817","a","elianto","#3366ff99","32","32","1","+10","1668","1","3","","","","","","","5dd311f27aa0d6327c0a2bdd&order=1&STUDY_ID=61caf85b4892b889f6411591","148","2","1","win","go","0"
"pit-trial","251","1150153","0.0-154.0","battery-v0.2","","","625","a","elianto","#3366ff99","32","32","1","0","1477","1","3","","","","","","","5dd311f27aa0d6327c0a2bdd&order=1&STUDY_ID=61caf85b4892b889f6411591","149","2","1","win","go","1"
"pit-trial","252","1154240","0.0-155.0","battery-v0.2","","","1234","u","elianto","#3366ff99","-1","32","0","+10","2085","1","3","","","","","","","5dd311f27aa0d6327c0a2bdd&order=1&STUDY_ID=61caf85b4892b889f6411591","150","0","2","win","no-go","1"
"pit-trial","253","1159093","0.0-156.0","battery-v0.2","","","-1","l","elianto","#3366ff99","-1","-1","1","+10","","0","3","","","","","","","5dd311f27aa0d6327c0a2bdd&order=1&STUDY_ID=61caf85b4892b889f6411591","151","1","2","win","no-go","0"
"pit-trial","254","1162382","0.0-157.0","battery-v0.2","","","437","g","elianto","#f73b6a7A","32","32","1","0","1289","1","3","","","","","","","5dd311f27aa0d6327c0a2bdd&order=1&STUDY_ID=61caf85b4892b889f6411591","152","3","3","lose","go","0"
"pit-trial","255","1167237","0.0-158.0","battery-v0.2","","","-1","l","elianto","#3366ff99","-1","-1","1","+10","","0","3","","","","","","","5dd311f27aa0d6327c0a2bdd&order=1&STUDY_ID=61caf85b4892b889f6411591","153","1","2","win","no-go","0"
"pit-trial","256","1171073","0.0-159.0","battery-v0.2","","","949","u","elianto","#3366ff99","-1","32","0","0","1800","1","3","","","","","","","5dd311f27aa0d6327c0a2bdd&order=1&STUDY_ID=61caf85b4892b889f6411591","154","0","2","win","no-go","0"
"pit-trial","257","1175167","0.0-160.0","battery-v0.2","","","1241","a","elianto","#3366ff99","32","32","1","+10","2091","1","3","","","","","","","5dd311f27aa0d6327c0a2bdd&order=1&STUDY_ID=61caf85b4892b889f6411591","155","2","1","win","go","0"
"pit-trial","258","1178618","0.0-161.0","battery-v0.2","","","596","g","elianto","#f73b6a7A","32","32","1","0","1448","1","3","","","","","","","5dd311f27aa0d6327c0a2bdd&order=1&STUDY_ID=61caf85b4892b889f6411591","156","3","3","lose","go","0"
"pit-trial","259","1182165","0.0-162.0","battery-v0.2","","","693","u","elianto","#3366ff99","-1","32","0","+10","1545","1","3","","","","","","","5dd311f27aa0d6327c0a2bdd&order=1&STUDY_ID=61caf85b4892b889f6411591","157","0","2","win","no-go","1"
"pit-trial","260","1187017","0.0-163.0","battery-v0.2","","","-1","l","elianto","#3366ff99","-1","-1","1","+10","","0","3","","","","","","","5dd311f27aa0d6327c0a2bdd&order=1&STUDY_ID=61caf85b4892b889f6411591","158","1","2","win","no-go","0"
"pit-trial","261","1190482","0.0-164.0","battery-v0.2","","","609","g","elianto","#f73b6a7A","32","32","1","0","1461","1","3","","","","","","","5dd311f27aa0d6327c0a2bdd&order=1&STUDY_ID=61caf85b4892b889f6411591","159","3","3","lose","go","0"
"pit-trial","262","1193902","0.0-165.0","battery-v0.2","","","566","a","elianto","#3366ff99","32","32","1","0","1418","1","3","","","","","","","5dd311f27aa0d6327c0a2bdd&order=1&STUDY_ID=61caf85b4892b889f6411591","160","2","1","win","go","1"
"pit-trial","263","1198754","0.0-166.0","battery-v0.2","","","-1","l","elianto","#3366ff99","-1","-1","1","0","","0","3","","","","","","","5dd311f27aa0d6327c0a2bdd&order=1&STUDY_ID=61caf85b4892b889f6411591","161","1","2","win","no-go","1"
"pit-trial","264","1202106","0.0-167.0","battery-v0.2","","","497","a","elianto","#3366ff99","32","32","1","0","1349","1","3","","","","","","","5dd311f27aa0d6327c0a2bdd&order=1&STUDY_ID=61caf85b4892b889f6411591","162","2","1","win","go","1"
"pit-trial","265","1205573","0.0-168.0","battery-v0.2","","","611","u","elianto","#3366ff99","-1","32","0","0","1463","1","3","","","","","","","5dd311f27aa0d6327c0a2bdd&order=1&STUDY_ID=61caf85b4892b889f6411591","163","0","2","win","no-go","0"
"pit-trial","266","1209130","0.0-169.0","battery-v0.2","","","703","g","elianto","#f73b6a7A","32","32","1","0","1554","1","3","","","","","","","5dd311f27aa0d6327c0a2bdd&order=1&STUDY_ID=61caf85b4892b889f6411591","164","3","3","lose","go","0"
"pit-trial","267","1213983","0.0-170.0","battery-v0.2","","","-1","u","elianto","#3366ff99","-1","-1","1","0","","0","3","","","","","","","5dd311f27aa0d6327c0a2bdd&order=1&STUDY_ID=61caf85b4892b889f6411591","165","0","2","win","no-go","1"
"pit-trial","268","1217443","0.0-171.0","battery-v0.2","","","605","g","elianto","#f73b6a7A","32","32","1","0","1457","1","3","","","","","","","5dd311f27aa0d6327c0a2bdd&order=1&STUDY_ID=61caf85b4892b889f6411591","166","3","3","lose","go","0"
"pit-trial","269","1222294","0.0-172.0","battery-v0.2","","","-1","l","elianto","#3366ff99","-1","-1","1","+10","","0","3","","","","","","","5dd311f27aa0d6327c0a2bdd&order=1&STUDY_ID=61caf85b4892b889f6411591","167","1","2","win","no-go","0"
"pit-trial","270","1225775","0.0-173.0","battery-v0.2","","","626","a","elianto","#3366ff99","32","32","1","+10","1477","1","3","","","","","","","5dd311f27aa0d6327c0a2bdd&order=1&STUDY_ID=61caf85b4892b889f6411591","168","2","1","win","go","0"
"pit-trial","271","1230627","0.0-174.0","battery-v0.2","","","-1","u","elianto","#3366ff99","-1","-1","1","+10","","0","3","","","","","","","5dd311f27aa0d6327c0a2bdd&order=1&STUDY_ID=61caf85b4892b889f6411591","169","0","2","win","no-go","0"
"pit-trial","272","1235478","0.0-175.0","battery-v0.2","","","-1","l","elianto","#3366ff99","-1","-1","1","+10","","0","3","","","","","","","5dd311f27aa0d6327c0a2bdd&order=1&STUDY_ID=61caf85b4892b889f6411591","170","1","2","win","no-go","0"
"pit-trial","273","1238883","0.0-176.0","battery-v0.2","","","553","a","elianto","#3366ff99","32","32","1","+10","1403","1","3","","","","","","","5dd311f27aa0d6327c0a2bdd&order=1&STUDY_ID=61caf85b4892b889f6411591","171","2","1","win","go","0"
"pit-trial","274","1242376","0.0-177.0","battery-v0.2","","","641","g","elianto","#f73b6a7A","32","32","1","-10","1491","1","3","","","","","","","5dd311f27aa0d6327c0a2bdd&order=1&STUDY_ID=61caf85b4892b889f6411591","172","3","3","lose","go","1"
"pit-trial","275","1247226","0.0-178.0","battery-v0.2","","","-1","s","elianto","#f73b6a7A","32","-1","0","-10","","0","3","","","","","","","5dd311f27aa0d6327c0a2bdd&order=1&STUDY_ID=61caf85b4892b889f6411591","173","5","3","lose","go","0"
"pit-trial","276","1250900","0.0-179.0","battery-v0.2","","","821","a","elianto","#3366ff99","32","32","1","+10","1671","1","3","","","","","","","5dd311f27aa0d6327c0a2bdd&order=1&STUDY_ID=61caf85b4892b889f6411591","174","2","1","win","go","0"
"pit-trial","277","1254670","0.0-180.0","battery-v0.2","","","918","p","elianto","#f73b6a7A","-1","32","0","-10","1769","1","3","","","","","","","5dd311f27aa0d6327c0a2bdd&order=1&STUDY_ID=61caf85b4892b889f6411591","175","4","4","lose","no-go","0"
"pit-trial","278","1258722","0.0-181.0","battery-v0.2","","","1196","u","elianto","#3366ff99","-1","32","0","0","2048","1","3","","","","","","","5dd311f27aa0d6327c0a2bdd&order=1&STUDY_ID=61caf85b4892b889f6411591","176","0","2","win","no-go","0"
"pit-trial","279","1263576","0.0-182.0","battery-v0.2","","","-1","u","elianto","#3366ff99","-1","-1","1","+10","","0","3","","","","","","","5dd311f27aa0d6327c0a2bdd&order=1&STUDY_ID=61caf85b4892b889f6411591","177","0","2","win","no-go","0"
"pit-trial","280","1267076","0.0-183.0","battery-v0.2","","","647","a","elianto","#3366ff99","32","32","1","+10","1498","1","3","","","","","","","5dd311f27aa0d6327c0a2bdd&order=1&STUDY_ID=61caf85b4892b889f6411591","178","2","1","win","go","0"
"pit-trial","281","1271256","0.0-184.0","battery-v0.2","","","1326","s","elianto","#f73b6a7A","32","32","1","0","2178","1","3","","","","","","","5dd311f27aa0d6327c0a2bdd&order=1&STUDY_ID=61caf85b4892b889f6411591","179","5","3","lose","go","0"
"pit-trial","282","1276108","0.0-185.0","battery-v0.2","","","-1","p","elianto","#f73b6a7A","-1","-1","1","0","","0","3","","","","","","","5dd311f27aa0d6327c0a2bdd&order=1&STUDY_ID=61caf85b4892b889f6411591","180","4","4","lose","no-go","0"
"pit-trial","283","1279558","0.0-186.0","battery-v0.2","","","595","s","elianto","#f73b6a7A","32","32","1","-10","1446","1","3","","","","","","","5dd311f27aa0d6327c0a2bdd&order=1&STUDY_ID=61caf85b4892b889f6411591","181","5","3","lose","go","1"
"pit-trial","284","1284413","0.0-187.0","battery-v0.2","","","-1","p","elianto","#f73b6a7A","-1","-1","1","0","","0","3","","","","","","","5dd311f27aa0d6327c0a2bdd&order=1&STUDY_ID=61caf85b4892b889f6411591","182","4","4","lose","no-go","0"
"pit-trial","285","1288055","0.0-188.0","battery-v0.2","","","789","w","elianto","#3366ff99","-1","32","0","0","1640","1","3","","","","","","","5dd311f27aa0d6327c0a2bdd&order=1&STUDY_ID=61caf85b4892b889f6411591","183","6","2","win","no-go","0"
"pit-trial","286","1291688","0.0-189.0","battery-v0.2","","","778","a","elianto","#3366ff99","32","32","1","+10","1630","1","3","","","","","","","5dd311f27aa0d6327c0a2bdd&order=1&STUDY_ID=61caf85b4892b889f6411591","184","2","1","win","go","0"
"pit-trial","287","1295589","0.0-190.0","battery-v0.2","","","1048","s","elianto","#f73b6a7A","32","32","1","-10","1900","1","3","","","","","","","5dd311f27aa0d6327c0a2bdd&order=1&STUDY_ID=61caf85b4892b889f6411591","185","5","3","lose","go","1"
"pit-trial","288","1300442","0.0-191.0","battery-v0.2","","","-1","p","elianto","#f73b6a7A","-1","-1","1","0","","0","3","","","","","","","5dd311f27aa0d6327c0a2bdd&order=1&STUDY_ID=61caf85b4892b889f6411591","186","4","4","lose","no-go","0"
"pit-trial","289","1304166","0.0-192.0","battery-v0.2","","","869","w","elianto","#3366ff99","-1","32","0","0","1721","1","3","","","","","","","5dd311f27aa0d6327c0a2bdd&order=1&STUDY_ID=61caf85b4892b889f6411591","187","6","2","win","no-go","0"
"pit-trial","290","1307681","0.0-193.0","battery-v0.2","","","661","a","elianto","#3366ff99","32","32","1","0","1513","1","3","","","","","","","5dd311f27aa0d6327c0a2bdd&order=1&STUDY_ID=61caf85b4892b889f6411591","188","2","1","win","go","1"
"pit-trial","291","1311430","0.0-194.0","battery-v0.2","","","896","e","elianto","#f73b6a7A","-1","32","0","-10","1747","1","3","","","","","","","5dd311f27aa0d6327c0a2bdd&order=1&STUDY_ID=61caf85b4892b889f6411591","189","7","4","lose","no-go","0"
"pit-trial","292","1316283","0.0-195.0","battery-v0.2","","","-1","p","elianto","#f73b6a7A","-1","-1","1","0","","0","3","","","","","","","5dd311f27aa0d6327c0a2bdd&order=1&STUDY_ID=61caf85b4892b889f6411591","190","4","4","lose","no-go","0"
"pit-trial","293","1319893","0.0-196.0","battery-v0.2","","","755","s","elianto","#f73b6a7A","32","32","1","0","1607","1","3","","","","","","","5dd311f27aa0d6327c0a2bdd&order=1&STUDY_ID=61caf85b4892b889f6411591","191","5","3","lose","go","0"
"pit-trial","294","1324746","0.0-197.0","battery-v0.2","","","-1","w","elianto","#3366ff99","-1","-1","1","+10","","0","3","","","","","","","5dd311f27aa0d6327c0a2bdd&order=1&STUDY_ID=61caf85b4892b889f6411591","192","6","2","win","no-go","0"
"pit-trial","295","1329596","0.0-198.0","battery-v0.2","","","-1","e","elianto","#f73b6a7A","-1","-1","1","0","","0","3","","","","","","","5dd311f27aa0d6327c0a2bdd&order=1&STUDY_ID=61caf85b4892b889f6411591","193","7","4","lose","no-go","0"
"pit-trial","296","1334447","0.0-199.0","battery-v0.2","","","-1","p","elianto","#f73b6a7A","-1","-1","1","0","","0","3","","","","","","","5dd311f27aa0d6327c0a2bdd&order=1&STUDY_ID=61caf85b4892b889f6411591","194","4","4","lose","no-go","0"
"pit-trial","297","1338063","0.0-200.0","battery-v0.2","","","762","s","elianto","#f73b6a7A","32","32","1","0","1612","1","3","","","","","","","5dd311f27aa0d6327c0a2bdd&order=1&STUDY_ID=61caf85b4892b889f6411591","195","5","3","lose","go","0"
"pit-trial","298","1342916","0.0-201.0","battery-v0.2","","","-1","w","elianto","#3366ff99","-1","-1","1","+10","","0","3","","","","","","","5dd311f27aa0d6327c0a2bdd&order=1&STUDY_ID=61caf85b4892b889f6411591","196","6","2","win","no-go","0"
"pit-trial","299","1347768","0.0-202.0","battery-v0.2","","","-1","w","elianto","#3366ff99","-1","-1","1","0","","0","3","","","","","","","5dd311f27aa0d6327c0a2bdd&order=1&STUDY_ID=61caf85b4892b889f6411591","197","6","2","win","no-go","1"
"pit-trial","300","1352623","0.0-203.0","battery-v0.2","","","-1","p","elianto","#f73b6a7A","-1","-1","1","0","","0","3","","","","","","","5dd311f27aa0d6327c0a2bdd&order=1&STUDY_ID=61caf85b4892b889f6411591","198","4","4","lose","no-go","0"
"pit-trial","301","1357474","0.0-204.0","battery-v0.2","","","-1","e","elianto","#f73b6a7A","-1","-1","1","-10","","0","3","","","","","","","5dd311f27aa0d6327c0a2bdd&order=1&STUDY_ID=61caf85b4892b889f6411591","199","7","4","lose","no-go","1"
"pit-trial","302","1360964","0.0-205.0","battery-v0.2","","","637","s","elianto","#f73b6a7A","32","32","1","0","1488","1","3","","","","","","","5dd311f27aa0d6327c0a2bdd&order=1&STUDY_ID=61caf85b4892b889f6411591","200","5","3","lose","go","0"
"pit-trial","303","1364452","0.0-206.0","battery-v0.2","","","634","s","elianto","#f73b6a7A","32","32","1","0","1486","1","3","","","","","","","5dd311f27aa0d6327c0a2bdd&order=1&STUDY_ID=61caf85b4892b889f6411591","201","5","3","lose","go","0"
"pit-trial","304","1369304","0.0-207.0","battery-v0.2","","","-1","p","elianto","#f73b6a7A","-1","-1","1","0","","0","3","","","","","","","5dd311f27aa0d6327c0a2bdd&order=1&STUDY_ID=61caf85b4892b889f6411591","202","4","4","lose","no-go","0"
"pit-trial","305","1374158","0.0-208.0","battery-v0.2","","","-1","w","elianto","#3366ff99","-1","-1","1","+10","","0","3","","","","","","","5dd311f27aa0d6327c0a2bdd&order=1&STUDY_ID=61caf85b4892b889f6411591","203","6","2","win","no-go","0"
"pit-trial","306","1379011","0.0-209.0","battery-v0.2","","","-1","e","elianto","#f73b6a7A","-1","-1","1","-10","","0","3","","","","","","","5dd311f27aa0d6327c0a2bdd&order=1&STUDY_ID=61caf85b4892b889f6411591","204","7","4","lose","no-go","1"
"pit-trial","307","1383865","0.0-210.0","battery-v0.2","","","-1","w","elianto","#3366ff99","-1","-1","1","+10","","0","3","","","","","","","5dd311f27aa0d6327c0a2bdd&order=1&STUDY_ID=61caf85b4892b889f6411591","205","6","2","win","no-go","0"
"pit-trial","308","1387420","0.0-211.0","battery-v0.2","","","700","s","elianto","#f73b6a7A","32","32","1","0","1552","1","3","","","","","","","5dd311f27aa0d6327c0a2bdd&order=1&STUDY_ID=61caf85b4892b889f6411591","206","5","3","lose","go","0"
"pit-trial","309","1392274","0.0-212.0","battery-v0.2","","","-1","p","elianto","#f73b6a7A","-1","-1","1","0","","0","3","","","","","","","5dd311f27aa0d6327c0a2bdd&order=1&STUDY_ID=61caf85b4892b889f6411591","207","4","4","lose","no-go","0"
"pit-trial","310","1397127","0.0-213.0","battery-v0.2","","","-1","e","elianto","#f73b6a7A","-1","-1","1","0","","0","3","","","","","","","5dd311f27aa0d6327c0a2bdd&order=1&STUDY_ID=61caf85b4892b889f6411591","208","7","4","lose","no-go","0"
"pit-trial","311","1400704","0.0-214.0","battery-v0.2","","","724","s","elianto","#f73b6a7A","32","32","1","0","1576","1","3","","","","","","","5dd311f27aa0d6327c0a2bdd&order=1&STUDY_ID=61caf85b4892b889f6411591","209","5","3","lose","go","0"
"pit-trial","312","1405556","0.0-215.0","battery-v0.2","","","-1","e","elianto","#f73b6a7A","-1","-1","1","0","","0","3","","","","","","","5dd311f27aa0d6327c0a2bdd&order=1&STUDY_ID=61caf85b4892b889f6411591","210","7","4","lose","no-go","0"
"pit-trial","313","1410411","0.0-216.0","battery-v0.2","","","-1","p","elianto","#f73b6a7A","-1","-1","1","0","","0","3","","","","","","","5dd311f27aa0d6327c0a2bdd&order=1&STUDY_ID=61caf85b4892b889f6411591","211","4","4","lose","no-go","0"
"pit-trial","314","1415262","0.0-217.0","battery-v0.2","","","-1","w","elianto","#3366ff99","-1","-1","1","+10","","0","3","","","","","","","5dd311f27aa0d6327c0a2bdd&order=1&STUDY_ID=61caf85b4892b889f6411591","212","6","2","win","no-go","0"
"pit-trial","315","1420114","0.0-218.0","battery-v0.2","","","-1","e","elianto","#f73b6a7A","-1","-1","1","0","","0","3","","","","","","","5dd311f27aa0d6327c0a2bdd&order=1&STUDY_ID=61caf85b4892b889f6411591","213","7","4","lose","no-go","0"
"pit-trial","316","1423606","0.0-219.0","battery-v0.2","","","639","s","elianto","#f73b6a7A","32","32","1","-10","1491","1","3","","","","","","","5dd311f27aa0d6327c0a2bdd&order=1&STUDY_ID=61caf85b4892b889f6411591","214","5","3","lose","go","1"
"pit-trial","317","1428462","0.0-220.0","battery-v0.2","","","-1","w","elianto","#3366ff99","-1","-1","1","+10","","0","3","","","","","","","5dd311f27aa0d6327c0a2bdd&order=1&STUDY_ID=61caf85b4892b889f6411591","215","6","2","win","no-go","0"
"pit-trial","318","1432456","0.0-221.0","battery-v0.2","","","1139","k","elianto","#f73b6a7A","-1","32","0","-10","1991","1","3","","","","","","","5dd311f27aa0d6327c0a2bdd&order=1&STUDY_ID=61caf85b4892b889f6411591","216","8","4","lose","no-go","0"
"pit-trial","319","1437311","0.0-222.0","battery-v0.2","","","-1","w","elianto","#3366ff99","-1","-1","1","+10","","0","3","","","","","","","5dd311f27aa0d6327c0a2bdd&order=1&STUDY_ID=61caf85b4892b889f6411591","217","6","2","win","no-go","0"
"pit-trial","320","1442163","0.0-223.0","battery-v0.2","","","-1","e","elianto","#f73b6a7A","-1","-1","1","0","","0","3","","","","","","","5dd311f27aa0d6327c0a2bdd&order=1&STUDY_ID=61caf85b4892b889f6411591","218","7","4","lose","no-go","0"
"pit-trial","321","1445804","0.0-224.0","battery-v0.2","","","786","s","elianto","#f73b6a7A","32","32","1","0","1638","1","3","","","","","","","5dd311f27aa0d6327c0a2bdd&order=1&STUDY_ID=61caf85b4892b889f6411591","219","5","3","lose","go","0"
"pit-trial","322","1449163","0.0-225.0","battery-v0.2","","","505","k","elianto","#f73b6a7A","-1","32","0","-10","1357","1","3","","","","","","","5dd311f27aa0d6327c0a2bdd&order=1&STUDY_ID=61caf85b4892b889f6411591","220","8","4","lose","no-go","0"
"pit-trial","323","1453231","0.0-226.0","battery-v0.2","","","1213","j","elianto","#f73b6a7A","32","32","1","0","2065","1","3","","","","","","","5dd311f27aa0d6327c0a2bdd&order=1&STUDY_ID=61caf85b4892b889f6411591","221","10","3","lose","go","0"
"pit-trial","324","1457411","0.0-227.0","battery-v0.2","","","1324","d","elianto","#3366ff99","32","32","1","+10","2176","1","3","","","","","","","5dd311f27aa0d6327c0a2bdd&order=1&STUDY_ID=61caf85b4892b889f6411591","222","9","1","win","go","0"
"pit-trial","325","1462262","0.0-228.0","battery-v0.2","","","-1","k","elianto","#f73b6a7A","-1","-1","1","0","","0","3","","","","","","","5dd311f27aa0d6327c0a2bdd&order=1&STUDY_ID=61caf85b4892b889f6411591","223","8","4","lose","no-go","0"
"pit-trial","326","1467114","0.0-229.0","battery-v0.2","","","-1","w","elianto","#3366ff99","-1","-1","1","+10","","0","3","","","","","","","5dd311f27aa0d6327c0a2bdd&order=1&STUDY_ID=61caf85b4892b889f6411591","224","6","2","win","no-go","0"
"pit-trial","327","1470789","0.0-230.0","battery-v0.2","","","824","j","elianto","#f73b6a7A","32","32","1","-10","1673","1","3","","","","","","","5dd311f27aa0d6327c0a2bdd&order=1&STUDY_ID=61caf85b4892b889f6411591","225","10","3","lose","go","1"
"pit-trial","328","1475644","0.0-231.0","battery-v0.2","","","-1","w","elianto","#3366ff99","-1","-1","1","+10","","0","3","","","","","","","5dd311f27aa0d6327c0a2bdd&order=1&STUDY_ID=61caf85b4892b889f6411591","226","6","2","win","no-go","0"
"pit-trial","329","1479618","0.0-232.0","battery-v0.2","","","1119","d","elianto","#3366ff99","32","32","1","+10","1971","1","3","","","","","","","5dd311f27aa0d6327c0a2bdd&order=1&STUDY_ID=61caf85b4892b889f6411591","227","9","1","win","go","0"
"pit-trial","330","1484473","0.0-233.0","battery-v0.2","","","-1","k","elianto","#f73b6a7A","-1","-1","1","0","","0","3","","","","","","","5dd311f27aa0d6327c0a2bdd&order=1&STUDY_ID=61caf85b4892b889f6411591","228","8","4","lose","no-go","0"
"pit-trial","331","1488031","0.0-234.0","battery-v0.2","","","703","d","elianto","#3366ff99","32","32","1","0","1554","1","3","","","","","","","5dd311f27aa0d6327c0a2bdd&order=1&STUDY_ID=61caf85b4892b889f6411591","229","9","1","win","go","1"
"pit-trial","332","1492883","0.0-235.0","battery-v0.2","","","-1","k","elianto","#f73b6a7A","-1","-1","1","0","","0","3","","","","","","","5dd311f27aa0d6327c0a2bdd&order=1&STUDY_ID=61caf85b4892b889f6411591","230","8","4","lose","no-go","0"
"pit-trial","333","1496807","0.0-236.0","battery-v0.2","","","1073","v","elianto","#3366ff99","32","32","1","0","1924","1","3","","","","","","","5dd311f27aa0d6327c0a2bdd&order=1&STUDY_ID=61caf85b4892b889f6411591","231","11","1","win","go","1"
"pit-trial","334","1500647","0.0-237.0","battery-v0.2","","","988","j","elianto","#f73b6a7A","32","32","1","0","1839","1","3","","","","","","","5dd311f27aa0d6327c0a2bdd&order=1&STUDY_ID=61caf85b4892b889f6411591","232","10","3","lose","go","0"
"pit-trial","335","1504138","0.0-238.0","battery-v0.2","","","636","j","elianto","#f73b6a7A","32","32","1","0","1488","1","3","","","","","","","5dd311f27aa0d6327c0a2bdd&order=1&STUDY_ID=61caf85b4892b889f6411591","233","10","3","lose","go","0"
"pit-trial","336","1508992","0.0-239.0","battery-v0.2","","","-1","v","elianto","#3366ff99","32","-1","0","0","","0","3","","","","","","","5dd311f27aa0d6327c0a2bdd&order=1&STUDY_ID=61caf85b4892b889f6411591","234","11","1","win","go","0"
"pit-trial","337","1513845","0.0-240.0","battery-v0.2","","","-1","k","elianto","#f73b6a7A","-1","-1","1","0","","0","3","","","","","","","5dd311f27aa0d6327c0a2bdd&order=1&STUDY_ID=61caf85b4892b889f6411591","235","8","4","lose","no-go","0"
"pit-trial","338","1517585","0.0-241.0","battery-v0.2","","","885","d","elianto","#3366ff99","32","32","1","+10","1737","1","3","","","","","","","5dd311f27aa0d6327c0a2bdd&order=1&STUDY_ID=61caf85b4892b889f6411591","236","9","1","win","go","0"
"pit-trial","339","1522435","0.0-242.0","battery-v0.2","","","-1","k","elianto","#f73b6a7A","-1","-1","1","0","","0","3","","","","","","","5dd311f27aa0d6327c0a2bdd&order=1&STUDY_ID=61caf85b4892b889f6411591","237","8","4","lose","no-go","0"
"pit-trial","340","1525954","0.0-243.0","battery-v0.2","","","667","j","elianto","#f73b6a7A","32","32","1","-10","1517","1","3","","","","","","","5dd311f27aa0d6327c0a2bdd&order=1&STUDY_ID=61caf85b4892b889f6411591","238","10","3","lose","go","1"
"pit-trial","341","1529517","0.0-244.0","battery-v0.2","","","711","v","elianto","#3366ff99","32","32","1","+10","1561","1","3","","","","","","","5dd311f27aa0d6327c0a2bdd&order=1&STUDY_ID=61caf85b4892b889f6411591","239","11","1","win","go","0"
"pit-trial","342","1533007","0.0-245.0","battery-v0.2","","","636","d","elianto","#3366ff99","32","32","1","+10","1487","1","3","","","","","","","5dd311f27aa0d6327c0a2bdd&order=1&STUDY_ID=61caf85b4892b889f6411591","240","9","1","win","go","0"
"pit-trial","343","1536649","0.0-246.0","battery-v0.2","","","788","j","elianto","#f73b6a7A","32","32","1","0","1640","1","3","","","","","","","5dd311f27aa0d6327c0a2bdd&order=1&STUDY_ID=61caf85b4892b889f6411591","241","10","3","lose","go","0"
"pit-trial","344","1540329","0.0-247.0","battery-v0.2","","","825","v","elianto","#3366ff99","32","32","1","0","1677","1","3","","","","","","","5dd311f27aa0d6327c0a2bdd&order=1&STUDY_ID=61caf85b4892b889f6411591","242","11","1","win","go","1"
"pit-trial","345","1545184","0.0-248.0","battery-v0.2","","","-1","k","elianto","#f73b6a7A","-1","-1","1","0","","0","3","","","","","","","5dd311f27aa0d6327c0a2bdd&order=1&STUDY_ID=61caf85b4892b889f6411591","243","8","4","lose","no-go","0"
"pit-trial","346","1548763","0.0-249.0","battery-v0.2","","","726","d","elianto","#3366ff99","32","32","1","+10","1577","1","3","","","","","","","5dd311f27aa0d6327c0a2bdd&order=1&STUDY_ID=61caf85b4892b889f6411591","244","9","1","win","go","0"
"pit-trial","347","1552326","0.0-250.0","battery-v0.2","","","707","d","elianto","#3366ff99","32","32","1","0","1560","1","3","","","","","","","5dd311f27aa0d6327c0a2bdd&order=1&STUDY_ID=61caf85b4892b889f6411591","245","9","1","win","go","1"
"pit-trial","348","1556075","0.0-251.0","battery-v0.2","","","893","j","elianto","#f73b6a7A","32","32","1","0","1745","1","3","","","","","","","5dd311f27aa0d6327c0a2bdd&order=1&STUDY_ID=61caf85b4892b889f6411591","246","10","3","lose","go","0"
"pit-trial","349","1560928","0.0-252.0","battery-v0.2","","","-1","k","elianto","#f73b6a7A","-1","-1","1","0","","0","3","","","","","","","5dd311f27aa0d6327c0a2bdd&order=1&STUDY_ID=61caf85b4892b889f6411591","247","8","4","lose","no-go","0"
"pit-trial","350","1564397","0.0-253.0","battery-v0.2","","","612","v","elianto","#3366ff99","32","32","1","+10","1464","1","3","","","","","","","5dd311f27aa0d6327c0a2bdd&order=1&STUDY_ID=61caf85b4892b889f6411591","248","11","1","win","go","0"
"pit-trial","351","1568299","0.0-254.0","battery-v0.2","","","1048","j","elianto","#f73b6a7A","32","32","1","-10","1900","1","3","","","","","","","5dd311f27aa0d6327c0a2bdd&order=1&STUDY_ID=61caf85b4892b889f6411591","249","10","3","lose","go","1"
"pit-trial","352","1573152","0.0-255.0","battery-v0.2","","","-1","k","elianto","#f73b6a7A","-1","-1","1","0","","0","3","","","","","","","5dd311f27aa0d6327c0a2bdd&order=1&STUDY_ID=61caf85b4892b889f6411591","250","8","4","lose","no-go","0"
"pit-trial","353","1576739","0.0-256.0","battery-v0.2","","","733","v","elianto","#3366ff99","32","32","1","+10","1584","1","3","","","","","","","5dd311f27aa0d6327c0a2bdd&order=1&STUDY_ID=61caf85b4892b889f6411591","251","11","1","win","go","0"
"pit-trial","354","1580438","0.0-257.0","battery-v0.2","","","847","d","elianto","#3366ff99","32","32","1","+10","1699","1","3","","","","","","","5dd311f27aa0d6327c0a2bdd&order=1&STUDY_ID=61caf85b4892b889f6411591","252","9","1","win","go","0"
"pit-trial","355","1585291","0.0-258.0","battery-v0.2","","","-1","j","elianto","#f73b6a7A","32","-1","0","-10","","0","3","","","","","","","5dd311f27aa0d6327c0a2bdd&order=1&STUDY_ID=61caf85b4892b889f6411591","253","10","3","lose","go","0"
"pit-trial","356","1588760","0.0-259.0","battery-v0.2","","","616","v","elianto","#3366ff99","32","32","1","+10","1468","1","3","","","","","","","5dd311f27aa0d6327c0a2bdd&order=1&STUDY_ID=61caf85b4892b889f6411591","254","11","1","win","go","0"
"pit-trial","357","1593613","0.0-260.0","battery-v0.2","","","-1","k","elianto","#f73b6a7A","-1","-1","1","0","","0","3","","","","","","","5dd311f27aa0d6327c0a2bdd&order=1&STUDY_ID=61caf85b4892b889f6411591","255","8","4","lose","no-go","0"
"pit-trial","358","1597152","0.0-261.0","battery-v0.2","","","688","d","elianto","#3366ff99","32","32","1","+10","1538","1","3","","","","","","","5dd311f27aa0d6327c0a2bdd&order=1&STUDY_ID=61caf85b4892b889f6411591","256","9","1","win","go","0"
"pit-trial","359","1600736","0.0-262.0","battery-v0.2","","","731","j","elianto","#f73b6a7A","32","32","1","0","1581","1","3","","","","","","","5dd311f27aa0d6327c0a2bdd&order=1&STUDY_ID=61caf85b4892b889f6411591","257","10","3","lose","go","0"
"pit-trial","360","1604256","0.0-263.0","battery-v0.2","","","669","v","elianto","#3366ff99","32","32","1","+10","1519","1","3","","","","","","","5dd311f27aa0d6327c0a2bdd&order=1&STUDY_ID=61caf85b4892b889f6411591","258","11","1","win","go","0"
"pit-trial","361","1609108","0.0-264.0","battery-v0.2","","","-1","k","elianto","#f73b6a7A","-1","-1","1","0","","0","3","","","","","","","5dd311f27aa0d6327c0a2bdd&order=1&STUDY_ID=61caf85b4892b889f6411591","259","8","4","lose","no-go","0"
"pit-trial","362","1612558","0.0-265.0","battery-v0.2","","","596","d","elianto","#3366ff99","32","32","1","+10","1447","1","3","","","","","","","5dd311f27aa0d6327c0a2bdd&order=1&STUDY_ID=61caf85b4892b889f6411591","260","9","1","win","go","0"
