"trial_type","trial_index","time_elapsed","internal_node_id","task_version","subject_id","interactions","blur_events","focus_events","fullscreenenter_events","fullscreenexit_events","success","view_history","rt","responses","num_errors","age","subject","participantId","rune","rune_set","hex","correct","choice","accuracy","outcome","keys","total_keys","block","practice","value","sub","trial","stimulus","robot","valence","action","sham","browser_interactions"
"pavlovia","0","21","0.0-0.0","battery-v0.2","","""event"",""trial"",""time""
""fullscreenenter"",""1"",""2008""
","
","
","""event"",""trial"",""time""
""fullscreenenter"",""1"",""2008""
","
","","","","","","","","","","","","","","","","","","","","","","","","","","","",""
"fullscreen","1","3001","0.0-1.0","battery-v0.2","","""event"",""trial"",""time""
""fullscreenenter"",""1"",""2008""
","
","
","""event"",""trial"",""time""
""fullscreenenter"",""1"",""2008""
","
","true","","","","","","","","","","","","","","","","","","","","","","","","","","",""
"pit-instructions","2","6920","0.0-2.0-0.0","battery-v0.2","","""event"",""trial"",""time""
""fullscreenenter"",""1"",""2008""
","
","
","""event"",""trial"",""time""
""fullscreenenter"",""1"",""2008""
","
","","[{""page_index"":0,""viewing_time"":3913}]","3913.5","","","","","","","","","","","","","","","","","","","","","","","","",""
"pit-comprehension","3","9390","0.0-2.0-1.0-0.0","battery-v0.2","","""event"",""trial"",""time""
""fullscreenenter"",""1"",""2008""
","
","
","""event"",""trial"",""time""
""fullscreenenter"",""1"",""2008""
","
","","","2463.8000000002794","[""shark""]","0","12","1640","190","","","","","","","","","","","","","","","","","","","",""
"pit-instructions","4","10482","0.0-2.0-1.0-1.0","battery-v0.2","","""event"",""trial"",""time""
""fullscreenenter"",""1"",""2008""
","
","
","""event"",""trial"",""time""
""fullscreenenter"",""1"",""2008""
","
","","[{""page_index"":0,""viewing_time"":1075.8999999999069}]","1076.7000000001863","","","","","","","","","","","","","","","","","","","","","","","","",""
"pit-comprehension","5","12435","0.0-2.0-2.0-0.0","battery-v0.2","","""event"",""trial"",""time""
""fullscreenenter"",""1"",""2008""
","
","
","""event"",""trial"",""time""
""fullscreenenter"",""1"",""2008""
","
","","","1944.6000000000931","[""tiger""]","0","12","1640","190","","","","","","","","","","","","","","","","","","","",""
"pit-instructions","6","13544","0.0-2.0-2.0-1.0","battery-v0.2","","""event"",""trial"",""time""
""fullscreenenter"",""1"",""2008""
","
","
","""event"",""trial"",""time""
""fullscreenenter"",""1"",""2008""
","
","","[{""page_index"":0,""viewing_time"":1104.6999999997206}]","1105.0999999996275","","","","","","","","","","","","","","","","","","","","","","","","",""
"pit-instructions","7","117769","0.0-2.0-3.0","battery-v0.2","","""event"",""trial"",""time""
""fullscreenenter"",""1"",""2008""
","
","
","""event"",""trial"",""time""
""fullscreenenter"",""1"",""2008""
","
","","[{""page_index"":0,""viewing_time"":10976.100000000093},{""page_index"":1,""viewing_time"":5662.600000000093},{""page_index"":2,""viewing_time"":7387.799999999814},{""page_index"":3,""viewing_time"":5299.800000000279},{""page_index"":4,""viewing_time"":6115.399999999907},{""page_index"":5,""viewing_time"":6945.200000000186},{""page_index"":6,""viewing_time"":8019.5999999996275},{""page_index"":7,""viewing_time"":8142.600000000093},{""page_index"":8,""viewing_time"":6145.600000000093},{""page_index"":9,""viewing_time"":7742.299999999814},{""page_index"":10,""viewing_time"":7619.600000000093},{""page_index"":11,""viewing_time"":8161.200000000186},{""page_index"":12,""viewing_time"":9337},{""page_index"":13,""viewing_time"":6664.199999999721}]","104220.30000000028","","","","","","","","","","","","","","","","","","","","","","","","",""
"pit-trial","8","120723","0.0-2.0-4.0-0.0","battery-v0.2","","""event"",""trial"",""time""
""fullscreenenter"",""1"",""2008""
","
","
","""event"",""trial"",""time""
""fullscreenenter"",""1"",""2008""
","
","","","99.6999999997206","","","12","1640","190","&#9784;","elianto","#FFFFF080"," "," ","1","&#10004","[950]","1","0","0","","","","","","","","",""
"pit-trial","9","123639","0.0-2.0-4.1-0.1","battery-v0.2","","""event"",""trial"",""time""
""fullscreenenter"",""1"",""2008""
","
","
","""event"",""trial"",""time""
""fullscreenenter"",""1"",""2008""
","
","","","60.700000000186265","","","12","1640","190","&#9784;","elianto","#FFFFF080"," "," ","1","&#10004","[911,1579.3999999999069]","2","0","0","","","","","","","","",""
"pit-trial","10","127057","0.0-2.0-4.2-0.2","battery-v0.2","","""event"",""trial"",""time""
""fullscreenenter"",""1"",""2008""
","
","
","""event"",""trial"",""time""
""fullscreenenter"",""1"",""2008""
","
","","","563.6000000000931","","","12","1640","190","&#9784;","elianto","#FFFFF080"," "," ","1","&#10004","[1414.1999999997206]","1","0","0","","","","","","","","",""
"pit-trial","11","130399","0.0-2.0-4.3-0.3","battery-v0.2","","""event"",""trial"",""time""
""fullscreenenter"",""1"",""2008""
","
","
","""event"",""trial"",""time""
""fullscreenenter"",""1"",""2008""
","
","","","487.60000000009313","","","12","1640","190","&#9784;","elianto","#FFFFF080"," "," ","1","&#10004","[1337.7000000001863]","1","0","0","","","","","","","","",""
"pit-trial","12","133752","0.0-2.0-4.4-0.4","battery-v0.2","","""event"",""trial"",""time""
""fullscreenenter"",""1"",""2008""
","
","
","""event"",""trial"",""time""
""fullscreenenter"",""1"",""2008""
","
","","","499","","","12","1640","190","&#9784;","elianto","#FFFFF080"," "," ","1","&#10004","[1349]","1","0","0","","","","","","","","",""
"pit-instructions","13","155299","0.0-2.0-5.0","battery-v0.2","","""event"",""trial"",""time""
""fullscreenenter"",""1"",""2008""
","
","
","""event"",""trial"",""time""
""fullscreenenter"",""1"",""2008""
","
","","[{""page_index"":0,""viewing_time"":4715.299999999814},{""page_index"":1,""viewing_time"":5890.100000000093},{""page_index"":2,""viewing_time"":5627.899999999907},{""page_index"":3,""viewing_time"":5309.899999999907}]","21543.899999999907","","","","","","","","","","","","","","","","","","","","","","","","",""
"pit-trial","14","160154","0.0-2.0-6.0-0.0","battery-v0.2","","""event"",""trial"",""time""
""fullscreenenter"",""1"",""2008""
","
","
","""event"",""trial"",""time""
""fullscreenenter"",""1"",""2008""
","
","","","-1","","","12","1640","190","&#9854;","elianto","#FFFFF080","-1","-1","1","&#10004","[]","0","0","1","","","","","","","","",""
"pit-trial","15","165012","0.0-2.0-6.1-0.1","battery-v0.2","","""event"",""trial"",""time""
""fullscreenenter"",""1"",""2008""
","
","
","""event"",""trial"",""time""
""fullscreenenter"",""1"",""2008""
","
","","","-1","","","12","1640","190","&#9854;","elianto","#FFFFF080","-1","-1","1","&#10004","[]","0","0","1","","","","","","","","",""
"pit-trial","16","169867","0.0-2.0-6.2-0.2","battery-v0.2","","""event"",""trial"",""time""
""fullscreenenter"",""1"",""2008""
","
","
","""event"",""trial"",""time""
""fullscreenenter"",""1"",""2008""
","
","","","-1","","","12","1640","190","&#9854;","elianto","#FFFFF080","-1","-1","1","&#10004","[]","0","0","1","","","","","","","","",""
"pit-trial","17","174722","0.0-2.0-6.3-0.3","battery-v0.2","","""event"",""trial"",""time""
""fullscreenenter"",""1"",""2008""
","
","
","""event"",""trial"",""time""
""fullscreenenter"",""1"",""2008""
","
","","","-1","","","12","1640","190","&#9854;","elianto","#FFFFF080","-1","-1","1","&#10004","[]","0","0","1","","","","","","","","",""
"pit-trial","18","179576","0.0-2.0-6.4-0.4","battery-v0.2","","""event"",""trial"",""time""
""fullscreenenter"",""1"",""2008""
","
","
","""event"",""trial"",""time""
""fullscreenenter"",""1"",""2008""
","
","","","-1","","","12","1640","190","&#9854;","elianto","#FFFFF080","-1","-1","1","&#10004","[]","0","0","1","","","","","","","","",""
"pit-instructions","19","306903","0.0-2.0-7.0","battery-v0.2","","""event"",""trial"",""time""
""fullscreenenter"",""1"",""2008""
","
","
","""event"",""trial"",""time""
""fullscreenenter"",""1"",""2008""
","
","","[{""page_index"":0,""viewing_time"":5287.200000000186},{""page_index"":1,""viewing_time"":7274.5},{""page_index"":2,""viewing_time"":6246.299999999814},{""page_index"":3,""viewing_time"":6249.200000000186},{""page_index"":4,""viewing_time"":5712.5},{""page_index"":5,""viewing_time"":6006.399999999907},{""page_index"":6,""viewing_time"":5894.200000000186},{""page_index"":7,""viewing_time"":11886.600000000093},{""page_index"":8,""viewing_time"":6804.799999999814},{""page_index"":9,""viewing_time"":7245.100000000093},{""page_index"":10,""viewing_time"":6713.699999999721},{""page_index"":11,""viewing_time"":5565.600000000093},{""page_index"":12,""viewing_time"":7801.800000000279},{""page_index"":13,""viewing_time"":7515.0999999996275},{""page_index"":14,""viewing_time"":8136.200000000186},{""page_index"":15,""viewing_time"":8322.399999999907},{""page_index"":16,""viewing_time"":6787.5},{""page_index"":17,""viewing_time"":7872}]","127322.40000000037","","","","","","","","","","","","","","","","","","","","","","","","",""
"pit-trial","20","310653","0.0-2.0-8.0-0.0","battery-v0.2","","""event"",""trial"",""time""
""fullscreenenter"",""1"",""2008""
","
","
","""event"",""trial"",""time""
""fullscreenenter"",""1"",""2008""
","
","","","896.3000000002794","","","12","1640","190","&#9776;","elianto","#3366ff99"," "," ","1","+10","[1746.6000000000931]","1","0","1","","","","","","","","",""
"pit-trial","21","314057","0.0-2.0-8.0-1.0","battery-v0.2","","""event"",""trial"",""time""
""fullscreenenter"",""1"",""2008""
","
","
","""event"",""trial"",""time""
""fullscreenenter"",""1"",""2008""
","
","","","551.2000000001863","","","12","1640","190","&#9776;","elianto","#3366ff99"," "," ","1","+10","[1401.3999999999069]","1","0","1","","","","","","","","",""
"pit-trial","22","317446","0.0-2.0-8.0-2.0","battery-v0.2","","""event"",""trial"",""time""
""fullscreenenter"",""1"",""2008""
","
","
","""event"",""trial"",""time""
""fullscreenenter"",""1"",""2008""
","
","","","536.0999999996275","","","12","1640","190","&#9776;","elianto","#3366ff99"," "," ","1","+10","[1386.3000000002794]","1","0","1","","","","","","","","",""
"pit-trial","23","320721","0.0-2.0-8.0-3.0","battery-v0.2","","""event"",""trial"",""time""
""fullscreenenter"",""1"",""2008""
","
","
","""event"",""trial"",""time""
""fullscreenenter"",""1"",""2008""
","
","","","421.39999999990687","","","12","1640","190","&#9776;","elianto","#3366ff99"," "," ","1","0","[1271.7000000001863]","1","0","1","","","","","","","","",""
"pit-trial","24","324291","0.0-2.0-8.0-4.0","battery-v0.2","","""event"",""trial"",""time""
""fullscreenenter"",""1"",""2008""
","
","
","""event"",""trial"",""time""
""fullscreenenter"",""1"",""2008""
","
","","","717.1000000000931","","","12","1640","190","&#9776;","elianto","#3366ff99"," "," ","1","+10","[1567.1000000000931]","1","0","1","","","","","","","","",""
"call-function","25","324293","0.0-2.0-9.0","battery-v0.2","","""event"",""trial"",""time""
""fullscreenenter"",""1"",""2008""
","
","
","""event"",""trial"",""time""
""fullscreenenter"",""1"",""2008""
","
","","","","","","","","","","","","","","","","","","","","","","","","","","","",""
"pit-instructions","26","364021","0.0-2.0-10.0","battery-v0.2","","""event"",""trial"",""time""
""fullscreenenter"",""1"",""2008""
","
","
","""event"",""trial"",""time""
""fullscreenenter"",""1"",""2008""
","
","","[{""page_index"":0,""viewing_time"":6027.9000000003725},{""page_index"":1,""viewing_time"":6943.799999999814},{""page_index"":2,""viewing_time"":9970.600000000093},{""page_index"":3,""viewing_time"":8479.899999999907},{""page_index"":4,""viewing_time"":8304}]","39726.90000000037","","","","","","","","","","","","","","","","","","","","","","","","",""
"pit-trial","27","368874","0.0-2.0-11.0-0.0","battery-v0.2","","""event"",""trial"",""time""
""fullscreenenter"",""1"",""2008""
","
","
","""event"",""trial"",""time""
""fullscreenenter"",""1"",""2008""
","
","","","-1","","","12","1640","190","&#9761;","elianto","#3366ff99","-1","-1","1","+10","[]","0","0","2","","","","","","","","",""
"pit-trial","28","373727","0.0-2.0-11.0-1.0","battery-v0.2","","""event"",""trial"",""time""
""fullscreenenter"",""1"",""2008""
","
","
","""event"",""trial"",""time""
""fullscreenenter"",""1"",""2008""
","
","","","-1","","","12","1640","190","&#9761;","elianto","#3366ff99","-1","-1","1","+10","[]","0","0","2","","","","","","","","",""
"pit-trial","29","378580","0.0-2.0-11.0-2.0","battery-v0.2","","""event"",""trial"",""time""
""fullscreenenter"",""1"",""2008""
","
","
","""event"",""trial"",""time""
""fullscreenenter"",""1"",""2008""
","
","","","-1","","","12","1640","190","&#9761;","elianto","#3366ff99","-1","-1","1","+10","[]","0","0","2","","","","","","","","",""
"pit-trial","30","381877","0.0-2.0-11.0-3.0","battery-v0.2","","""event"",""trial"",""time""
""fullscreenenter"",""1"",""2008""
","
","
","""event"",""trial"",""time""
""fullscreenenter"",""1"",""2008""
","
","","","443.1999999997206","","","12","1640","190","&#9761;","elianto","#3366ff99","-1"," ","0","+10","[1293.2000000001863]","1","0","2","","","","","","","","",""
"pit-trial","31","386730","0.0-2.0-11.0-4.0","battery-v0.2","","""event"",""trial"",""time""
""fullscreenenter"",""1"",""2008""
","
","
","""event"",""trial"",""time""
""fullscreenenter"",""1"",""2008""
","
","","","-1","","","12","1640","190","&#9761;","elianto","#3366ff99","-1","-1","1","+10","[]","0","0","2","","","","","","","","",""
"pit-trial","32","391584","0.0-2.0-11.1-0.1","battery-v0.2","","""event"",""trial"",""time""
""fullscreenenter"",""1"",""2008""
","
","
","""event"",""trial"",""time""
""fullscreenenter"",""1"",""2008""
","
","","","-1","","","12","1640","190","&#9761;","elianto","#3366ff99","-1","-1","1","+10","[]","0","0","2","","","","","","","","",""
"pit-trial","33","396438","0.0-2.0-11.1-1.1","battery-v0.2","","""event"",""trial"",""time""
""fullscreenenter"",""1"",""2008""
","
","
","""event"",""trial"",""time""
""fullscreenenter"",""1"",""2008""
","
","","","-1","","","12","1640","190","&#9761;","elianto","#3366ff99","-1","-1","1","+10","[]","0","0","2","","","","","","","","",""
"pit-trial","34","401291","0.0-2.0-11.1-2.1","battery-v0.2","","""event"",""trial"",""time""
""fullscreenenter"",""1"",""2008""
","
","
","""event"",""trial"",""time""
""fullscreenenter"",""1"",""2008""
","
","","","-1","","","12","1640","190","&#9761;","elianto","#3366ff99","-1","-1","1","+10","[]","0","0","2","","","","","","","","",""
"pit-trial","35","406145","0.0-2.0-11.1-3.1","battery-v0.2","","""event"",""trial"",""time""
""fullscreenenter"",""1"",""2008""
","
","
","""event"",""trial"",""time""
""fullscreenenter"",""1"",""2008""
","
","","","-1","","","12","1640","190","&#9761;","elianto","#3366ff99","-1","-1","1","0","[]","0","0","2","","","","","","","","",""
"pit-trial","36","410998","0.0-2.0-11.1-4.1","battery-v0.2","","""event"",""trial"",""time""
""fullscreenenter"",""1"",""2008""
","
","
","""event"",""trial"",""time""
""fullscreenenter"",""1"",""2008""
","
","","","-1","","","12","1640","190","&#9761;","elianto","#3366ff99","-1","-1","1","+10","[]","0","0","2","","","","","","","","",""
"call-function","37","411000","0.0-2.0-12.0","battery-v0.2","","""event"",""trial"",""time""
""fullscreenenter"",""1"",""2008""
","
","
","""event"",""trial"",""time""
""fullscreenenter"",""1"",""2008""
","
","","","","","","","","","","","","","","","","","","","","","","","","","","","",""
"pit-instructions","38","446126","0.0-2.0-13.0","battery-v0.2","","""event"",""trial"",""time""
""fullscreenenter"",""1"",""2008""
","
","
","""event"",""trial"",""time""
""fullscreenenter"",""1"",""2008""
","
","","[{""page_index"":0,""viewing_time"":5836.600000000093},{""page_index"":1,""viewing_time"":7548.799999999814},{""page_index"":2,""viewing_time"":4821.700000000186},{""page_index"":3,""viewing_time"":10928.19999999972},{""page_index"":4,""viewing_time"":5988.600000000093}]","35125.19999999972","","","","","","","","","","","","","","","","","","","","","","","","",""
"pit-trial","39","449492","0.0-2.0-14.0-0.0","battery-v0.2","","""event"",""trial"",""time""
""fullscreenenter"",""1"",""2008""
","
","
","""event"",""trial"",""time""
""fullscreenenter"",""1"",""2008""
","
","","","512.6999999997206","","","12","1640","190","&#9826;","elianto","#f73b6a7A","-1"," ","0","-10","[1362.8999999999069]","1","0","3","","","","","","","","",""
"pit-trial","40","452541","0.0-2.0-14.0-1.0","battery-v0.2","","""event"",""trial"",""time""
""fullscreenenter"",""1"",""2008""
","
","
","""event"",""trial"",""time""
""fullscreenenter"",""1"",""2008""
","
","","","194.60000000009313","","","12","1640","190","&#9826;","elianto","#f73b6a7A","-1"," ","0","-10","[1044.8000000002794]","1","0","3","","","","","","","","",""
"pit-trial","41","457394","0.0-2.0-14.0-2.0","battery-v0.2","","""event"",""trial"",""time""
""fullscreenenter"",""1"",""2008""
","
","
","""event"",""trial"",""time""
""fullscreenenter"",""1"",""2008""
","
","","","-1","","","12","1640","190","&#9826;","elianto","#f73b6a7A","-1","-1","1","0","[]","0","0","3","","","","","","","","",""
"pit-trial","42","462248","0.0-2.0-14.0-3.0","battery-v0.2","","""event"",""trial"",""time""
""fullscreenenter"",""1"",""2008""
","
","
","""event"",""trial"",""time""
""fullscreenenter"",""1"",""2008""
","
","","","-1","","","12","1640","190","&#9826;","elianto","#f73b6a7A","-1","-1","1","-10","[]","0","0","3","","","","","","","","",""
"pit-trial","43","467102","0.0-2.0-14.0-4.0","battery-v0.2","","""event"",""trial"",""time""
""fullscreenenter"",""1"",""2008""
","
","
","""event"",""trial"",""time""
""fullscreenenter"",""1"",""2008""
","
","","","-1","","","12","1640","190","&#9826;","elianto","#f73b6a7A","-1","-1","1","0","[]","0","0","3","","","","","","","","",""
"pit-trial","44","471956","0.0-2.0-14.1-0.1","battery-v0.2","","""event"",""trial"",""time""
""fullscreenenter"",""1"",""2008""
","
","
","""event"",""trial"",""time""
""fullscreenenter"",""1"",""2008""
","
","","","-1","","","12","1640","190","&#9826;","elianto","#f73b6a7A","-1","-1","1","0","[]","0","0","3","","","","","","","","",""
"pit-trial","45","476810","0.0-2.0-14.1-1.1","battery-v0.2","","""event"",""trial"",""time""
""fullscreenenter"",""1"",""2008""
","
","
","""event"",""trial"",""time""
""fullscreenenter"",""1"",""2008""
","
","","","-1","","","12","1640","190","&#9826;","elianto","#f73b6a7A","-1","-1","1","0","[]","0","0","3","","","","","","","","",""
"pit-trial","46","481664","0.0-2.0-14.1-2.1","battery-v0.2","","""event"",""trial"",""time""
""fullscreenenter"",""1"",""2008""
","
","
","""event"",""trial"",""time""
""fullscreenenter"",""1"",""2008""
","
","","","-1","","","12","1640","190","&#9826;","elianto","#f73b6a7A","-1","-1","1","0","[]","0","0","3","","","","","","","","",""
"pit-trial","47","484927","0.0-2.0-14.1-3.1","battery-v0.2","","""event"",""trial"",""time""
""fullscreenenter"",""1"",""2008""
","
","
","""event"",""trial"",""time""
""fullscreenenter"",""1"",""2008""
","
","","","409.39999999990687","","","12","1640","190","&#9826;","elianto","#f73b6a7A","-1"," ","0","0","[1259.6000000000931]","1","0","3","","","","","","","","",""
"pit-trial","48","489781","0.0-2.0-14.1-4.1","battery-v0.2","","""event"",""trial"",""time""
""fullscreenenter"",""1"",""2008""
","
","
","""event"",""trial"",""time""
""fullscreenenter"",""1"",""2008""
","
","","","-1","","","12","1640","190","&#9826;","elianto","#f73b6a7A","-1","-1","1","0","[]","0","0","3","","","","","","","","",""
"pit-trial","49","494635","0.0-2.0-14.2-0.2","battery-v0.2","","""event"",""trial"",""time""
""fullscreenenter"",""1"",""2008""
","
","
","""event"",""trial"",""time""
""fullscreenenter"",""1"",""2008""
","
","","","-1","","","12","1640","190","&#9826;","elianto","#f73b6a7A","-1","-1","1","0","[]","0","0","3","","","","","","","","",""
"pit-trial","50","499488","0.0-2.0-14.2-1.2","battery-v0.2","","""event"",""trial"",""time""
""fullscreenenter"",""1"",""2008""
","
","
","""event"",""trial"",""time""
""fullscreenenter"",""1"",""2008""
","
","","","-1","","","12","1640","190","&#9826;","elianto","#f73b6a7A","-1","-1","1","0","[]","0","0","3","","","","","","","","",""
"pit-trial","51","504341","0.0-2.0-14.2-2.2","battery-v0.2","","""event"",""trial"",""time""
""fullscreenenter"",""1"",""2008""
","
","
","""event"",""trial"",""time""
""fullscreenenter"",""1"",""2008""
","
","","","-1","","","12","1640","190","&#9826;","elianto","#f73b6a7A","-1","-1","1","0","[]","0","0","3","","","","","","","","",""
"pit-trial","52","507362","0.0-2.0-14.2-3.2","battery-v0.2","","""event"",""trial"",""time""
""fullscreenenter"",""1"",""2008""
","
","
","""event"",""trial"",""time""
""fullscreenenter"",""1"",""2008""
","
","","","168.10000000009313","","","12","1640","190","&#9826;","elianto","#f73b6a7A","-1"," ","0","0","[1018.3000000002794]","1","0","3","","","","","","","","",""
"pit-trial","53","512215","0.0-2.0-14.2-4.2","battery-v0.2","","""event"",""trial"",""time""
""fullscreenenter"",""1"",""2008""
","
","
","""event"",""trial"",""time""
""fullscreenenter"",""1"",""2008""
","
","","","-1","","","12","1640","190","&#9826;","elianto","#f73b6a7A","-1","-1","1","0","[]","0","0","3","","","","","","","","",""
"pit-trial","54","517069","0.0-2.0-14.3-0.3","battery-v0.2","","""event"",""trial"",""time""
""fullscreenenter"",""1"",""2008""
","
","
","""event"",""trial"",""time""
""fullscreenenter"",""1"",""2008""
","
","","","-1","","","12","1640","190","&#9826;","elianto","#f73b6a7A","-1","-1","1","0","[]","0","0","3","","","","","","","","",""
"pit-trial","55","521922","0.0-2.0-14.3-1.3","battery-v0.2","","""event"",""trial"",""time""
""fullscreenenter"",""1"",""2008""
","
","
","""event"",""trial"",""time""
""fullscreenenter"",""1"",""2008""
","
","","","-1","","","12","1640","190","&#9826;","elianto","#f73b6a7A","-1","-1","1","0","[]","0","0","3","","","","","","","","",""
"pit-trial","56","525486","0.0-2.0-14.3-2.3","battery-v0.2","","""event"",""trial"",""time""
""fullscreenenter"",""1"",""2008""
","
","
","""event"",""trial"",""time""
""fullscreenenter"",""1"",""2008""
","
","","","711.5","","","12","1640","190","&#9826;","elianto","#f73b6a7A","-1"," ","0","-10","[1561.8999999999069]","1","0","3","","","","","","","","",""
"pit-trial","57","528401","0.0-2.0-14.3-3.3","battery-v0.2","","""event"",""trial"",""time""
""fullscreenenter"",""1"",""2008""
","
","
","""event"",""trial"",""time""
""fullscreenenter"",""1"",""2008""
","
","","","61.6999999997206","","","12","1640","190","&#9826;","elianto","#f73b6a7A","-1"," ","0","0","[912]","1","0","3","","","","","","","","",""
"pit-trial","58","533254","0.0-2.0-14.3-4.3","battery-v0.2","","""event"",""trial"",""time""
""fullscreenenter"",""1"",""2008""
","
","
","""event"",""trial"",""time""
""fullscreenenter"",""1"",""2008""
","
","","","-1","","","12","1640","190","&#9826;","elianto","#f73b6a7A","-1","-1","1","0","[]","0","0","3","","","","","","","","",""
"pit-trial","59","538108","0.0-2.0-14.4-0.4","battery-v0.2","","""event"",""trial"",""time""
""fullscreenenter"",""1"",""2008""
","
","
","""event"",""trial"",""time""
""fullscreenenter"",""1"",""2008""
","
","","","-1","","","12","1640","190","&#9826;","elianto","#f73b6a7A","-1","-1","1","0","[]","0","0","3","","","","","","","","",""
"pit-trial","60","542962","0.0-2.0-14.4-1.4","battery-v0.2","","""event"",""trial"",""time""
""fullscreenenter"",""1"",""2008""
","
","
","""event"",""trial"",""time""
""fullscreenenter"",""1"",""2008""
","
","","","-1","","","12","1640","190","&#9826;","elianto","#f73b6a7A","-1","-1","1","0","[]","0","0","3","","","","","","","","",""
"pit-trial","61","547816","0.0-2.0-14.4-2.4","battery-v0.2","","""event"",""trial"",""time""
""fullscreenenter"",""1"",""2008""
","
","
","""event"",""trial"",""time""
""fullscreenenter"",""1"",""2008""
","
","","","-1","","","12","1640","190","&#9826;","elianto","#f73b6a7A","-1","-1","1","0","[]","0","0","3","","","","","","","","",""
"pit-trial","62","550891","0.0-2.0-14.4-3.4","battery-v0.2","","""event"",""trial"",""time""
""fullscreenenter"",""1"",""2008""
","
","
","""event"",""trial"",""time""
""fullscreenenter"",""1"",""2008""
","
","","","221.60000000009313","","","12","1640","190","&#9826;","elianto","#f73b6a7A","-1"," ","0","0","[1071.7999999998137]","1","0","3","","","","","","","","",""
"pit-trial","63","555744","0.0-2.0-14.4-4.4","battery-v0.2","","""event"",""trial"",""time""
""fullscreenenter"",""1"",""2008""
","
","
","""event"",""trial"",""time""
""fullscreenenter"",""1"",""2008""
","
","","","-1","","","12","1640","190","&#9826;","elianto","#f73b6a7A","-1","-1","1","0","[]","0","0","3","","","","","","","","",""
"pit-instructions","64","578074","0.0-2.0-14.4-5.4-0.4","battery-v0.2","","""event"",""trial"",""time""
""fullscreenenter"",""1"",""2008""
","
","
","""event"",""trial"",""time""
""fullscreenenter"",""1"",""2008""
","
","","[{""page_index"":0,""viewing_time"":6980.100000000093},{""page_index"":1,""viewing_time"":5349.600000000093},{""page_index"":2,""viewing_time"":9996.5}]","22327.600000000093","","","","","","","","","","","","","","","","","","","","","","","","",""
"pit-trial","65","582928","0.0-2.0-14.5-0.5","battery-v0.2","","""event"",""trial"",""time""
""fullscreenenter"",""1"",""2008""
","
","
","""event"",""trial"",""time""
""fullscreenenter"",""1"",""2008""
","
","","","-1","","","12","1640","190","&#9826;","elianto","#f73b6a7A","-1","-1","1","0","[]","0","0","3","","","","","","","","",""
"pit-trial","66","587782","0.0-2.0-14.5-1.5","battery-v0.2","","""event"",""trial"",""time""
""fullscreenenter"",""1"",""2008""
","
","
","""event"",""trial"",""time""
""fullscreenenter"",""1"",""2008""
","
","","","-1","","","12","1640","190","&#9826;","elianto","#f73b6a7A","-1","-1","1","0","[]","0","0","3","","","","","","","","",""
"pit-trial","67","592636","0.0-2.0-14.5-2.5","battery-v0.2","","""event"",""trial"",""time""
""fullscreenenter"",""1"",""2008""
","
","
","""event"",""trial"",""time""
""fullscreenenter"",""1"",""2008""
","
","","","-1","","","12","1640","190","&#9826;","elianto","#f73b6a7A","-1","-1","1","0","[]","0","0","3","","","","","","","","",""
"pit-trial","68","597490","0.0-2.0-14.5-3.5","battery-v0.2","","""event"",""trial"",""time""
""fullscreenenter"",""1"",""2008""
","
","
","""event"",""trial"",""time""
""fullscreenenter"",""1"",""2008""
","
","","","-1","","","12","1640","190","&#9826;","elianto","#f73b6a7A","-1","-1","1","-10","[]","0","0","3","","","","","","","","",""
"pit-trial","69","602343","0.0-2.0-14.5-4.5","battery-v0.2","","""event"",""trial"",""time""
""fullscreenenter"",""1"",""2008""
","
","
","""event"",""trial"",""time""
""fullscreenenter"",""1"",""2008""
","
","","","-1","","","12","1640","190","&#9826;","elianto","#f73b6a7A","-1","-1","1","0","[]","0","0","3","","","","","","","","",""
"call-function","70","602345","0.0-2.0-15.0","battery-v0.2","","""event"",""trial"",""time""
""fullscreenenter"",""1"",""2008""
","
","
","""event"",""trial"",""time""
""fullscreenenter"",""1"",""2008""
","
","","","","","","","","","","","","","","","","","","","","","","","","","","","",""
"pit-instructions","71","631802","0.0-2.0-16.0","battery-v0.2","","""event"",""trial"",""time""
""fullscreenenter"",""1"",""2008""
","
","
","""event"",""trial"",""time""
""fullscreenenter"",""1"",""2008""
","
","","[{""page_index"":0,""viewing_time"":6817.100000000093},{""page_index"":1,""viewing_time"":9719.799999999814},{""page_index"":2,""viewing_time"":6585.600000000093},{""page_index"":3,""viewing_time"":6332.299999999814}]","29456.200000000186","","","","","","","","","","","","","","","","","","","","","","","","",""
"pit-trial","72","635296","0.0-2.0-17.0-0.0","battery-v0.2","","""event"",""trial"",""time""
""fullscreenenter"",""1"",""2008""
","
","
","""event"",""trial"",""time""
""fullscreenenter"",""1"",""2008""
","
","","","639.2000000001863","","","12","1640","190","&#9789;","elianto","#f73b6a7A"," "," ","1","0","[1489.2999999998137]","1","0","4","","","","","","","","",""
"pit-trial","73","638539","0.0-2.0-17.0-1.0","battery-v0.2","","""event"",""trial"",""time""
""fullscreenenter"",""1"",""2008""
","
","
","""event"",""trial"",""time""
""fullscreenenter"",""1"",""2008""
","
","","","388.90000000037253","","","12","1640","190","&#9789;","elianto","#f73b6a7A"," "," ","1","0","[1239.1000000000931]","1","0","4","","","","","","","","",""
"pit-trial","74","641491","0.0-2.0-17.0-2.0","battery-v0.2","","""event"",""trial"",""time""
""fullscreenenter"",""1"",""2008""
","
","
","""event"",""trial"",""time""
""fullscreenenter"",""1"",""2008""
","
","","","98.20000000018626","","","12","1640","190","&#9789;","elianto","#f73b6a7A"," "," ","1","0","[948.3999999999069]","1","0","4","","","","","","","","",""
"pit-trial","75","644879","0.0-2.0-17.0-3.0","battery-v0.2","","""event"",""trial"",""time""
""fullscreenenter"",""1"",""2008""
","
","
","""event"",""trial"",""time""
""fullscreenenter"",""1"",""2008""
","
","","","534.4000000003725","","","12","1640","190","&#9789;","elianto","#f73b6a7A"," "," ","1","-10","[754.6999999997206,1384.6000000000931]","2","0","4","","","","","","","","",""
"pit-trial","76","647980","0.0-2.0-17.0-4.0","battery-v0.2","","""event"",""trial"",""time""
""fullscreenenter"",""1"",""2008""
","
","
","""event"",""trial"",""time""
""fullscreenenter"",""1"",""2008""
","
","","","243.89999999990687","","","12","1640","190","&#9789;","elianto","#f73b6a7A"," "," ","1","0","[1096,2089.2999999998137]","2","0","4","","","","","","","","",""
"call-function","77","647982","0.0-2.0-18.0","battery-v0.2","","""event"",""trial"",""time""
""fullscreenenter"",""1"",""2008""
","
","
","""event"",""trial"",""time""
""fullscreenenter"",""1"",""2008""
","
","","","","","","","","","","","","","","","","","","","","","","","","","","","",""
"pit-instructions","78","698454","0.0-2.0-19.0","battery-v0.2","","""event"",""trial"",""time""
""fullscreenenter"",""1"",""2008""
","
","
","""event"",""trial"",""time""
""fullscreenenter"",""1"",""2008""
","
","","[{""page_index"":0,""viewing_time"":6014.600000000093},{""page_index"":1,""viewing_time"":6491.799999999814},{""page_index"":2,""viewing_time"":8017.799999999814},{""page_index"":3,""viewing_time"":4444.600000000093},{""page_index"":4,""viewing_time"":6030},{""page_index"":5,""viewing_time"":8256},{""page_index"":6,""viewing_time"":4051.2000000001863},{""page_index"":7,""viewing_time"":4085.399999999907},{""page_index"":8,""viewing_time"":3078.7000000001863}]","50470.60000000009","","","","","","","","","","","","","","","","","","","","","","","","",""
"pit-comprehension","79","703183","0.0-2.0-20.0-0.0","battery-v0.2","","""event"",""trial"",""time""
""fullscreenenter"",""1"",""2008""
","
","
","""event"",""trial"",""time""
""fullscreenenter"",""1"",""2008""
","
","","","4720.899999999907","[""SPACE""]","0","12","1640","190","","","","","","","","","","","","","","","","","","","",""
"pit-instructions","80","705744","0.0-2.0-20.0-1.0","battery-v0.2","","""event"",""trial"",""time""
""fullscreenenter"",""1"",""2008""
","
","
","""event"",""trial"",""time""
""fullscreenenter"",""1"",""2008""
","
","","[{""page_index"":0,""viewing_time"":2531.7000000001863}]","2532.600000000093","","","","","","","","","","","","","","","","","","","","","","","","",""
"pit-comprehension","81","710000","0.0-2.0-21.0-0.0","battery-v0.2","","""event"",""trial"",""time""
""fullscreenenter"",""1"",""2008""
","
","
","""event"",""trial"",""time""
""fullscreenenter"",""1"",""2008""
","
","","","4248.899999999907","[""10""]","0","12","1640","190","","","","","","","","","","","","","","","","","","","",""
"pit-instructions","82","711513","0.0-2.0-21.0-1.0","battery-v0.2","","""event"",""trial"",""time""
""fullscreenenter"",""1"",""2008""
","
","
","""event"",""trial"",""time""
""fullscreenenter"",""1"",""2008""
","
","","[{""page_index"":0,""viewing_time"":1485.7999999998137}]","1486.1999999997206","","","","","","","","","","","","","","","","","","","","","","","","",""
"pit-comprehension","83","717527","0.0-2.0-22.0-0.0","battery-v0.2","","""event"",""trial"",""time""
""fullscreenenter"",""1"",""2008""
","
","
","""event"",""trial"",""time""
""fullscreenenter"",""1"",""2008""
","
","","","6007.399999999907","[""0""]","0","12","1640","190","","","","","","","","","","","","","","","","","","","",""
"pit-instructions","84","718919","0.0-2.0-22.0-1.0","battery-v0.2","","""event"",""trial"",""time""
""fullscreenenter"",""1"",""2008""
","
","
","""event"",""trial"",""time""
""fullscreenenter"",""1"",""2008""
","
","","[{""page_index"":0,""viewing_time"":1362.6000000000931}]","1363.3000000002794","","","","","","","","","","","","","","","","","","","","","","","","",""
"pit-comprehension","85","727035","0.0-2.0-23.0-0.0","battery-v0.2","","""event"",""trial"",""time""
""fullscreenenter"",""1"",""2008""
","
","
","""event"",""trial"",""time""
""fullscreenenter"",""1"",""2008""
","
","","","8109.799999999814","[""False""]","1","12","1640","190","","","","","","","","","","","","","","","","","","","",""
"pit-instructions","86","731811","0.0-2.0-23.0-1.0","battery-v0.2","","""event"",""trial"",""time""
""fullscreenenter"",""1"",""2008""
","
","
","""event"",""trial"",""time""
""fullscreenenter"",""1"",""2008""
","
","","[{""page_index"":0,""viewing_time"":4746.899999999907}]","4747.299999999814","","","","","","","","","","","","","","","","","","","","","","","","",""
"pit-instructions","87","733125","0.0-2.0-23.0-2.0-0.0","battery-v0.2","","""event"",""trial"",""time""
""fullscreenenter"",""1"",""2008""
","
","
","""event"",""trial"",""time""
""fullscreenenter"",""1"",""2008""
","
","","[{""page_index"":0,""viewing_time"":1311.2999999998137}]","1312","","","","","","","","","","","","","","","","","","","","","","","","",""
"pit-comprehension","88","741262","0.0-2.0-23.1-0.1","battery-v0.2","","""event"",""trial"",""time""
""fullscreenenter"",""1"",""2008""
","
","
","""event"",""trial"",""time""
""fullscreenenter"",""1"",""2008""
","
","","","8131.700000000186","[""True""]","0","12","1640","190","","","","","","","","","","","","","","","","","","","",""
"pit-instructions","89","742491","0.0-2.0-23.1-1.1","battery-v0.2","","""event"",""trial"",""time""
""fullscreenenter"",""1"",""2008""
","
","
","""event"",""trial"",""time""
""fullscreenenter"",""1"",""2008""
","
","","[{""page_index"":0,""viewing_time"":1199.7000000001863}]","1200.4000000003725","","","","","","","","","","","","","","","","","","","","","","","","",""
"pit-comprehension","90","750368","0.0-2.0-24.0-0.0","battery-v0.2","","""event"",""trial"",""time""
""fullscreenenter"",""1"",""2008""
","
","
","""event"",""trial"",""time""
""fullscreenenter"",""1"",""2008""
","
","","","7867.5","[""True""]","0","12","1640","190","","","","","","","","","","","","","","","","","","","",""
"pit-instructions","91","751598","0.0-2.0-24.0-1.0","battery-v0.2","","""event"",""trial"",""time""
""fullscreenenter"",""1"",""2008""
","
","
","""event"",""trial"",""time""
""fullscreenenter"",""1"",""2008""
","
","","[{""page_index"":0,""viewing_time"":1197.2999999998137}]","1197.8999999999069","","","","","","","","","","","","","","","","","","","","","","","","",""
"pit-comprehension","92","757647","0.0-2.0-25.0-0.0","battery-v0.2","","""event"",""trial"",""time""
""fullscreenenter"",""1"",""2008""
","
","
","""event"",""trial"",""time""
""fullscreenenter"",""1"",""2008""
","
","","","6042.199999999721","[""True""]","0","12","1640","190","","","","","","","","","","","","","","","","","","","",""
"pit-instructions","93","758866","0.0-2.0-25.0-1.0","battery-v0.2","","""event"",""trial"",""time""
""fullscreenenter"",""1"",""2008""
","
","
","""event"",""trial"",""time""
""fullscreenenter"",""1"",""2008""
","
","","[{""page_index"":0,""viewing_time"":1188.8999999999069}]","1189.8999999999069","","","","","","","","","","","","","","","","","","","","","","","","",""
"pit-comprehension","94","763364","0.0-2.0-26.0-0.0","battery-v0.2","","""event"",""trial"",""time""
""fullscreenenter"",""1"",""2008""
","
","
","""event"",""trial"",""time""
""fullscreenenter"",""1"",""2008""
","
","","","4493.5","[""False""]","0","12","1640","190","","","","","","","","","","","","","","","","","","","",""
"pit-instructions","95","764785","0.0-2.0-26.0-1.0","battery-v0.2","","""event"",""trial"",""time""
""fullscreenenter"",""1"",""2008""
","
","
","""event"",""trial"",""time""
""fullscreenenter"",""1"",""2008""
","
","","[{""page_index"":0,""viewing_time"":1390.6000000000931}]","1391","","","","","","","","","","","","","","","","","","","","","","","","",""
"pit-instructions","96","790315","0.0-3.0","battery-v0.2","","""event"",""trial"",""time""
""fullscreenenter"",""1"",""2008""
","
","
","""event"",""trial"",""time""
""fullscreenenter"",""1"",""2008""
","
","","[{""page_index"":0,""viewing_time"":5143.0999999996275},{""page_index"":1,""viewing_time"":11218.80000000028},{""page_index"":2,""viewing_time"":9164.19999999972}]","25526.599999999627","","","","","","","","","","","","","","","","","","","","","","","","",""
"pit-trial","97","793790","0.0-4.0","battery-v0.2","","""event"",""trial"",""time""
""fullscreenenter"",""1"",""2008""
","
","
","""event"",""trial"",""time""
""fullscreenenter"",""1"",""2008""
","
","","","617.5","","","12","1640","190","&#9730;","elianto","#3366ff99"," "," ","1","+10","[1467.8999999999069]","1","1","","","1640","1","1","1","win","go","0","[]"
"pit-trial","98","798643","0.0-5.0","battery-v0.2","","""event"",""trial"",""time""
""fullscreenenter"",""1"",""2008""
","
","
","""event"",""trial"",""time""
""fullscreenenter"",""1"",""2008""
","
","","","-1","","","12","1640","190","&#9752;","elianto","#f73b6a7A"," ","-1","0","-10","[]","0","1","","","1640","2","3","3","lose","go","0","0"
"pit-trial","99","802484","0.0-6.0","battery-v0.2","","""event"",""trial"",""time""
""fullscreenenter"",""1"",""2008""
","
","
","""event"",""trial"",""time""
""fullscreenenter"",""1"",""2008""
","
","","","986.6000000000931","","","12","1640","190","&#9733;","elianto","#3366ff99","-1"," ","0","0","[1836.7000000001863]","1","1","","","1640","3","2","2","win","no-go","0","0"
"pit-trial","100","807338","0.0-7.0","battery-v0.2","","""event"",""trial"",""time""
""fullscreenenter"",""1"",""2008""
","
","
","""event"",""trial"",""time""
""fullscreenenter"",""1"",""2008""
","
","","","-1","","","12","1640","190","&#9728;","elianto","#f73b6a7A","-1","-1","1","0","[]","0","1","","","1640","4","0","4","lose","no-go","0","0"
"pit-trial","101","811255","0.0-8.0","battery-v0.2","","""event"",""trial"",""time""
""fullscreenenter"",""1"",""2008""
","
","
","""event"",""trial"",""time""
""fullscreenenter"",""1"",""2008""
","
","","","1063.3999999999069","","","12","1640","190","&#9730;","elianto","#3366ff99"," "," ","1","+10","[1913.5]","1","1","","","1640","5","1","1","win","go","0","0"
"pit-trial","102","815390","0.0-9.0","battery-v0.2","","""event"",""trial"",""time""
""fullscreenenter"",""1"",""2008""
","
","
","""event"",""trial"",""time""
""fullscreenenter"",""1"",""2008""
","
","","","1281.5999999996275","","","12","1640","190","&#9752;","elianto","#f73b6a7A"," "," ","1","0","[2131.6999999997206]","1","1","","","1640","6","3","3","lose","go","0","0"
"pit-trial","103","820243","0.0-10.0","battery-v0.2","","""event"",""trial"",""time""
""fullscreenenter"",""1"",""2008""
","
","
","""event"",""trial"",""time""
""fullscreenenter"",""1"",""2008""
","
","","","-1","","","12","1640","190","&#9728;","elianto","#f73b6a7A","-1","-1","1","0","[]","0","1","","","1640","7","0","4","lose","no-go","0","0"
"pit-trial","104","825096","0.0-11.0","battery-v0.2","","""event"",""trial"",""time""
""fullscreenenter"",""1"",""2008""
","
","
","""event"",""trial"",""time""
""fullscreenenter"",""1"",""2008""
","
","","","-1","","","12","1640","190","&#9733;","elianto","#3366ff99","-1","-1","1","+10","[]","0","1","","","1640","8","2","2","win","no-go","0","0"
"pit-trial","105","828714","0.0-12.0","battery-v0.2","","""event"",""trial"",""time""
""fullscreenenter"",""1"",""2008""
","
","
","""event"",""trial"",""time""
""fullscreenenter"",""1"",""2008""
","
","","","764","","","12","1640","190","&#9730;","elianto","#3366ff99"," "," ","1","0","[1614.2000000001863]","1","1","","","1640","9","1","1","win","go","1","0"
"pit-trial","106","833321","0.0-13.0","battery-v0.2","","""event"",""trial"",""time""
""fullscreenenter"",""1"",""2008""
","
","
","""event"",""trial"",""time""
""fullscreenenter"",""1"",""2008""
","
","","","1753.6000000000931","","","12","1640","190","&#9752;","elianto","#f73b6a7A"," "," ","1","0","[2604.1999999997206]","1","1","","","1640","10","3","3","lose","go","0","0"
"pit-trial","107","838175","0.0-14.0","battery-v0.2","","""event"",""trial"",""time""
""fullscreenenter"",""1"",""2008""
","
","
","""event"",""trial"",""time""
""fullscreenenter"",""1"",""2008""
","
","","","-1","","","12","1640","190","&#9728;","elianto","#f73b6a7A","-1","-1","1","0","[]","0","1","","","1640","11","0","4","lose","no-go","0","0"
"pit-trial","108","843029","0.0-15.0","battery-v0.2","","""event"",""trial"",""time""
""fullscreenenter"",""1"",""2008""
","
","
","""event"",""trial"",""time""
""fullscreenenter"",""1"",""2008""
","
","","","-1","","","12","1640","190","&#9733;","elianto","#3366ff99","-1","-1","1","+10","[]","0","1","","","1640","12","2","2","win","no-go","0","0"
"pit-trial","109","847883","0.0-16.0","battery-v0.2","","""event"",""trial"",""time""
""fullscreenenter"",""1"",""2008""
","
","
","""event"",""trial"",""time""
""fullscreenenter"",""1"",""2008""
","
","","","-1","","","12","1640","190","&#9733;","elianto","#3366ff99","-1","-1","1","+10","[]","0","1","","","1640","13","2","2","win","no-go","0","0"
"pit-trial","110","852521","0.0-17.0","battery-v0.2","","""event"",""trial"",""time""
""fullscreenenter"",""1"",""2008""
","
","
","""event"",""trial"",""time""
""fullscreenenter"",""1"",""2008""
","
","","","1783","","","12","1640","190","&#9752;","elianto","#f73b6a7A"," "," ","1","-10","[2634.1999999997206]","1","1","","","1640","14","3","3","lose","go","1","0"
"pit-trial","111","857375","0.0-18.0","battery-v0.2","","""event"",""trial"",""time""
""fullscreenenter"",""1"",""2008""
","
","
","""event"",""trial"",""time""
""fullscreenenter"",""1"",""2008""
","
","","","-1","","","12","1640","190","&#9728;","elianto","#f73b6a7A","-1","-1","1","0","[]","0","1","","","1640","15","0","4","lose","no-go","0","0"
"pit-trial","112","860624","0.0-19.0","battery-v0.2","","""event"",""trial"",""time""
""fullscreenenter"",""1"",""2008""
","
","
","""event"",""trial"",""time""
""fullscreenenter"",""1"",""2008""
","
","","","396.09999999962747","","","12","1640","190","&#9730;","elianto","#3366ff99"," "," ","1","+10","[1246.3000000002794]","1","1","","","1640","16","1","1","win","go","0","0"
"pit-trial","113","865478","0.0-20.0","battery-v0.2","","""event"",""trial"",""time""
""fullscreenenter"",""1"",""2008""
","
","
","""event"",""trial"",""time""
""fullscreenenter"",""1"",""2008""
","
","","","-1","","","12","1640","190","&#9733;","elianto","#3366ff99","-1","-1","1","+10","[]","0","1","","","1640","17","2","2","win","no-go","0","0"
"pit-trial","114","868956","0.0-21.0","battery-v0.2","","""event"",""trial"",""time""
""fullscreenenter"",""1"",""2008""
","
","
","""event"",""trial"",""time""
""fullscreenenter"",""1"",""2008""
","
","","","625.1000000000931","","","12","1640","190","&#9752;","elianto","#f73b6a7A"," "," ","1","0","[1475.1999999997206]","1","1","","","1640","18","3","3","lose","go","0","0"
"pit-trial","115","872808","0.0-22.0","battery-v0.2","","""event"",""trial"",""time""
""fullscreenenter"",""1"",""2008""
","
","
","""event"",""trial"",""time""
""fullscreenenter"",""1"",""2008""
","
","","","998.5","","","12","1640","190","&#9730;","elianto","#3366ff99"," "," ","1","0","[1848.6000000000931]","1","1","","","1640","19","1","1","win","go","1","0"
"pit-trial","116","877661","0.0-23.0","battery-v0.2","","""event"",""trial"",""time""
""fullscreenenter"",""1"",""2008""
","
","
","""event"",""trial"",""time""
""fullscreenenter"",""1"",""2008""
","
","","","-1","","","12","1640","190","&#9728;","elianto","#f73b6a7A","-1","-1","1","-10","[]","0","1","","","1640","20","0","4","lose","no-go","1","0"
"pit-instructions","117","889761","0.0-24.0","battery-v0.2","","""event"",""trial"",""time""
""fullscreenenter"",""1"",""2008""
","
","
","""event"",""trial"",""time""
""fullscreenenter"",""1"",""2008""
","
","","[{""page_index"":0,""viewing_time"":6031.100000000093},{""page_index"":1,""viewing_time"":6066.299999999814}]","12098.600000000093","","","","","","","","","","","","","","","","","","","","","","","","",""
"pit-trial","118","893536","0.0-25.0","battery-v0.2","","""event"",""trial"",""time""
""fullscreenenter"",""1"",""2008""
","
","
","""event"",""trial"",""time""
""fullscreenenter"",""1"",""2008""
","
","","","918.6000000000931","","","12","1640","190","r","elianto","#f73b6a7A"," "," ","1","0","[1768.8000000002794]","1","2","","","1640","21","1","3","lose","go","0","0"
"pit-trial","119","898390","0.0-26.0","battery-v0.2","","""event"",""trial"",""time""
""fullscreenenter"",""1"",""2008""
","
","
","""event"",""trial"",""time""
""fullscreenenter"",""1"",""2008""
","
","","","-1","","","12","1640","190","h","elianto","#3366ff99"," ","-1","0","0","[]","0","2","","","1640","22","3","1","win","go","0","0"
"pit-trial","120","903244","0.0-27.0","battery-v0.2","","""event"",""trial"",""time""
""fullscreenenter"",""1"",""2008""
","
","
","""event"",""trial"",""time""
""fullscreenenter"",""1"",""2008""
","
","","","-1","","","12","1640","190","m","elianto","#3366ff99","-1","-1","1","+10","[]","0","2","","","1640","23","0","2","win","no-go","0","0"
"pit-trial","121","908098","0.0-28.0","battery-v0.2","","""event"",""trial"",""time""
""fullscreenenter"",""1"",""2008""
","
","
","""event"",""trial"",""time""
""fullscreenenter"",""1"",""2008""
","
","","","-1","","","12","1640","190","y","elianto","#f73b6a7A","-1","-1","1","-10","[]","0","2","","","1640","24","2","4","lose","no-go","1","0"
"pit-trial","122","912685","0.0-29.0","battery-v0.2","","""event"",""trial"",""time""
""fullscreenenter"",""1"",""2008""
","
","
","""event"",""trial"",""time""
""fullscreenenter"",""1"",""2008""
","
","","","1733.7000000001863","","","12","1640","190","m","elianto","#3366ff99","-1"," ","0","+10","[2583.899999999907]","1","2","","","1640","25","0","2","win","no-go","1","0"
"pit-trial","123","916148","0.0-30.0","battery-v0.2","","""event"",""trial"",""time""
""fullscreenenter"",""1"",""2008""
","
","
","""event"",""trial"",""time""
""fullscreenenter"",""1"",""2008""
","
","","","609.6999999997206","","","12","1640","190","h","elianto","#3366ff99"," "," ","1","+10","[1459.8000000002794]","1","2","","","1640","26","3","1","win","go","0","0"
"pit-trial","124","921002","0.0-31.0","battery-v0.2","","""event"",""trial"",""time""
""fullscreenenter"",""1"",""2008""
","
","
","""event"",""trial"",""time""
""fullscreenenter"",""1"",""2008""
","
","","","-1","","","12","1640","190","y","elianto","#f73b6a7A","-1","-1","1","0","[]","0","2","","","1640","27","2","4","lose","no-go","0","0"
"pit-trial","125","925395","0.0-32.0","battery-v0.2","","""event"",""trial"",""time""
""fullscreenenter"",""1"",""2008""
","
","
","""event"",""trial"",""time""
""fullscreenenter"",""1"",""2008""
","
","","","1538.7000000001863","","","12","1640","190","r","elianto","#f73b6a7A"," "," ","1","0","[2388.899999999907]","1","2","","","1640","28","1","3","lose","go","0","0"
"pit-trial","126","930249","0.0-33.0","battery-v0.2","","""event"",""trial"",""time""
""fullscreenenter"",""1"",""2008""
","
","
","""event"",""trial"",""time""
""fullscreenenter"",""1"",""2008""
","
","","","-1","","","12","1640","190","r","elianto","#f73b6a7A"," ","-1","0","-10","[]","0","2","","","1640","29","1","3","lose","go","0","0"
"pit-trial","127","934078","0.0-34.0","battery-v0.2","","""event"",""trial"",""time""
""fullscreenenter"",""1"",""2008""
","
","
","""event"",""trial"",""time""
""fullscreenenter"",""1"",""2008""
","
","","","974.5","","","12","1640","190","h","elianto","#3366ff99"," "," ","1","+10","[1824.5999999996275]","1","2","","","1640","30","3","1","win","go","0","0"
"pit-trial","128","937721","0.0-35.0","battery-v0.2","","""event"",""trial"",""time""
""fullscreenenter"",""1"",""2008""
","
","
","""event"",""trial"",""time""
""fullscreenenter"",""1"",""2008""
","
","","","789.5999999996275","","","12","1640","190","m","elianto","#3366ff99","-1"," ","0","0","[1639.7000000001863]","1","2","","","1640","31","0","2","win","no-go","0","0"
"pit-trial","129","942575","0.0-36.0","battery-v0.2","","""event"",""trial"",""time""
""fullscreenenter"",""1"",""2008""
","
","
","""event"",""trial"",""time""
""fullscreenenter"",""1"",""2008""
","
","","","-1","","","12","1640","190","y","elianto","#f73b6a7A","-1","-1","1","-10","[]","0","2","","","1640","32","2","4","lose","no-go","1","0"
"pit-trial","130","947209","0.0-37.0","battery-v0.2","","""event"",""trial"",""time""
""fullscreenenter"",""1"",""2008""
","
","
","""event"",""trial"",""time""
""fullscreenenter"",""1"",""2008""
","
","","","1780.1999999997206","","","12","1640","190","y","elianto","#f73b6a7A","-1"," ","0","-10","[2630.2999999998137]","1","2","","","1640","33","2","4","lose","no-go","0","0"
"pit-trial","131","951257","0.0-38.0","battery-v0.2","","""event"",""trial"",""time""
""fullscreenenter"",""1"",""2008""
","
","
","""event"",""trial"",""time""
""fullscreenenter"",""1"",""2008""
","
","","","1194.5","","","12","1640","190","h","elianto","#3366ff99"," "," ","1","+10","[2044.5999999996275]","1","2","","","1640","34","3","1","win","go","0","0"
"pit-trial","132","956111","0.0-39.0","battery-v0.2","","""event"",""trial"",""time""
""fullscreenenter"",""1"",""2008""
","
","
","""event"",""trial"",""time""
""fullscreenenter"",""1"",""2008""
","
","","","-1","","","12","1640","190","r","elianto","#f73b6a7A"," ","-1","0","-10","[]","0","2","","","1640","35","1","3","lose","go","0","0"
"pit-trial","133","960964","0.0-40.0","battery-v0.2","","""event"",""trial"",""time""
""fullscreenenter"",""1"",""2008""
","
","
","""event"",""trial"",""time""
""fullscreenenter"",""1"",""2008""
","
","","","-1","","","12","1640","190","m","elianto","#3366ff99","-1","-1","1","+10","[]","0","2","","","1640","36","0","2","win","no-go","0","0"
"pit-trial","134","965818","0.0-41.0","battery-v0.2","","""event"",""trial"",""time""
""fullscreenenter"",""1"",""2008""
","
","
","""event"",""trial"",""time""
""fullscreenenter"",""1"",""2008""
","
","","","-1","","","12","1640","190","m","elianto","#3366ff99","-1","-1","1","+10","[]","0","2","","","1640","37","0","2","win","no-go","0","0"
"pit-trial","135","969340","0.0-42.0","battery-v0.2","","""event"",""trial"",""time""
""fullscreenenter"",""1"",""2008""
","
","
","""event"",""trial"",""time""
""fullscreenenter"",""1"",""2008""
","
","","","668.5","","","12","1640","190","h","elianto","#3366ff99"," "," ","1","0","[1518.8999999999069]","1","2","","","1640","38","3","1","win","go","1","0"
"pit-trial","136","974194","0.0-43.0","battery-v0.2","","""event"",""trial"",""time""
""fullscreenenter"",""1"",""2008""
","
","
","""event"",""trial"",""time""
""fullscreenenter"",""1"",""2008""
","
","","","-1","","","12","1640","190","r","elianto","#f73b6a7A"," ","-1","0","-10","[]","0","2","","","1640","39","1","3","lose","go","0","0"
"pit-trial","137","979047","0.0-44.0","battery-v0.2","","""event"",""trial"",""time""
""fullscreenenter"",""1"",""2008""
","
","
","""event"",""trial"",""time""
""fullscreenenter"",""1"",""2008""
","
","","","-1","","","12","1640","190","y","elianto","#f73b6a7A","-1","-1","1","0","[]","0","2","","","1640","40","2","4","lose","no-go","0","0"
"pit-trial","138","983900","0.0-45.0","battery-v0.2","","""event"",""trial"",""time""
""fullscreenenter"",""1"",""2008""
","
","
","""event"",""trial"",""time""
""fullscreenenter"",""1"",""2008""
","
","","","-1","","","12","1640","190","m","elianto","#3366ff99","-1","-1","1","0","[]","0","2","","","1640","41","0","2","win","no-go","1","0"
"pit-trial","139","987799","0.0-46.0","battery-v0.2","","""event"",""trial"",""time""
""fullscreenenter"",""1"",""2008""
","
","
","""event"",""trial"",""time""
""fullscreenenter"",""1"",""2008""
","
","","","1045.3999999999069","","","12","1640","190","h","elianto","#3366ff99"," "," ","1","+10","[1895.6000000000931]","1","2","","","1640","42","3","1","win","go","0","0"
"pit-trial","140","992141","0.0-47.0","battery-v0.2","","""event"",""trial"",""time""
""fullscreenenter"",""1"",""2008""
","
","
","""event"",""trial"",""time""
""fullscreenenter"",""1"",""2008""
","
","","","1488.6999999997206","","","12","1640","190","r","elianto","#f73b6a7A"," "," ","1","0","[2338.7999999998137]","1","2","","","1640","43","1","3","lose","go","0","0"
"pit-trial","141","996994","0.0-48.0","battery-v0.2","","""event"",""trial"",""time""
""fullscreenenter"",""1"",""2008""
","
","
","""event"",""trial"",""time""
""fullscreenenter"",""1"",""2008""
","
","","","-1","","","12","1640","190","y","elianto","#f73b6a7A","-1","-1","1","0","[]","0","2","","","1640","44","2","4","lose","no-go","0","0"
"pit-trial","142","1001847","0.0-49.0","battery-v0.2","","""event"",""trial"",""time""
""fullscreenenter"",""1"",""2008""
","
","
","""event"",""trial"",""time""
""fullscreenenter"",""1"",""2008""
","
","","","-1","","","12","1640","190","y","elianto","#f73b6a7A","-1","-1","1","0","[]","0","2","","","1640","45","2","4","lose","no-go","0","0"
"pit-trial","143","1006701","0.0-50.0","battery-v0.2","","""event"",""trial"",""time""
""fullscreenenter"",""1"",""2008""
","
","
","""event"",""trial"",""time""
""fullscreenenter"",""1"",""2008""
","
","","","-1","","","12","1640","190","m","elianto","#3366ff99","-1","-1","1","0","[]","0","2","","","1640","46","0","2","win","no-go","1","0"
"pit-trial","144","1010383","0.0-51.0","battery-v0.2","","""event"",""trial"",""time""
""fullscreenenter"",""1"",""2008""
","
","
","""event"",""trial"",""time""
""fullscreenenter"",""1"",""2008""
","
","","","828.6999999997206","","","12","1640","190","h","elianto","#3366ff99"," "," ","1","+10","[1679]","1","2","","","1640","47","3","1","win","go","0","0"
"pit-trial","145","1015236","0.0-52.0","battery-v0.2","","""event"",""trial"",""time""
""fullscreenenter"",""1"",""2008""
","
","
","""event"",""trial"",""time""
""fullscreenenter"",""1"",""2008""
","
","","","-1","","","12","1640","190","r","elianto","#f73b6a7A"," ","-1","0","-10","[]","0","2","","","1640","48","1","3","lose","go","0","0"
"pit-trial","146","1020089","0.0-53.0","battery-v0.2","","""event"",""trial"",""time""
""fullscreenenter"",""1"",""2008""
","
","
","""event"",""trial"",""time""
""fullscreenenter"",""1"",""2008""
","
","","","-1","","","12","1640","190","y","elianto","#f73b6a7A","-1","-1","1","0","[]","0","2","","","1640","49","2","4","lose","no-go","0","0"
"pit-trial","147","1023816","0.0-54.0","battery-v0.2","","""event"",""trial"",""time""
""fullscreenenter"",""1"",""2008""
","
","
","""event"",""trial"",""time""
""fullscreenenter"",""1"",""2008""
","
","","","870","","","12","1640","190","m","elianto","#3366ff99","-1"," ","0","0","[1723.4000000003725]","1","2","","","1640","50","0","2","win","no-go","0","0"
"pit-trial","148","1027521","0.0-55.0","battery-v0.2","","""event"",""trial"",""time""
""fullscreenenter"",""1"",""2008""
","
","
","""event"",""trial"",""time""
""fullscreenenter"",""1"",""2008""
","
","","","851.2000000001863","","","12","1640","190","h","elianto","#3366ff99"," "," ","1","+10","[1701.3000000002794]","1","2","","","1640","51","3","1","win","go","0","0"
"pit-trial","149","1032374","0.0-56.0","battery-v0.2","","""event"",""trial"",""time""
""fullscreenenter"",""1"",""2008""
","
","
","""event"",""trial"",""time""
""fullscreenenter"",""1"",""2008""
","
","","","-1","","","12","1640","190","r","elianto","#f73b6a7A"," ","-1","0","-10","[4087.9000000003725]","1","2","","","1640","52","1","3","lose","go","0","0"
"pit-trial","150","1037228","0.0-57.0","battery-v0.2","","""event"",""trial"",""time""
""fullscreenenter"",""1"",""2008""
","
","
","""event"",""trial"",""time""
""fullscreenenter"",""1"",""2008""
","
","","","-1","","","12","1640","190","c","elianto","#f73b6a7A","-1","-1","1","0","[]","0","2","","","1640","53","5","4","lose","no-go","0","0"
"pit-trial","151","1041265","0.0-58.0","battery-v0.2","","""event"",""trial"",""time""
""fullscreenenter"",""1"",""2008""
","
","
","""event"",""trial"",""time""
""fullscreenenter"",""1"",""2008""
","
","","","1183.6000000000931","","","12","1640","190","z","elianto","#f73b6a7A"," "," ","1","0","[2033.8000000002794]","1","2","","","1640","54","4","3","lose","go","0","0"
"pit-trial","152","1046119","0.0-59.0","battery-v0.2","","""event"",""trial"",""time""
""fullscreenenter"",""1"",""2008""
","
","
","""event"",""trial"",""time""
""fullscreenenter"",""1"",""2008""
","
","","","-1","","","12","1640","190","y","elianto","#f73b6a7A","-1","-1","1","0","[]","0","2","","","1640","55","2","4","lose","no-go","0","0"
"pit-trial","153","1050973","0.0-60.0","battery-v0.2","","""event"",""trial"",""time""
""fullscreenenter"",""1"",""2008""
","
","
","""event"",""trial"",""time""
""fullscreenenter"",""1"",""2008""
","
","","","-1","","","12","1640","190","r","elianto","#f73b6a7A"," ","-1","0","-10","[4103.399999999907]","1","2","","","1640","56","1","3","lose","go","0","0"
"pit-trial","154","1055722","0.0-61.0","battery-v0.2","","""event"",""trial"",""time""
""fullscreenenter"",""1"",""2008""
","
","
","""event"",""trial"",""time""
""fullscreenenter"",""1"",""2008""
","
","","","1894.9000000003725","","","12","1640","190","c","elianto","#f73b6a7A","-1"," ","0","-10","[2745.2000000001863]","1","2","","","1640","57","5","4","lose","no-go","0","0"
"pit-trial","155","1060165","0.0-62.0","battery-v0.2","","""event"",""trial"",""time""
""fullscreenenter"",""1"",""2008""
","
","
","""event"",""trial"",""time""
""fullscreenenter"",""1"",""2008""
","
","","","1589.7999999998137","","","12","1640","190","z","elianto","#f73b6a7A"," "," ","1","-10","[766.2999999998137,2440.2999999998137]","2","2","","","1640","58","4","3","lose","go","1","0"
"pit-trial","156","1063117","0.0-63.0","battery-v0.2","","""event"",""trial"",""time""
""fullscreenenter"",""1"",""2008""
","
","
","""event"",""trial"",""time""
""fullscreenenter"",""1"",""2008""
","
","","","97.70000000018626","","","12","1640","190","r","elianto","#f73b6a7A"," "," ","1","-10","[947.8999999999069]","1","2","","","1640","59","1","3","lose","go","1","0"
"pit-trial","157","1066491","0.0-64.0","battery-v0.2","","""event"",""trial"",""time""
""fullscreenenter"",""1"",""2008""
","
","
","""event"",""trial"",""time""
""fullscreenenter"",""1"",""2008""
","
","","","520.5","","","12","1640","190","y","elianto","#f73b6a7A","-1"," ","0","-10","[835.1000000000931,1370.8000000002794,2182.100000000093,2402.7000000001863,2598.5,2792.4000000003725,2982.600000000093,3180.2000000001863,3365.5]","9","2","","","1640","60","2","4","lose","no-go","0","0"
"pit-trial","158","1069431","0.0-65.0","battery-v0.2","","""event"",""trial"",""time""
""fullscreenenter"",""1"",""2008""
","
","
","""event"",""trial"",""time""
""fullscreenenter"",""1"",""2008""
","
","","","83","","","12","1640","190","c","elianto","#f73b6a7A","-1"," ","0","-10","[188.70000000018626,372.89999999990687,565.6000000000931,761.3999999999069,935.1000000000931]","5","2","","","1640","61","5","4","lose","no-go","0","0"
"pit-trial","159","1072425","0.0-66.0","battery-v0.2","","""event"",""trial"",""time""
""fullscreenenter"",""1"",""2008""
","
","
","""event"",""trial"",""time""
""fullscreenenter"",""1"",""2008""
","
","","","139.6999999997206","","","12","1640","190","y","elianto","#f73b6a7A","-1"," ","0","-10","[989.7999999998137]","1","2","","","1640","62","2","4","lose","no-go","0","0"
"pit-trial","160","1076025","0.0-67.0","battery-v0.2","","""event"",""trial"",""time""
""fullscreenenter"",""1"",""2008""
","
","
","""event"",""trial"",""time""
""fullscreenenter"",""1"",""2008""
","
","","","744.5","","","12","1640","190","b","elianto","#3366ff99","-1"," ","0","+10","[769.3999999999069,1596.1999999997206]","2","2","","","1640","63","6","2","win","no-go","1","0"
"pit-trial","161","1080879","0.0-68.0","battery-v0.2","","""event"",""trial"",""time""
""fullscreenenter"",""1"",""2008""
","
","
","""event"",""trial"",""time""
""fullscreenenter"",""1"",""2008""
","
","","","-1","","","12","1640","190","z","elianto","#f73b6a7A"," ","-1","0","-10","[]","0","2","","","1640","64","4","3","lose","go","0","0"
"pit-trial","162","1083773","0.0-69.0","battery-v0.2","","""event"",""trial"",""time""
""fullscreenenter"",""1"",""2008""
","
","
","""event"",""trial"",""time""
""fullscreenenter"",""1"",""2008""
","
","","","39.8000000002794","","","12","1640","190","y","elianto","#f73b6a7A","-1"," ","0","-10","[890]","1","2","","","1640","65","2","4","lose","no-go","0","0"
"pit-trial","163","1087474","0.0-70.0","battery-v0.2","","""event"",""trial"",""time""
""fullscreenenter"",""1"",""2008""
","
","
","""event"",""trial"",""time""
""fullscreenenter"",""1"",""2008""
","
","","","847.8000000002794","","","12","1640","190","b","elianto","#3366ff99","-1"," ","0","0","[1698]","1","2","","","1640","66","6","2","win","no-go","0","0"
"pit-trial","164","1090421","0.0-71.0","battery-v0.2","","""event"",""trial"",""time""
""fullscreenenter"",""1"",""2008""
","
","
","""event"",""trial"",""time""
""fullscreenenter"",""1"",""2008""
","
","","","93.10000000009313","","","12","1640","190","c","elianto","#f73b6a7A","-1"," ","0","-10","[943.4000000003725]","1","2","","","1640","67","5","4","lose","no-go","0","0"
"pit-trial","165","1095274","0.0-72.0","battery-v0.2","","""event"",""trial"",""time""
""fullscreenenter"",""1"",""2008""
","
","
","""event"",""trial"",""time""
""fullscreenenter"",""1"",""2008""
","
","","","-1","","","12","1640","190","z","elianto","#f73b6a7A"," ","-1","0","-10","[843.2999999998137]","1","2","","","1640","68","4","3","lose","go","0","0"
"pit-trial","166","1099966","0.0-73.0","battery-v0.2","","""event"",""trial"",""time""
""fullscreenenter"",""1"",""2008""
","
","
","""event"",""trial"",""time""
""fullscreenenter"",""1"",""2008""
","
","","","1837.3999999999069","","","12","1640","190","z","elianto","#f73b6a7A"," "," ","1","-10","[2687.899999999907]","1","2","","","1640","69","4","3","lose","go","1","0"
"pit-trial","167","1103163","0.0-74.0","battery-v0.2","","""event"",""trial"",""time""
""fullscreenenter"",""1"",""2008""
","
","
","""event"",""trial"",""time""
""fullscreenenter"",""1"",""2008""
","
","","","344.39999999990687","","","12","1640","190","c","elianto","#f73b6a7A","-1"," ","0","-10","[1194.5999999996275]","1","2","","","1640","70","5","4","lose","no-go","0","0"
"pit-trial","168","1106157","0.0-75.0","battery-v0.2","","""event"",""trial"",""time""
""fullscreenenter"",""1"",""2008""
","
","
","""event"",""trial"",""time""
""fullscreenenter"",""1"",""2008""
","
","","","140.10000000009313","","","12","1640","190","b","elianto","#3366ff99","-1"," ","0","0","[478.8000000002794,990.4000000003725]","2","2","","","1640","71","6","2","win","no-go","0","0"
"pit-trial","169","1111010","0.0-76.0","battery-v0.2","","""event"",""trial"",""time""
""fullscreenenter"",""1"",""2008""
","
","
","""event"",""trial"",""time""
""fullscreenenter"",""1"",""2008""
","
","","","-1","","","12","1640","190","t","elianto","#3366ff99"," ","-1","0","+10","[]","0","2","","","1640","72","7","1","win","go","1","0"
"pit-trial","170","1115863","0.0-77.0","battery-v0.2","","""event"",""trial"",""time""
""fullscreenenter"",""1"",""2008""
","
","
","""event"",""trial"",""time""
""fullscreenenter"",""1"",""2008""
","
","","","-1","","","12","1640","190","t","elianto","#3366ff99"," ","-1","0","0","[]","0","2","","","1640","73","7","1","win","go","0","0"
"pit-trial","171","1120717","0.0-78.0","battery-v0.2","","""event"",""trial"",""time""
""fullscreenenter"",""1"",""2008""
","
","
","""event"",""trial"",""time""
""fullscreenenter"",""1"",""2008""
","
","","","-1","","","12","1640","190","c","elianto","#f73b6a7A","-1","-1","1","0","[]","0","2","","","1640","74","5","4","lose","no-go","0","0"
"pit-trial","172","1124419","0.0-79.0","battery-v0.2","","""event"",""trial"",""time""
""fullscreenenter"",""1"",""2008""
","
","
","""event"",""trial"",""time""
""fullscreenenter"",""1"",""2008""
","
","","","847.9000000003725","","","12","1640","190","b","elianto","#3366ff99","-1"," ","0","+10","[1698]","1","2","","","1640","75","6","2","win","no-go","1","0"
"pit-trial","173","1129272","0.0-80.0","battery-v0.2","","""event"",""trial"",""time""
""fullscreenenter"",""1"",""2008""
","
","
","""event"",""trial"",""time""
""fullscreenenter"",""1"",""2008""
","
","","","-1","","","12","1640","190","z","elianto","#f73b6a7A"," ","-1","0","-10","[]","0","2","","","1640","76","4","3","lose","go","0","0"
"pit-trial","174","1132868","0.0-81.0","battery-v0.2","","""event"",""trial"",""time""
""fullscreenenter"",""1"",""2008""
","
","
","""event"",""trial"",""time""
""fullscreenenter"",""1"",""2008""
","
","","","742.0999999996275","","","12","1640","190","z","elianto","#f73b6a7A"," "," ","1","0","[1592.1999999997206]","1","2","","","1640","77","4","3","lose","go","0","0"
"pit-trial","175","1137144","0.0-82.0","battery-v0.2","","""event"",""trial"",""time""
""fullscreenenter"",""1"",""2008""
","
","
","""event"",""trial"",""time""
""fullscreenenter"",""1"",""2008""
","
","","","1422.5","","","12","1640","190","c","elianto","#f73b6a7A","-1"," ","0","0","[512.3999999999069,2272.6999999997206]","2","2","","","1640","78","5","4","lose","no-go","1","0"
"pit-trial","176","1141177","0.0-83.0","battery-v0.2","","""event"",""trial"",""time""
""fullscreenenter"",""1"",""2008""
","
","
","""event"",""trial"",""time""
""fullscreenenter"",""1"",""2008""
","
","","","1176.8999999999069","","","12","1640","190","b","elianto","#3366ff99","-1"," ","0","+10","[2030.1000000000931]","1","2","","","1640","79","6","2","win","no-go","1","0"
"pit-trial","177","1146031","0.0-84.0","battery-v0.2","","""event"",""trial"",""time""
""fullscreenenter"",""1"",""2008""
","
","
","""event"",""trial"",""time""
""fullscreenenter"",""1"",""2008""
","
","","","-1","","","12","1640","190","t","elianto","#3366ff99"," ","-1","0","0","[3064.100000000093]","1","2","","","1640","80","7","1","win","go","0","0"
"pit-trial","178","1150885","0.0-85.0","battery-v0.2","","""event"",""trial"",""time""
""fullscreenenter"",""1"",""2008""
","
","
","""event"",""trial"",""time""
""fullscreenenter"",""1"",""2008""
","
","","","-1","","","12","1640","190","t","elianto","#3366ff99"," ","-1","0","0","[]","0","2","","","1640","81","7","1","win","go","0","0"
"pit-trial","179","1155738","0.0-86.0","battery-v0.2","","""event"",""trial"",""time""
""fullscreenenter"",""1"",""2008""
","
","
","""event"",""trial"",""time""
""fullscreenenter"",""1"",""2008""
","
","","","-1","","","12","1640","190","z","elianto","#f73b6a7A"," ","-1","0","-10","[]","0","2","","","1640","82","4","3","lose","go","0","0"
"pit-trial","180","1160592","0.0-87.0","battery-v0.2","","""event"",""trial"",""time""
""fullscreenenter"",""1"",""2008""
","
","
","""event"",""trial"",""time""
""fullscreenenter"",""1"",""2008""
","
","","","-1","","","12","1640","190","c","elianto","#f73b6a7A","-1","-1","1","0","[]","0","2","","","1640","83","5","4","lose","no-go","0","0"
"pit-trial","181","1164736","0.0-88.0","battery-v0.2","","""event"",""trial"",""time""
""fullscreenenter"",""1"",""2008""
","
","
","""event"",""trial"",""time""
""fullscreenenter"",""1"",""2008""
","
","","","1290.6999999997206","","","12","1640","190","b","elianto","#3366ff99","-1"," ","0","0","[2140.8000000002794]","1","2","","","1640","84","6","2","win","no-go","0","0"
"pit-trial","182","1167639","0.0-89.0","battery-v0.2","","""event"",""trial"",""time""
""fullscreenenter"",""1"",""2008""
","
","
","""event"",""trial"",""time""
""fullscreenenter"",""1"",""2008""
","
","","","48.5","","","12","1640","190","t","elianto","#3366ff99"," "," ","1","+10","[898.7999999998137]","1","2","","","1640","85","7","1","win","go","0","0"
"pit-trial","183","1170545","0.0-90.0","battery-v0.2","","""event"",""trial"",""time""
""fullscreenenter"",""1"",""2008""
","
","
","""event"",""trial"",""time""
""fullscreenenter"",""1"",""2008""
","
","","","53.1999999997206","","","12","1640","190","b","elianto","#3366ff99","-1"," ","0","0","[903.5]","1","2","","","1640","86","6","2","win","no-go","0","0"
"pit-trial","184","1173456","0.0-91.0","battery-v0.2","","""event"",""trial"",""time""
""fullscreenenter"",""1"",""2008""
","
","
","""event"",""trial"",""time""
""fullscreenenter"",""1"",""2008""
","
","","","54.700000000186265","","","12","1640","190","z","elianto","#f73b6a7A"," "," ","1","0","[907.1000000000931]","1","2","","","1640","87","4","3","lose","go","0","0"
"pit-trial","185","1178310","0.0-92.0","battery-v0.2","","""event"",""trial"",""time""
""fullscreenenter"",""1"",""2008""
","
","
","""event"",""trial"",""time""
""fullscreenenter"",""1"",""2008""
","
","","","-1","","","12","1640","190","c","elianto","#f73b6a7A","-1","-1","1","0","[744.3999999999069]","1","2","","","1640","88","5","4","lose","no-go","0","0"
"pit-trial","186","1182795","0.0-93.0","battery-v0.2","","""event"",""trial"",""time""
""fullscreenenter"",""1"",""2008""
","
","
","""event"",""trial"",""time""
""fullscreenenter"",""1"",""2008""
","
","","","1630","","","12","1640","190","t","elianto","#3366ff99"," "," ","1","+10","[2480.7000000001863]","1","2","","","1640","89","7","1","win","go","0","0"
"pit-trial","187","1187649","0.0-94.0","battery-v0.2","","""event"",""trial"",""time""
""fullscreenenter"",""1"",""2008""
","
","
","""event"",""trial"",""time""
""fullscreenenter"",""1"",""2008""
","
","","","-1","","","12","1640","190","z","elianto","#f73b6a7A"," ","-1","0","-10","[3675.6999999997206]","1","2","","","1640","90","4","3","lose","go","0","0"
"pit-trial","188","1192503","0.0-95.0","battery-v0.2","","""event"",""trial"",""time""
""fullscreenenter"",""1"",""2008""
","
","
","""event"",""trial"",""time""
""fullscreenenter"",""1"",""2008""
","
","","","-1","","","12","1640","190","c","elianto","#f73b6a7A","-1","-1","1","0","[550]","1","2","","","1640","91","5","4","lose","no-go","0","0"
"pit-trial","189","1197357","0.0-96.0","battery-v0.2","","""event"",""trial"",""time""
""fullscreenenter"",""1"",""2008""
","
","
","""event"",""trial"",""time""
""fullscreenenter"",""1"",""2008""
","
","","","-1","","","12","1640","190","b","elianto","#3366ff99","-1","-1","1","0","[2884.100000000093,3777.600000000093,4090.5]","3","2","","","1640","92","6","2","win","no-go","1","0"
"pit-trial","190","1202211","0.0-97.0","battery-v0.2","","""event"",""trial"",""time""
""fullscreenenter"",""1"",""2008""
","
","
","""event"",""trial"",""time""
""fullscreenenter"",""1"",""2008""
","
","","","-1","","","12","1640","190","x","elianto","#3366ff99"," ","-1","0","0","[]","0","2","","","1640","93","8","1","win","go","0","0"
"pit-trial","191","1207065","0.0-98.0","battery-v0.2","","""event"",""trial"",""time""
""fullscreenenter"",""1"",""2008""
","
","
","""event"",""trial"",""time""
""fullscreenenter"",""1"",""2008""
","
","","","-1","","","12","1640","190","z","elianto","#f73b6a7A"," ","-1","0","-10","[4309.199999999721]","1","2","","","1640","94","4","3","lose","go","0","0"
"pit-trial","192","1210823","0.0-99.0","battery-v0.2","","""event"",""trial"",""time""
""fullscreenenter"",""1"",""2008""
","
","
","""event"",""trial"",""time""
""fullscreenenter"",""1"",""2008""
","
","","","903.7000000001863","","","12","1640","190","b","elianto","#3366ff99","-1"," ","0","0","[235.20000000018626,1754.7000000001863,2454.100000000093,3073.2000000001863,3638.8000000002794]","5","2","","","1640","95","6","2","win","no-go","0","0"
"pit-trial","193","1213990","0.0-100.0","battery-v0.2","","""event"",""trial"",""time""
""fullscreenenter"",""1"",""2008""
","
","
","""event"",""trial"",""time""
""fullscreenenter"",""1"",""2008""
","
","","","312.60000000009313","","","12","1640","190","t","elianto","#3366ff99"," "," ","1","+10","[1162.7000000001863]","1","2","","","1640","96","7","1","win","go","0","0"
"pit-trial","194","1217649","0.0-101.0","battery-v0.2","","""event"",""trial"",""time""
""fullscreenenter"",""1"",""2008""
","
","
","""event"",""trial"",""time""
""fullscreenenter"",""1"",""2008""
","
","","","805.2000000001863","","","12","1640","190","t","elianto","#3366ff99"," "," ","1","+10","[1655.2999999998137]","1","2","","","1640","97","7","1","win","go","0","0"
"pit-trial","195","1222502","0.0-102.0","battery-v0.2","","""event"",""trial"",""time""
""fullscreenenter"",""1"",""2008""
","
","
","""event"",""trial"",""time""
""fullscreenenter"",""1"",""2008""
","
","","","-1","","","12","1640","190","z","elianto","#f73b6a7A"," ","-1","0","0","[]","0","2","","","1640","98","4","3","lose","go","1","0"
"pit-trial","196","1227356","0.0-103.0","battery-v0.2","","""event"",""trial"",""time""
""fullscreenenter"",""1"",""2008""
","
","
","""event"",""trial"",""time""
""fullscreenenter"",""1"",""2008""
","
","","","-1","","","12","1640","190","x","elianto","#3366ff99"," ","-1","0","0","[3101.899999999907]","1","2","","","1640","99","8","1","win","go","0","0"
"pit-trial","197","1231166","0.0-104.0","battery-v0.2","","""event"",""trial"",""time""
""fullscreenenter"",""1"",""2008""
","
","
","""event"",""trial"",""time""
""fullscreenenter"",""1"",""2008""
","
","","","957.3000000002794","","","12","1640","190","b","elianto","#3366ff99","-1"," ","0","0","[440.40000000037253,1807.4000000003725]","2","2","","","1640","100","6","2","win","no-go","0","0"
"pit-trial","198","1236019","0.0-105.0","battery-v0.2","","""event"",""trial"",""time""
""fullscreenenter"",""1"",""2008""
","
","
","""event"",""trial"",""time""
""fullscreenenter"",""1"",""2008""
","
","","","-1","","","12","1640","190","x","elianto","#3366ff99"," ","-1","0","0","[2975.5]","1","2","","","1640","101","8","1","win","go","0","0"
"pit-trial","199","1240495","0.0-106.0","battery-v0.2","","""event"",""trial"",""time""
""fullscreenenter"",""1"",""2008""
","
","
","""event"",""trial"",""time""
""fullscreenenter"",""1"",""2008""
","
","","","1623","","","12","1640","190","t","elianto","#3366ff99"," "," ","1","+10","[2473.0999999996275]","1","2","","","1640","102","7","1","win","go","0","0"
"pit-trial","200","1245348","0.0-107.0","battery-v0.2","","""event"",""trial"",""time""
""fullscreenenter"",""1"",""2008""
","
","
","""event"",""trial"",""time""
""fullscreenenter"",""1"",""2008""
","
","","","-1","","","12","1640","190","f","elianto","#3366ff99","-1","-1","1","+10","[]","0","2","","","1640","103","9","2","win","no-go","0","0"
"pit-trial","201","1250202","0.0-108.0","battery-v0.2","","""event"",""trial"",""time""
""fullscreenenter"",""1"",""2008""
","
","
","""event"",""trial"",""time""
""fullscreenenter"",""1"",""2008""
","
","","","-1","","","12","1640","190","b","elianto","#3366ff99","-1","-1","1","+10","[]","0","2","","","1640","104","6","2","win","no-go","0","0"
"pit-trial","202","1254822","0.0-109.0","battery-v0.2","","""event"",""trial"",""time""
""fullscreenenter"",""1"",""2008""
","
","
","""event"",""trial"",""time""
""fullscreenenter"",""1"",""2008""
","
","","","1767","","","12","1640","190","x","elianto","#3366ff99"," "," ","1","+10","[2617.100000000093]","1","2","","","1640","105","8","1","win","go","0","0"
"pit-trial","203","1259675","0.0-110.0","battery-v0.2","","""event"",""trial"",""time""
""fullscreenenter"",""1"",""2008""
","
","
","""event"",""trial"",""time""
""fullscreenenter"",""1"",""2008""
","
","","","-1","","","12","1640","190","b","elianto","#3366ff99","-1","-1","1","+10","[]","0","2","","","1640","106","6","2","win","no-go","0","0"
"pit-trial","204","1264210","0.0-111.0","battery-v0.2","","""event"",""trial"",""time""
""fullscreenenter"",""1"",""2008""
","
","
","""event"",""trial"",""time""
""fullscreenenter"",""1"",""2008""
","
","","","1680.9000000003725","","","12","1640","190","t","elianto","#3366ff99"," "," ","1","+10","[2531]","1","2","","","1640","107","7","1","win","go","0","0"
"pit-trial","205","1269063","0.0-112.0","battery-v0.2","","""event"",""trial"",""time""
""fullscreenenter"",""1"",""2008""
","
","
","""event"",""trial"",""time""
""fullscreenenter"",""1"",""2008""
","
","","","-1","","","12","1640","190","f","elianto","#3366ff99","-1","-1","1","+10","[]","0","2","","","1640","108","9","2","win","no-go","0","0"
"pit-trial","206","1273917","0.0-113.0","battery-v0.2","","""event"",""trial"",""time""
""fullscreenenter"",""1"",""2008""
","
","
","""event"",""trial"",""time""
""fullscreenenter"",""1"",""2008""
","
","","","-1","","","12","1640","190","q","elianto","#f73b6a7A","-1","-1","1","0","[]","0","2","","","1640","109","11","4","lose","no-go","0","0"
"pit-trial","207","1278771","0.0-114.0","battery-v0.2","","""event"",""trial"",""time""
""fullscreenenter"",""1"",""2008""
","
","
","""event"",""trial"",""time""
""fullscreenenter"",""1"",""2008""
","
","","","-1","","","12","1640","190","x","elianto","#3366ff99"," ","-1","0","+10","[508.29999999981374]","1","2","","","1640","110","8","1","win","go","1","0"
"pit-trial","208","1283229","0.0-115.0","battery-v0.2","","""event"",""trial"",""time""
""fullscreenenter"",""1"",""2008""
","
","
","""event"",""trial"",""time""
""fullscreenenter"",""1"",""2008""
","
","","","1604.8999999999069","","","12","1640","190","n","elianto","#f73b6a7A"," "," ","1","0","[2455]","1","2","","","1640","111","10","3","lose","go","0","0"
"pit-trial","209","1288082","0.0-116.0","battery-v0.2","","""event"",""trial"",""time""
""fullscreenenter"",""1"",""2008""
","
","
","""event"",""trial"",""time""
""fullscreenenter"",""1"",""2008""
","
","","","-1","","","12","1640","190","f","elianto","#3366ff99","-1","-1","1","+10","[]","0","2","","","1640","112","9","2","win","no-go","0","0"
"pit-trial","210","1292936","0.0-117.0","battery-v0.2","","""event"",""trial"",""time""
""fullscreenenter"",""1"",""2008""
","
","
","""event"",""trial"",""time""
""fullscreenenter"",""1"",""2008""
","
","","","-1","","","12","1640","190","f","elianto","#3366ff99","-1","-1","1","+10","[]","0","2","","","1640","113","9","2","win","no-go","0","0"
"pit-trial","211","1297789","0.0-118.0","battery-v0.2","","""event"",""trial"",""time""
""fullscreenenter"",""1"",""2008""
","
","
","""event"",""trial"",""time""
""fullscreenenter"",""1"",""2008""
","
","","","-1","","","12","1640","190","n","elianto","#f73b6a7A"," ","-1","0","-10","[]","0","2","","","1640","114","10","3","lose","go","0","0"
"pit-trial","212","1302418","0.0-119.0","battery-v0.2","","""event"",""trial"",""time""
""fullscreenenter"",""1"",""2008""
","
","
","""event"",""trial"",""time""
""fullscreenenter"",""1"",""2008""
","
","","","1775","","","12","1640","190","x","elianto","#3366ff99"," "," ","1","0","[2625.1999999997206]","1","2","","","1640","115","8","1","win","go","1","0"
"pit-trial","213","1306304","0.0-120.0","battery-v0.2","","""event"",""trial"",""time""
""fullscreenenter"",""1"",""2008""
","
","
","""event"",""trial"",""time""
""fullscreenenter"",""1"",""2008""
","
","","","1032.3999999999069","","","12","1640","190","q","elianto","#f73b6a7A","-1"," ","0","-10","[1882.2999999998137]","1","2","","","1640","116","11","4","lose","no-go","0","0"
"pit-trial","214","1311158","0.0-121.0","battery-v0.2","","""event"",""trial"",""time""
""fullscreenenter"",""1"",""2008""
","
","
","""event"",""trial"",""time""
""fullscreenenter"",""1"",""2008""
","
","","","-1","","","12","1640","190","x","elianto","#3366ff99"," ","-1","0","0","[]","0","2","","","1640","117","8","1","win","go","0","0"
"pit-trial","215","1316012","0.0-122.0","battery-v0.2","","""event"",""trial"",""time""
""fullscreenenter"",""1"",""2008""
","
","
","""event"",""trial"",""time""
""fullscreenenter"",""1"",""2008""
","
","","","-1","","","12","1640","190","n","elianto","#f73b6a7A"," ","-1","0","0","[]","0","2","","","1640","118","10","3","lose","go","1","0"
"pit-trial","216","1320866","0.0-123.0","battery-v0.2","","""event"",""trial"",""time""
""fullscreenenter"",""1"",""2008""
","
","
","""event"",""trial"",""time""
""fullscreenenter"",""1"",""2008""
","
","","","-1","","","12","1640","190","q","elianto","#f73b6a7A","-1","-1","1","0","[]","0","2","","","1640","119","11","4","lose","no-go","0","0"
"pit-trial","217","1325720","0.0-124.0","battery-v0.2","","""event"",""trial"",""time""
""fullscreenenter"",""1"",""2008""
","
","
","""event"",""trial"",""time""
""fullscreenenter"",""1"",""2008""
","
","","","-1","","","12","1640","190","f","elianto","#3366ff99","-1","-1","1","+10","[]","0","2","","","1640","120","9","2","win","no-go","0","0"
"pit-trial","218","1329740","0.0-125.0","battery-v0.2","","""event"",""trial"",""time""
""fullscreenenter"",""1"",""2008""
","
","
","""event"",""trial"",""time""
""fullscreenenter"",""1"",""2008""
","
","","","1166.2999999998137","","","12","1640","190","x","elianto","#3366ff99"," "," ","1","0","[2016.3999999999069]","1","2","","","1640","121","8","1","win","go","1","0"
"pit-trial","219","1334594","0.0-126.0","battery-v0.2","","""event"",""trial"",""time""
""fullscreenenter"",""1"",""2008""
","
","
","""event"",""trial"",""time""
""fullscreenenter"",""1"",""2008""
","
","","","-1","","","12","1640","190","n","elianto","#f73b6a7A"," ","-1","0","-10","[]","0","2","","","1640","122","10","3","lose","go","0","0"
"pit-trial","220","1339447","0.0-127.0","battery-v0.2","","""event"",""trial"",""time""
""fullscreenenter"",""1"",""2008""
","
","
","""event"",""trial"",""time""
""fullscreenenter"",""1"",""2008""
","
","","","-1","","","12","1640","190","q","elianto","#f73b6a7A","-1","-1","1","0","[]","0","2","","","1640","123","11","4","lose","no-go","0","0"
"pit-trial","221","1344218","0.0-128.0","battery-v0.2","","""event"",""trial"",""time""
""fullscreenenter"",""1"",""2008""
","
","
","""event"",""trial"",""time""
""fullscreenenter"",""1"",""2008""
","
","","","1916.6000000000931","","","12","1640","190","f","elianto","#3366ff99","-1"," ","0","0","[2766.899999999907]","1","2","","","1640","124","9","2","win","no-go","0","0"
"pit-trial","222","1349072","0.0-129.0","battery-v0.2","","""event"",""trial"",""time""
""fullscreenenter"",""1"",""2008""
","
","
","""event"",""trial"",""time""
""fullscreenenter"",""1"",""2008""
","
","","","-1","","","12","1640","190","n","elianto","#f73b6a7A"," ","-1","0","-10","[]","0","2","","","1640","125","10","3","lose","go","0","0"
"pit-trial","223","1353847","0.0-130.0","battery-v0.2","","""event"",""trial"",""time""
""fullscreenenter"",""1"",""2008""
","
","
","""event"",""trial"",""time""
""fullscreenenter"",""1"",""2008""
","
","","","1921","","","12","1640","190","f","elianto","#3366ff99","-1"," ","0","+10","[2771.100000000093]","1","2","","","1640","126","9","2","win","no-go","1","0"
"pit-trial","224","1357696","0.0-131.0","battery-v0.2","","""event"",""trial"",""time""
""fullscreenenter"",""1"",""2008""
","
","
","""event"",""trial"",""time""
""fullscreenenter"",""1"",""2008""
","
","","","995","","","12","1640","190","x","elianto","#3366ff99"," "," ","1","0","[1845.1999999997206]","1","2","","","1640","127","8","1","win","go","1","0"
"pit-trial","225","1362549","0.0-132.0","battery-v0.2","","""event"",""trial"",""time""
""fullscreenenter"",""1"",""2008""
","
","
","""event"",""trial"",""time""
""fullscreenenter"",""1"",""2008""
","
","","","-1","","","12","1640","190","q","elianto","#f73b6a7A","-1","-1","1","0","[]","0","2","","","1640","128","11","4","lose","no-go","0","0"
"pit-trial","226","1367402","0.0-133.0","battery-v0.2","","""event"",""trial"",""time""
""fullscreenenter"",""1"",""2008""
","
","
","""event"",""trial"",""time""
""fullscreenenter"",""1"",""2008""
","
","","","-1","","","12","1640","190","q","elianto","#f73b6a7A","-1","-1","1","0","[]","0","2","","","1640","129","11","4","lose","no-go","0","0"
"pit-trial","227","1372256","0.0-134.0","battery-v0.2","","""event"",""trial"",""time""
""fullscreenenter"",""1"",""2008""
","
","
","""event"",""trial"",""time""
""fullscreenenter"",""1"",""2008""
","
","","","-1","","","12","1640","190","x","elianto","#3366ff99"," ","-1","0","0","[]","0","2","","","1640","130","8","1","win","go","0","0"
"pit-trial","228","1377109","0.0-135.0","battery-v0.2","","""event"",""trial"",""time""
""fullscreenenter"",""1"",""2008""
","
","
","""event"",""trial"",""time""
""fullscreenenter"",""1"",""2008""
","
","","","-1","","","12","1640","190","f","elianto","#3366ff99","-1","-1","1","+10","[]","0","2","","","1640","131","9","2","win","no-go","0","0"
"pit-trial","229","1381962","0.0-136.0","battery-v0.2","","""event"",""trial"",""time""
""fullscreenenter"",""1"",""2008""
","
","
","""event"",""trial"",""time""
""fullscreenenter"",""1"",""2008""
","
","","","-1","","","12","1640","190","n","elianto","#f73b6a7A"," ","-1","0","-10","[]","0","2","","","1640","132","10","3","lose","go","0","0"
"pit-trial","230","1386541","0.0-137.0","battery-v0.2","","""event"",""trial"",""time""
""fullscreenenter"",""1"",""2008""
","
","
","""event"",""trial"",""time""
""fullscreenenter"",""1"",""2008""
","
","","","1726.3999999999069","","","12","1640","190","x","elianto","#3366ff99"," "," ","1","0","[2576.600000000093,3520.2999999998137]","2","2","","","1640","133","8","1","win","go","1","0"
"pit-trial","231","1391395","0.0-138.0","battery-v0.2","","""event"",""trial"",""time""
""fullscreenenter"",""1"",""2008""
","
","
","""event"",""trial"",""time""
""fullscreenenter"",""1"",""2008""
","
","","","-1","","","12","1640","190","n","elianto","#f73b6a7A"," ","-1","0","-10","[]","0","2","","","1640","134","10","3","lose","go","0","0"
"pit-trial","232","1396248","0.0-139.0","battery-v0.2","","""event"",""trial"",""time""
""fullscreenenter"",""1"",""2008""
","
","
","""event"",""trial"",""time""
""fullscreenenter"",""1"",""2008""
","
","","","-1","","","12","1640","190","f","elianto","#3366ff99","-1","-1","1","+10","[]","0","2","","","1640","135","9","2","win","no-go","0","0"
"pit-trial","233","1401102","0.0-140.0","battery-v0.2","","""event"",""trial"",""time""
""fullscreenenter"",""1"",""2008""
","
","
","""event"",""trial"",""time""
""fullscreenenter"",""1"",""2008""
","
","","","-1","","","12","1640","190","q","elianto","#f73b6a7A","-1","-1","1","-10","[]","0","2","","","1640","136","11","4","lose","no-go","1","0"
"pit-trial","234","1405455","0.0-141.0","battery-v0.2","","""event"",""trial"",""time""
""fullscreenenter"",""1"",""2008""
","
","
","""event"",""trial"",""time""
""fullscreenenter"",""1"",""2008""
","
","","","1499.5","","","12","1640","190","x","elianto","#3366ff99"," "," ","1","+10","[2349.8000000002794]","1","2","","","1640","137","8","1","win","go","0","0"
"pit-trial","235","1410308","0.0-142.0","battery-v0.2","","""event"",""trial"",""time""
""fullscreenenter"",""1"",""2008""
","
","
","""event"",""trial"",""time""
""fullscreenenter"",""1"",""2008""
","
","","","-1","","","12","1640","190","f","elianto","#3366ff99","-1","-1","1","0","[]","0","2","","","1640","138","9","2","win","no-go","1","0"
"pit-trial","236","1415162","0.0-143.0","battery-v0.2","","""event"",""trial"",""time""
""fullscreenenter"",""1"",""2008""
","
","
","""event"",""trial"",""time""
""fullscreenenter"",""1"",""2008""
","
","","","-1","","","12","1640","190","q","elianto","#f73b6a7A","-1","-1","1","0","[]","0","2","","","1640","139","11","4","lose","no-go","0","0"
"pit-trial","237","1420015","0.0-144.0","battery-v0.2","","""event"",""trial"",""time""
""fullscreenenter"",""1"",""2008""
","
","
","""event"",""trial"",""time""
""fullscreenenter"",""1"",""2008""
","
","","","-1","","","12","1640","190","n","elianto","#f73b6a7A"," ","-1","0","-10","[]","0","2","","","1640","140","10","3","lose","go","0","0"
"pit-instructions","238","1434811","0.0-145.0","battery-v0.2","","""event"",""trial"",""time""
""fullscreenenter"",""1"",""2008""
","
","
","""event"",""trial"",""time""
""fullscreenenter"",""1"",""2008""
","
","","[{""page_index"":0,""viewing_time"":6160.299999999814},{""page_index"":1,""viewing_time"":8632.100000000093}]","14793.600000000093","","","","","","","","","","","","","","","","","","","","","","","","",""
"pit-trial","239","1438869","0.0-146.0","battery-v0.2","","""event"",""trial"",""time""
""fullscreenenter"",""1"",""2008""
","
","
","""event"",""trial"",""time""
""fullscreenenter"",""1"",""2008""
","
","","","1199.8000000002794","","","12","1640","190","u","elianto","#3366ff99","-1"," ","0","+10","[2049.899999999907]","1","3","","","1640","141","0","2","win","no-go","1","0"
"pit-trial","240","1443722","0.0-147.0","battery-v0.2","","""event"",""trial"",""time""
""fullscreenenter"",""1"",""2008""
","
","
","""event"",""trial"",""time""
""fullscreenenter"",""1"",""2008""
","
","","","-1","","","12","1640","190","a","elianto","#3366ff99"," ","-1","0","0","[]","0","3","","","1640","142","2","1","win","go","0","0"
"pit-trial","241","1448034","0.0-148.0","battery-v0.2","","""event"",""trial"",""time""
""fullscreenenter"",""1"",""2008""
","
","
","""event"",""trial"",""time""
""fullscreenenter"",""1"",""2008""
","
","","","1455.5","","","12","1640","190","g","elianto","#f73b6a7A"," "," ","1","0","[2307.600000000093]","1","3","","","1640","143","3","3","lose","go","0","0"
"pit-trial","242","1452888","0.0-149.0","battery-v0.2","","""event"",""trial"",""time""
""fullscreenenter"",""1"",""2008""
","
","
","""event"",""trial"",""time""
""fullscreenenter"",""1"",""2008""
","
","","","-1","","","12","1640","190","l","elianto","#3366ff99","-1","-1","1","+10","[]","0","3","","","1640","144","1","2","win","no-go","0","0"
"pit-trial","243","1456955","0.0-150.0","battery-v0.2","","""event"",""trial"",""time""
""fullscreenenter"",""1"",""2008""
","
","
","""event"",""trial"",""time""
""fullscreenenter"",""1"",""2008""
","
","","","1211.5999999996275","","","12","1640","190","u","elianto","#3366ff99","-1"," ","0","0","[2063.9000000003725]","1","3","","","1640","145","0","2","win","no-go","0","0"
"pit-trial","244","1461809","0.0-151.0","battery-v0.2","","""event"",""trial"",""time""
""fullscreenenter"",""1"",""2008""
","
","
","""event"",""trial"",""time""
""fullscreenenter"",""1"",""2008""
","
","","","-1","","","12","1640","190","g","elianto","#f73b6a7A"," ","-1","0","-10","[]","0","3","","","1640","146","3","3","lose","go","0","0"
"pit-trial","245","1465669","0.0-152.0","battery-v0.2","","""event"",""trial"",""time""
""fullscreenenter"",""1"",""2008""
","
","
","""event"",""trial"",""time""
""fullscreenenter"",""1"",""2008""
","
","","","1004.8999999999069","","","12","1640","190","l","elianto","#3366ff99","-1"," ","0","0","[1854.8999999999069]","1","3","","","1640","147","1","2","win","no-go","0","0"
"pit-trial","246","1470414","0.0-153.0","battery-v0.2","","""event"",""trial"",""time""
""fullscreenenter"",""1"",""2008""
","
","
","""event"",""trial"",""time""
""fullscreenenter"",""1"",""2008""
","
","","","1891.3999999999069","","","12","1640","190","a","elianto","#3366ff99"," "," ","1","+10","[2741.5]","1","3","","","1640","148","2","1","win","go","0","0"
"pit-trial","247","1474322","0.0-154.0","battery-v0.2","","""event"",""trial"",""time""
""fullscreenenter"",""1"",""2008""
","
","
","""event"",""trial"",""time""
""fullscreenenter"",""1"",""2008""
","
","","","1053.8999999999069","","","12","1640","190","a","elianto","#3366ff99"," "," ","1","+10","[1904.2000000001863]","1","3","","","1640","149","2","1","win","go","0","0"
"pit-trial","248","1479176","0.0-155.0","battery-v0.2","","""event"",""trial"",""time""
""fullscreenenter"",""1"",""2008""
","
","
","""event"",""trial"",""time""
""fullscreenenter"",""1"",""2008""
","
","","","-1","","","12","1640","190","g","elianto","#f73b6a7A"," ","-1","0","-10","[]","0","3","","","1640","150","3","3","lose","go","0","0"
"pit-trial","249","1482968","0.0-156.0","battery-v0.2","","""event"",""trial"",""time""
""fullscreenenter"",""1"",""2008""
","
","
","""event"",""trial"",""time""
""fullscreenenter"",""1"",""2008""
","
","","","937.5","","","12","1640","190","u","elianto","#3366ff99","-1"," ","0","+10","[1787.6000000000931]","1","3","","","1640","151","0","2","win","no-go","1","0"
"pit-trial","250","1486848","0.0-157.0","battery-v0.2","","""event"",""trial"",""time""
""fullscreenenter"",""1"",""2008""
","
","
","""event"",""trial"",""time""
""fullscreenenter"",""1"",""2008""
","
","","","1026.7999999998137","","","12","1640","190","l","elianto","#3366ff99","-1"," ","0","+10","[1877]","1","3","","","1640","152","1","2","win","no-go","1","0"
"pit-trial","251","1491702","0.0-158.0","battery-v0.2","","""event"",""trial"",""time""
""fullscreenenter"",""1"",""2008""
","
","
","""event"",""trial"",""time""
""fullscreenenter"",""1"",""2008""
","
","","","-1","","","12","1640","190","g","elianto","#f73b6a7A"," ","-1","0","0","[]","0","3","","","1640","153","3","3","lose","go","1","0"
"pit-trial","252","1495515","0.0-159.0","battery-v0.2","","""event"",""trial"",""time""
""fullscreenenter"",""1"",""2008""
","
","
","""event"",""trial"",""time""
""fullscreenenter"",""1"",""2008""
","
","","","960.1000000000931","","","12","1640","190","u","elianto","#3366ff99","-1"," ","0","0","[1810.1999999997206]","1","3","","","1640","154","0","2","win","no-go","0","0"
"pit-trial","253","1499042","0.0-160.0","battery-v0.2","","""event"",""trial"",""time""
""fullscreenenter"",""1"",""2008""
","
","
","""event"",""trial"",""time""
""fullscreenenter"",""1"",""2008""
","
","","","673.6999999997206","","","12","1640","190","a","elianto","#3366ff99"," "," ","1","+10","[1523.7999999998137]","1","3","","","1640","155","2","1","win","go","0","0"
"pit-trial","254","1502709","0.0-161.0","battery-v0.2","","""event"",""trial"",""time""
""fullscreenenter"",""1"",""2008""
","
","
","""event"",""trial"",""time""
""fullscreenenter"",""1"",""2008""
","
","","","813.4000000003725","","","12","1640","190","l","elianto","#3366ff99","-1"," ","0","0","[1663.5]","1","3","","","1640","156","1","2","win","no-go","0","0"
"pit-trial","255","1507562","0.0-162.0","battery-v0.2","","""event"",""trial"",""time""
""fullscreenenter"",""1"",""2008""
","
","
","""event"",""trial"",""time""
""fullscreenenter"",""1"",""2008""
","
","","","-1","","","12","1640","190","g","elianto","#f73b6a7A"," ","-1","0","-10","[]","0","3","","","1640","157","3","3","lose","go","0","0"
"pit-trial","256","1511536","0.0-163.0","battery-v0.2","","""event"",""trial"",""time""
""fullscreenenter"",""1"",""2008""
","
","
","""event"",""trial"",""time""
""fullscreenenter"",""1"",""2008""
","
","","","1120.2000000001863","","","12","1640","190","l","elianto","#3366ff99","-1"," ","0","0","[1970.2999999998137]","1","3","","","1640","158","1","2","win","no-go","0","0"
"pit-trial","257","1515229","0.0-164.0","battery-v0.2","","""event"",""trial"",""time""
""fullscreenenter"",""1"",""2008""
","
","
","""event"",""trial"",""time""
""fullscreenenter"",""1"",""2008""
","
","","","839.9000000003725","","","12","1640","190","u","elianto","#3366ff99","-1"," ","0","+10","[1690.3000000002794]","1","3","","","1640","159","0","2","win","no-go","1","0"
"pit-trial","258","1518533","0.0-165.0","battery-v0.2","","""event"",""trial"",""time""
""fullscreenenter"",""1"",""2008""
","
","
","""event"",""trial"",""time""
""fullscreenenter"",""1"",""2008""
","
","","","451.20000000018626","","","12","1640","190","a","elianto","#3366ff99"," "," ","1","+10","[1301.2999999998137]","1","3","","","1640","160","2","1","win","go","0","0"
"pit-trial","259","1523387","0.0-166.0","battery-v0.2","","""event"",""trial"",""time""
""fullscreenenter"",""1"",""2008""
","
","
","""event"",""trial"",""time""
""fullscreenenter"",""1"",""2008""
","
","","","-1","","","12","1640","190","g","elianto","#f73b6a7A"," ","-1","0","-10","[]","0","3","","","1640","161","3","3","lose","go","0","0"
"pit-trial","260","1527181","0.0-167.0","battery-v0.2","","""event"",""trial"",""time""
""fullscreenenter"",""1"",""2008""
","
","
","""event"",""trial"",""time""
""fullscreenenter"",""1"",""2008""
","
","","","940.8999999999069","","","12","1640","190","a","elianto","#3366ff99"," "," ","1","+10","[1791.2000000001863]","1","3","","","1640","162","2","1","win","go","0","0"
"pit-trial","261","1532035","0.0-168.0","battery-v0.2","","""event"",""trial"",""time""
""fullscreenenter"",""1"",""2008""
","
","
","""event"",""trial"",""time""
""fullscreenenter"",""1"",""2008""
","
","","","-1","","","12","1640","190","l","elianto","#3366ff99","-1","-1","1","+10","[]","0","3","","","1640","163","1","2","win","no-go","0","0"
"pit-trial","262","1535642","0.0-169.0","battery-v0.2","","""event"",""trial"",""time""
""fullscreenenter"",""1"",""2008""
","
","
","""event"",""trial"",""time""
""fullscreenenter"",""1"",""2008""
","
","","","754.7000000001863","","","12","1640","190","u","elianto","#3366ff99","-1"," ","0","+10","[1604.8999999999069]","1","3","","","1640","164","0","2","win","no-go","1","0"
"pit-trial","263","1539478","0.0-170.0","battery-v0.2","","""event"",""trial"",""time""
""fullscreenenter"",""1"",""2008""
","
","
","""event"",""trial"",""time""
""fullscreenenter"",""1"",""2008""
","
","","","979","","","12","1640","190","u","elianto","#3366ff99","-1"," ","0","0","[1832.2999999998137]","1","3","","","1640","165","0","2","win","no-go","0","0"
"pit-trial","264","1544331","0.0-171.0","battery-v0.2","","""event"",""trial"",""time""
""fullscreenenter"",""1"",""2008""
","
","
","""event"",""trial"",""time""
""fullscreenenter"",""1"",""2008""
","
