"trial_type","trial_index","time_elapsed","internal_node_id","task_version","success","view_history","rt","rune","rune_set","hex","correct","choice","accuracy","outcome","keys","total_keys","block","practice","subject","participantId","value","responses","num_errors"
"pavlovia","0","25","0.0-0.0","battery-v0.2","","","","","","","","","","","","","","","","","","",""
"fullscreen","1","2724","0.0-1.0","battery-v0.2","true","","","","","","","","","","","","","","","","","",""
"pit-instructions","2","36093","0.0-2.0-0.0","battery-v0.2","","[{""page_index"":0,""viewing_time"":2467.5},{""page_index"":1,""viewing_time"":3818.5999999940395},{""page_index"":2,""viewing_time"":2435.300000011921},{""page_index"":3,""viewing_time"":3187.0999999940395},{""page_index"":4,""viewing_time"":1721.199999988079},{""page_index"":5,""viewing_time"":3058.0999999940395},{""page_index"":6,""viewing_time"":1997.9000000059605},{""page_index"":7,""viewing_time"":3154.300000011921},{""page_index"":8,""viewing_time"":2960.699999988079},{""page_index"":9,""viewing_time"":3108.5},{""page_index"":10,""viewing_time"":2867.5},{""page_index"":11,""viewing_time"":2582.9000000059605}]","33361.90000000596","","","","","","","","","","","","","","","",""
"pit-trial","3","39491","0.0-2.0-1.0-0.0","battery-v0.2","","","536.7000000178814","&#9784;","elianto","#FFFFF080","32","32","1","&#10004","1388.0999999940395","1","0","0","4ee95e0e8737a0304baac70a&order=1&STUDY_ID=61caf85b4892b889f6411591","999","","",""
"pit-trial","4","42816","0.0-2.0-1.1-0.1","battery-v0.2","","","460.40000000596046","&#9784;","elianto","#FFFFF080","32","32","1","&#10004","1312.4000000059605","1","0","0","4ee95e0e8737a0304baac70a&order=1&STUDY_ID=61caf85b4892b889f6411591","999","","",""
"pit-trial","5","46052","0.0-2.0-1.2-0.2","battery-v0.2","","","375.40000000596046","&#9784;","elianto","#FFFFF080","32","32","1","&#10004","1225.2999999821186","1","0","0","4ee95e0e8737a0304baac70a&order=1&STUDY_ID=61caf85b4892b889f6411591","999","","",""
"pit-trial","6","49279","0.0-2.0-1.3-0.3","battery-v0.2","","","367.09999999403954","&#9784;","elianto","#FFFFF080","32","32","1","&#10004","1217.2000000178814","1","0","0","4ee95e0e8737a0304baac70a&order=1&STUDY_ID=61caf85b4892b889f6411591","999","","",""
"pit-trial","7","52396","0.0-2.0-1.4-0.4","battery-v0.2","","","256.40000000596046","&#9784;","elianto","#FFFFF080","32","32","1","&#10004","1107.4000000059605","1","0","0","4ee95e0e8737a0304baac70a&order=1&STUDY_ID=61caf85b4892b889f6411591","999","","",""
"pit-instructions","8","67502","0.0-2.0-2.0","battery-v0.2","","[{""page_index"":0,""viewing_time"":6517.9000000059605},{""page_index"":1,""viewing_time"":3873},{""page_index"":2,""viewing_time"":1549},{""page_index"":3,""viewing_time"":3159.300000011921}]","15099.700000017881","","","","","","","","","","","","","","","",""
"pit-trial","9","72366","0.0-2.0-3.0-0.0","battery-v0.2","","","-1","&#9854;","elianto","#FFFFF080","-1","-1","1","&#10004","","0","0","1","4ee95e0e8737a0304baac70a&order=1&STUDY_ID=61caf85b4892b889f6411591","999","","",""
"pit-trial","10","77232","0.0-2.0-3.1-0.1","battery-v0.2","","","-1","&#9854;","elianto","#FFFFF080","-1","-1","1","&#10004","","0","0","1","4ee95e0e8737a0304baac70a&order=1&STUDY_ID=61caf85b4892b889f6411591","999","","",""
"pit-trial","11","82093","0.0-2.0-3.2-0.2","battery-v0.2","","","-1","&#9854;","elianto","#FFFFF080","-1","-1","1","&#10004","","0","0","1","4ee95e0e8737a0304baac70a&order=1&STUDY_ID=61caf85b4892b889f6411591","999","","",""
"pit-trial","12","86958","0.0-2.0-3.3-0.3","battery-v0.2","","","-1","&#9854;","elianto","#FFFFF080","-1","-1","1","&#10004","","0","0","1","4ee95e0e8737a0304baac70a&order=1&STUDY_ID=61caf85b4892b889f6411591","999","","",""
"pit-trial","13","91824","0.0-2.0-3.4-0.4","battery-v0.2","","","-1","&#9854;","elianto","#FFFFF080","-1","-1","1","&#10004","","0","0","1","4ee95e0e8737a0304baac70a&order=1&STUDY_ID=61caf85b4892b889f6411591","999","","",""
"pit-instructions","14","190722","0.0-2.0-4.0","battery-v0.2","","[{""page_index"":0,""viewing_time"":31643},{""page_index"":1,""viewing_time"":2316.800000011921},{""page_index"":2,""viewing_time"":2709},{""page_index"":3,""viewing_time"":5719.5999999940395},{""page_index"":4,""viewing_time"":2070.2000000178814},{""page_index"":5,""viewing_time"":18048.899999976158},{""page_index"":6,""viewing_time"":27482.5},{""page_index"":7,""viewing_time"":1556.5},{""page_index"":8,""viewing_time"":1606.800000011921},{""page_index"":9,""viewing_time"":2640.5},{""page_index"":10,""viewing_time"":3101.4000000059605}]","98895.70000001788","","","","","","","","","","","","","","","",""
"pit-trial","15","195218","0.0-2.0-5.0-0.0","battery-v0.2","","","1639.199999988079","&#9776;","elianto","#3366ff99","32","32","1","+10","2489.5","1","0","1","4ee95e0e8737a0304baac70a&order=1&STUDY_ID=61caf85b4892b889f6411591","999","","",""
"pit-trial","16","198120","0.0-2.0-5.0-1.0","battery-v0.2","","","42.89999997615814","&#9776;","elianto","#3366ff99","32","32","1","+10","894","1","0","1","4ee95e0e8737a0304baac70a&order=1&STUDY_ID=61caf85b4892b889f6411591","999","","",""
"pit-trial","17","201545","0.0-2.0-5.0-2.0","battery-v0.2","","","569.4000000059605","&#9776;","elianto","#3366ff99","32","32","1","+10","1420.699999988079","1","0","1","4ee95e0e8737a0304baac70a&order=1&STUDY_ID=61caf85b4892b889f6411591","999","","",""
"pit-trial","18","205355","0.0-2.0-5.0-3.0","battery-v0.2","","","949.6999999880791","&#9776;","elianto","#3366ff99","32","32","1","0","1801.4000000059605","1","0","1","4ee95e0e8737a0304baac70a&order=1&STUDY_ID=61caf85b4892b889f6411591","999","","",""
"pit-trial","19","209071","0.0-2.0-5.0-4.0","battery-v0.2","","","857.1999999880791","&#9776;","elianto","#3366ff99","32","32","1","+10","1707.4000000059605","1","0","1","4ee95e0e8737a0304baac70a&order=1&STUDY_ID=61caf85b4892b889f6411591","999","","",""
"call-function","20","209075","0.0-2.0-6.0","battery-v0.2","","","","","","","","","","","","","","","","","","",""
"pit-instructions","21","222112","0.0-2.0-7.0","battery-v0.2","","[{""page_index"":0,""viewing_time"":5539.699999988079},{""page_index"":1,""viewing_time"":1276.7000000178814},{""page_index"":2,""viewing_time"":3737.2999999821186},{""page_index"":3,""viewing_time"":2482.7000000178814}]","13036.59999999404","","","","","","","","","","","","","","","",""
"pit-trial","22","225876","0.0-2.0-8.0-0.0","battery-v0.2","","","905","&#9761;","elianto","#3366ff99","-1","32","0","0","1756.5","1","0","2","4ee95e0e8737a0304baac70a&order=1&STUDY_ID=61caf85b4892b889f6411591","999","","",""
"pit-trial","23","230738","0.0-2.0-8.0-1.0","battery-v0.2","","","-1","&#9761;","elianto","#3366ff99","-1","-1","1","+10","","0","0","2","4ee95e0e8737a0304baac70a&order=1&STUDY_ID=61caf85b4892b889f6411591","999","","",""
"pit-trial","24","235597","0.0-2.0-8.0-2.0","battery-v0.2","","","-1","&#9761;","elianto","#3366ff99","-1","-1","1","+10","","0","0","2","4ee95e0e8737a0304baac70a&order=1&STUDY_ID=61caf85b4892b889f6411591","999","","",""
"pit-trial","25","240461","0.0-2.0-8.0-3.0","battery-v0.2","","","-1","&#9761;","elianto","#3366ff99","-1","-1","1","+10","","0","0","2","4ee95e0e8737a0304baac70a&order=1&STUDY_ID=61caf85b4892b889f6411591","999","","",""
"pit-trial","26","245325","0.0-2.0-8.0-4.0","battery-v0.2","","","-1","&#9761;","elianto","#3366ff99","-1","-1","1","0","","0","0","2","4ee95e0e8737a0304baac70a&order=1&STUDY_ID=61caf85b4892b889f6411591","999","","",""
"call-function","27","245329","0.0-2.0-9.0","battery-v0.2","","","","","","","","","","","","","","","","","","",""
"pit-instructions","28","250564","0.0-2.0-10.0","battery-v0.2","","[{""page_index"":0,""viewing_time"":3830.9000000059605},{""page_index"":1,""viewing_time"":1403.699999988079}]","5234.9000000059605","","","","","","","","","","","","","","","",""
"pit-trial","29","254164","0.0-2.0-11.0-0.0","battery-v0.2","","","742","&#9826;","elianto","#f73b6a7A","-1","32","0","-10","1593.9000000059605","1","0","3","4ee95e0e8737a0304baac70a&order=1&STUDY_ID=61caf85b4892b889f6411591","999","","",""
"pit-trial","30","259027","0.0-2.0-11.0-1.0","battery-v0.2","","","-1","&#9826;","elianto","#f73b6a7A","-1","-1","1","0","","0","0","3","4ee95e0e8737a0304baac70a&order=1&STUDY_ID=61caf85b4892b889f6411591","999","","",""
"pit-trial","31","263888","0.0-2.0-11.0-2.0","battery-v0.2","","","-1","&#9826;","elianto","#f73b6a7A","-1","-1","1","-10","","0","0","3","4ee95e0e8737a0304baac70a&order=1&STUDY_ID=61caf85b4892b889f6411591","999","","",""
"pit-trial","32","268749","0.0-2.0-11.0-3.0","battery-v0.2","","","-1","&#9826;","elianto","#f73b6a7A","-1","-1","1","0","","0","0","3","4ee95e0e8737a0304baac70a&order=1&STUDY_ID=61caf85b4892b889f6411591","999","","",""
"pit-trial","33","273609","0.0-2.0-11.0-4.0","battery-v0.2","","","-1","&#9826;","elianto","#f73b6a7A","-1","-1","1","0","","0","0","3","4ee95e0e8737a0304baac70a&order=1&STUDY_ID=61caf85b4892b889f6411591","999","","",""
"call-function","34","273611","0.0-2.0-12.0","battery-v0.2","","","","","","","","","","","","","","","","","","",""
"pit-instructions","35","281475","0.0-2.0-13.0","battery-v0.2","","[{""page_index"":0,""viewing_time"":5022.0999999940395},{""page_index"":1,""viewing_time"":2840.4000000059605}]","7863.0999999940395","","","","","","","","","","","","","","","",""
"pit-trial","36","284976","0.0-2.0-14.0-0.0","battery-v0.2","","","642.5","&#9789;","elianto","#f73b6a7A","32","32","1","0","1492.9000000059605","1","0","4","4ee95e0e8737a0304baac70a&order=1&STUDY_ID=61caf85b4892b889f6411591","999","","",""
"pit-trial","37","288586","0.0-2.0-14.0-1.0","battery-v0.2","","","755.4000000059605","&#9789;","elianto","#f73b6a7A","32","32","1","0","1606.5","1","0","4","4ee95e0e8737a0304baac70a&order=1&STUDY_ID=61caf85b4892b889f6411591","999","","",""
"pit-trial","38","291828","0.0-2.0-14.0-2.0","battery-v0.2","","","383.19999998807907","&#9789;","elianto","#f73b6a7A","32","32","1","0","1233.300000011921","1","0","4","4ee95e0e8737a0304baac70a&order=1&STUDY_ID=61caf85b4892b889f6411591","999","","",""
"pit-trial","39","295127","0.0-2.0-14.0-3.0","battery-v0.2","","","441.19999998807907","&#9789;","elianto","#f73b6a7A","32","32","1","0","1292.9000000059605","1","0","4","4ee95e0e8737a0304baac70a&order=1&STUDY_ID=61caf85b4892b889f6411591","999","","",""
"pit-trial","40","298084","0.0-2.0-14.0-4.0","battery-v0.2","","","97.7999999821186","&#9789;","elianto","#f73b6a7A","32","32","1","-10","948.4000000059605","1","0","4","4ee95e0e8737a0304baac70a&order=1&STUDY_ID=61caf85b4892b889f6411591","999","","",""
"call-function","41","298088","0.0-2.0-15.0","battery-v0.2","","","","","","","","","","","","","","","","","","",""
"pit-instructions","42","359061","0.0-2.0-16.0","battery-v0.2","","[{""page_index"":0,""viewing_time"":2754.300000011921},{""page_index"":1,""viewing_time"":12576.40000000596},{""page_index"":2,""viewing_time"":4402.5999999940395},{""page_index"":3,""viewing_time"":3048.4000000059605},{""page_index"":2,""viewing_time"":2370.0999999940395},{""page_index"":1,""viewing_time"":24011.30000001192},{""page_index"":2,""viewing_time"":7429.399999976158},{""page_index"":3,""viewing_time"":2677.9000000059605},{""page_index"":4,""viewing_time"":1702.5}]","60973.40000000596","","","","","","","","","","","","","","","",""
"pit-comprehension","43","364166","0.0-2.0-17.0-0.0","battery-v0.2","","","5100.600000023842","","","","","","","","","","","","","","","SPACE","0"
"pit-instructions","44","365138","0.0-2.0-17.0-1.0","battery-v0.2","","[{""page_index"":0,""viewing_time"":940.5}]","941.0999999940395","","","","","","","","","","","","","","","",""
"pit-comprehension","45","369308","0.0-2.0-18.0-0.0","battery-v0.2","","","4167.0999999940395","","","","","","","","","","","","","","","10","0"
"pit-instructions","46","371590","0.0-2.0-18.0-1.0","battery-v0.2","","[{""page_index"":0,""viewing_time"":2276.7999999821186}]","2277.5999999940395","","","","","","","","","","","","","","","",""
"pit-comprehension","47","376922","0.0-2.0-19.0-0.0","battery-v0.2","","","5327.5","","","","","","","","","","","","","","","0","0"
"pit-instructions","48","377790","0.0-2.0-19.0-1.0","battery-v0.2","","[{""page_index"":0,""viewing_time"":853.1999999880791}]","854","","","","","","","","","","","","","","","",""
"pit-comprehension","49","397036","0.0-2.0-20.0-0.0","battery-v0.2","","","19241.90000000596","","","","","","","","","","","","","","","True","0"
"pit-instructions","50","397910","0.0-2.0-20.0-1.0","battery-v0.2","","[{""page_index"":0,""viewing_time"":857.5}]","858","","","","","","","","","","","","","","","",""
"pit-comprehension","51","402090","0.0-2.0-21.0-0.0","battery-v0.2","","","4176.5","","","","","","","","","","","","","","","True","0"
"pit-instructions","52","403234","0.0-2.0-21.0-1.0","battery-v0.2","","[{""page_index"":0,""viewing_time"":1131.5}]","1132.5","","","","","","","","","","","","","","","",""
"pit-comprehension","53","406530","0.0-2.0-22.0-0.0","battery-v0.2","","","3291.5","","","","","","","","","","","","","","","True","0"
"pit-instructions","54","407260","0.0-2.0-22.0-1.0","battery-v0.2","","[{""page_index"":0,""viewing_time"":715.5}]","716.5","","","","","","","","","","","","","","","",""
"pit-instructions","55","412098","0.0-3.0","battery-v0.2","","[{""page_index"":0,""viewing_time"":1147.5},{""page_index"":1,""viewing_time"":2078.4000000059605},{""page_index"":2,""viewing_time"":1608.0999999940395}]","4834.5","","","","","","","","","","","","","","","",""
