"trial_type","trial_index","time_elapsed","internal_node_id","task_version","subject_id","interactions","blur_events","focus_events","fullscreenenter_events","fullscreenexit_events","success","view_history","rt","responses","num_errors","age","subject","participantId","rune","rune_set","hex","correct","choice","accuracy","outcome","keys","total_keys","block","practice","value","sub","trial","stimulus","robot","valence","action","sham","browser_interactions"
"pavlovia","0","6","0.0-0.0","battery-v0.2","","""event"",""trial"",""time""
""fullscreenenter"",""1"",""3927""
","
","
","""event"",""trial"",""time""
""fullscreenenter"",""1"",""3927""
","
","","","","","","","","","","","","","","","","","","","","","","","","","","","",""
"fullscreen","1","4869","0.0-1.0","battery-v0.2","","""event"",""trial"",""time""
""fullscreenenter"",""1"",""3927""
","
","
","""event"",""trial"",""time""
""fullscreenenter"",""1"",""3927""
","
","true","","","","","","","","","","","","","","","","","","","","","","","","","","",""
"pit-instructions","2","11039","0.0-2.0-0.0","battery-v0.2","","""event"",""trial"",""time""
""fullscreenenter"",""1"",""3927""
","
","
","""event"",""trial"",""time""
""fullscreenenter"",""1"",""3927""
","
","","[{""page_index"":0,""viewing_time"":6167}]","6167","","","","","","","","","","","","","","","","","","","","","","","","",""
"pit-comprehension","3","14758","0.0-2.0-1.0-0.0","battery-v0.2","","""event"",""trial"",""time""
""fullscreenenter"",""1"",""3927""
","
","
","""event"",""trial"",""time""
""fullscreenenter"",""1"",""3927""
","
","","","3517","[""shark""]","0","15","1073","775","","","","","","","","","","","","","","","","","","","",""
"pit-instructions","4","18055","0.0-2.0-1.0-1.0","battery-v0.2","","""event"",""trial"",""time""
""fullscreenenter"",""1"",""3927""
","
","
","""event"",""trial"",""time""
""fullscreenenter"",""1"",""3927""
","
","","[{""page_index"":0,""viewing_time"":3289}]","3289","","","","","","","","","","","","","","","","","","","","","","","","",""
"pit-comprehension","5","20393","0.0-2.0-2.0-0.0","battery-v0.2","","""event"",""trial"",""time""
""fullscreenenter"",""1"",""3927""
","
","
","""event"",""trial"",""time""
""fullscreenenter"",""1"",""3927""
","
","","","2335.9999999999964","[""tiger""]","0","15","1073","775","","","","","","","","","","","","","","","","","","","",""
"pit-instructions","6","21356","0.0-2.0-2.0-1.0","battery-v0.2","","""event"",""trial"",""time""
""fullscreenenter"",""1"",""3927""
","
","
","""event"",""trial"",""time""
""fullscreenenter"",""1"",""3927""
","
","","[{""page_index"":0,""viewing_time"":958.9999999999964}]","958.9999999999964","","","","","","","","","","","","","","","","","","","","","","","","",""
"pit-instructions","7","135208","0.0-2.0-3.0","battery-v0.2","","""event"",""trial"",""time""
""fullscreenenter"",""1"",""3927""
","
","
","""event"",""trial"",""time""
""fullscreenenter"",""1"",""3927""
","
","","[{""page_index"":0,""viewing_time"":8217},{""page_index"":1,""viewing_time"":6818},{""page_index"":2,""viewing_time"":7669},{""page_index"":3,""viewing_time"":9203},{""page_index"":4,""viewing_time"":6836},{""page_index"":5,""viewing_time"":9870},{""page_index"":6,""viewing_time"":6935},{""page_index"":7,""viewing_time"":9153},{""page_index"":8,""viewing_time"":8136},{""page_index"":9,""viewing_time"":9653},{""page_index"":10,""viewing_time"":8003},{""page_index"":11,""viewing_time"":8986},{""page_index"":12,""viewing_time"":7919.000000000015},{""page_index"":13,""viewing_time"":6452.999999999985}]","113851","","","","","","","","","","","","","","","","","","","","","","","","",""
"pit-trial","8","138580","0.0-2.0-4.0-0.0","battery-v0.2","","""event"",""trial"",""time""
""fullscreenenter"",""1"",""3927""
","
","
","""event"",""trial"",""time""
""fullscreenenter"",""1"",""3927""
","
","","","518.9999999999709","","","15","1073","775","&#9784;","elianto","#FFFFF080"," "," ","1","&#10004","[1369.999999999971]","1","0","0","","","","","","","","",""
"pit-trial","9","142833","0.0-2.0-4.1-0.1","battery-v0.2","","""event"",""trial"",""time""
""fullscreenenter"",""1"",""3927""
","
","
","""event"",""trial"",""time""
""fullscreenenter"",""1"",""3927""
","
","","","1399","","","15","1073","775","&#9784;","elianto","#FFFFF080"," "," ","1","&#10004","[2249]","1","0","0","","","","","","","","",""
"pit-trial","10","146410","0.0-2.0-4.2-0.2","battery-v0.2","","""event"",""trial"",""time""
""fullscreenenter"",""1"",""3927""
","
","
","""event"",""trial"",""time""
""fullscreenenter"",""1"",""3927""
","
","","","725","","","15","1073","775","&#9784;","elianto","#FFFFF080"," "," ","1","&#10004","[1574.999999999971]","1","0","0","","","","","","","","",""
"pit-trial","11","149797","0.0-2.0-4.3-0.3","battery-v0.2","","""event"",""trial"",""time""
""fullscreenenter"",""1"",""3927""
","
","
","""event"",""trial"",""time""
""fullscreenenter"",""1"",""3927""
","
","","","532","","","15","1073","775","&#9784;","elianto","#FFFFF080"," "," ","1","&#10004","[134,1383]","2","0","0","","","","","","","","",""
"pit-trial","12","153396","0.0-2.0-4.4-0.4","battery-v0.2","","""event"",""trial"",""time""
""fullscreenenter"",""1"",""3927""
","
","
","""event"",""trial"",""time""
""fullscreenenter"",""1"",""3927""
","
","","","747","","","15","1073","775","&#9784;","elianto","#FFFFF080"," "," ","1","&#10004","[1596.999999999971]","1","0","0","","","","","","","","",""
"pit-instructions","13","178054","0.0-2.0-5.0","battery-v0.2","","""event"",""trial"",""time""
""fullscreenenter"",""1"",""3927""
","
","
","""event"",""trial"",""time""
""fullscreenenter"",""1"",""3927""
","
","","[{""page_index"":0,""viewing_time"":5049},{""page_index"":1,""viewing_time"":7403},{""page_index"":2,""viewing_time"":5251.000000000029},{""page_index"":3,""viewing_time"":6952}]","24655.00000000003","","","","","","","","","","","","","","","","","","","","","","","","",""
"pit-trial","14","182907","0.0-2.0-6.0-0.0","battery-v0.2","","""event"",""trial"",""time""
""fullscreenenter"",""1"",""3927""
","
","
","""event"",""trial"",""time""
""fullscreenenter"",""1"",""3927""
","
","","","-1","","","15","1073","775","&#9854;","elianto","#FFFFF080","-1","-1","1","&#10004","[]","0","0","1","","","","","","","","",""
"pit-trial","15","187761","0.0-2.0-6.1-0.1","battery-v0.2","","""event"",""trial"",""time""
""fullscreenenter"",""1"",""3927""
","
","
","""event"",""trial"",""time""
""fullscreenenter"",""1"",""3927""
","
","","","-1","","","15","1073","775","&#9854;","elianto","#FFFFF080","-1","-1","1","&#10004","[]","0","0","1","","","","","","","","",""
"pit-trial","16","192615","0.0-2.0-6.2-0.2","battery-v0.2","","""event"",""trial"",""time""
""fullscreenenter"",""1"",""3927""
","
","
","""event"",""trial"",""time""
""fullscreenenter"",""1"",""3927""
","
","","","-1","","","15","1073","775","&#9854;","elianto","#FFFFF080","-1","-1","1","&#10004","[]","0","0","1","","","","","","","","",""
"pit-trial","17","197468","0.0-2.0-6.3-0.3","battery-v0.2","","""event"",""trial"",""time""
""fullscreenenter"",""1"",""3927""
","
","
","""event"",""trial"",""time""
""fullscreenenter"",""1"",""3927""
","
","","","-1","","","15","1073","775","&#9854;","elianto","#FFFFF080","-1","-1","1","&#10004","[]","0","0","1","","","","","","","","",""
"pit-trial","18","202321","0.0-2.0-6.4-0.4","battery-v0.2","","""event"",""trial"",""time""
""fullscreenenter"",""1"",""3927""
","
","
","""event"",""trial"",""time""
""fullscreenenter"",""1"",""3927""
","
","","","-1","","","15","1073","775","&#9854;","elianto","#FFFFF080","-1","-1","1","&#10004","[]","0","0","1","","","","","","","","",""
"pit-instructions","19","357375","0.0-2.0-7.0","battery-v0.2","","""event"",""trial"",""time""
""fullscreenenter"",""1"",""3927""
","
","
","""event"",""trial"",""time""
""fullscreenenter"",""1"",""3927""
","
","","[{""page_index"":0,""viewing_time"":5940},{""page_index"":1,""viewing_time"":6736},{""page_index"":2,""viewing_time"":6668},{""page_index"":3,""viewing_time"":6302},{""page_index"":4,""viewing_time"":11120.00000000003},{""page_index"":5,""viewing_time"":6352.999999999971},{""page_index"":6,""viewing_time"":8336},{""page_index"":7,""viewing_time"":14071},{""page_index"":8,""viewing_time"":8286},{""page_index"":9,""viewing_time"":9020},{""page_index"":10,""viewing_time"":8169.000000000058},{""page_index"":11,""viewing_time"":13253.999999999942},{""page_index"":12,""viewing_time"":9989},{""page_index"":13,""viewing_time"":10734},{""page_index"":14,""viewing_time"":9088},{""page_index"":15,""viewing_time"":7985},{""page_index"":16,""viewing_time"":6418},{""page_index"":17,""viewing_time"":6585}]","155055","","","","","","","","","","","","","","","","","","","","","","","","",""
"pit-trial","20","360927","0.0-2.0-8.0-0.0","battery-v0.2","","""event"",""trial"",""time""
""fullscreenenter"",""1"",""3927""
","
","
","""event"",""trial"",""time""
""fullscreenenter"",""1"",""3927""
","
","","","699","","","15","1073","775","&#9776;","elianto","#3366ff99"," "," ","1","+10","[1550]","1","0","1","","","","","","","","",""
"pit-trial","21","364605","0.0-2.0-8.0-1.0","battery-v0.2","","""event"",""trial"",""time""
""fullscreenenter"",""1"",""3927""
","
","
","""event"",""trial"",""time""
""fullscreenenter"",""1"",""3927""
","
","","","825","","","15","1073","775","&#9776;","elianto","#3366ff99"," "," ","1","+10","[1674.9999999999418]","1","0","1","","","","","","","","",""
"pit-trial","22","368173","0.0-2.0-8.0-2.0","battery-v0.2","","""event"",""trial"",""time""
""fullscreenenter"",""1"",""3927""
","
","
","""event"",""trial"",""time""
""fullscreenenter"",""1"",""3927""
","
","","","715","","","15","1073","775","&#9776;","elianto","#3366ff99"," "," ","1","+10","[1565]","1","0","1","","","","","","","","",""
"pit-trial","23","371727","0.0-2.0-8.0-3.0","battery-v0.2","","""event"",""trial"",""time""
""fullscreenenter"",""1"",""3927""
","
","
","""event"",""trial"",""time""
""fullscreenenter"",""1"",""3927""
","
","","","702","","","15","1073","775","&#9776;","elianto","#3366ff99"," "," ","1","0","[1552]","1","0","1","","","","","","","","",""
"pit-trial","24","375440","0.0-2.0-8.0-4.0","battery-v0.2","","""event"",""trial"",""time""
""fullscreenenter"",""1"",""3927""
","
","
","""event"",""trial"",""time""
""fullscreenenter"",""1"",""3927""
","
","","","860.9999999999418","","","15","1073","775","&#9776;","elianto","#3366ff99"," "," ","1","+10","[1711]","1","0","1","","","","","","","","",""
"call-function","25","375441","0.0-2.0-9.0","battery-v0.2","","""event"",""trial"",""time""
""fullscreenenter"",""1"",""3927""
","
","
","""event"",""trial"",""time""
""fullscreenenter"",""1"",""3927""
","
","","","","","","","","","","","","","","","","","","","","","","","","","","","",""
"pit-instructions","26","414175","0.0-2.0-10.0","battery-v0.2","","""event"",""trial"",""time""
""fullscreenenter"",""1"",""3927""
","
","
","""event"",""trial"",""time""
""fullscreenenter"",""1"",""3927""
","
","","[{""page_index"":0,""viewing_time"":5974},{""page_index"":1,""viewing_time"":6002},{""page_index"":2,""viewing_time"":9753},{""page_index"":3,""viewing_time"":8970},{""page_index"":4,""viewing_time"":8035}]","38734","","","","","","","","","","","","","","","","","","","","","","","","",""
"pit-trial","27","417652","0.0-2.0-11.0-0.0","battery-v0.2","","""event"",""trial"",""time""
""fullscreenenter"",""1"",""3927""
","
","
","""event"",""trial"",""time""
""fullscreenenter"",""1"",""3927""
","
","","","622","","","15","1073","775","&#9761;","elianto","#3366ff99","-1"," ","0","0","[1472]","1","0","2","","","","","","","","",""
"pit-trial","28","421137","0.0-2.0-11.0-1.0","battery-v0.2","","""event"",""trial"",""time""
""fullscreenenter"",""1"",""3927""
","
","
","""event"",""trial"",""time""
""fullscreenenter"",""1"",""3927""
","
","","","632","","","15","1073","775","&#9761;","elianto","#3366ff99","-1"," ","0","0","[1483]","1","0","2","","","","","","","","",""
"pit-trial","29","424557","0.0-2.0-11.0-2.0","battery-v0.2","","""event"",""trial"",""time""
""fullscreenenter"",""1"",""3927""
","
","
","""event"",""trial"",""time""
""fullscreenenter"",""1"",""3927""
","
","","","567","","","15","1073","775","&#9761;","elianto","#3366ff99","-1"," ","0","0","[1418]","1","0","2","","","","","","","","",""
"pit-trial","30","428113","0.0-2.0-11.0-3.0","battery-v0.2","","""event"",""trial"",""time""
""fullscreenenter"",""1"",""3927""
","
","
","""event"",""trial"",""time""
""fullscreenenter"",""1"",""3927""
","
","","","704","","","15","1073","775","&#9761;","elianto","#3366ff99","-1"," ","0","+10","[1553.9999999999418]","1","0","2","","","","","","","","",""
"pit-trial","31","431578","0.0-2.0-11.0-4.0","battery-v0.2","","""event"",""trial"",""time""
""fullscreenenter"",""1"",""3927""
","
","
","""event"",""trial"",""time""
""fullscreenenter"",""1"",""3927""
","
","","","612.0000000000582","","","15","1073","775","&#9761;","elianto","#3366ff99","-1"," ","0","0","[1463.0000000000582]","1","0","2","","","","","","","","",""
"pit-trial","32","435201","0.0-2.0-11.1-0.1","battery-v0.2","","""event"",""trial"",""time""
""fullscreenenter"",""1"",""3927""
","
","
","""event"",""trial"",""time""
""fullscreenenter"",""1"",""3927""
","
","","","770","","","15","1073","775","&#9761;","elianto","#3366ff99","-1"," ","0","0","[1620]","1","0","2","","","","","","","","",""
"pit-trial","33","438666","0.0-2.0-11.1-1.1","battery-v0.2","","""event"",""trial"",""time""
""fullscreenenter"",""1"",""3927""
","
","
","""event"",""trial"",""time""
""fullscreenenter"",""1"",""3927""
","
","","","610.9999999999418","","","15","1073","775","&#9761;","elianto","#3366ff99","-1"," ","0","0","[1461]","1","0","2","","","","","","","","",""
"pit-trial","34","443518","0.0-2.0-11.1-2.1","battery-v0.2","","""event"",""trial"",""time""
""fullscreenenter"",""1"",""3927""
","
","
","""event"",""trial"",""time""
""fullscreenenter"",""1"",""3927""
","
","","","-1","","","15","1073","775","&#9761;","elianto","#3366ff99","-1","-1","1","+10","[]","0","0","2","","","","","","","","",""
"pit-trial","35","448371","0.0-2.0-11.1-3.1","battery-v0.2","","""event"",""trial"",""time""
""fullscreenenter"",""1"",""3927""
","
","
","""event"",""trial"",""time""
""fullscreenenter"",""1"",""3927""
","
","","","-1","","","15","1073","775","&#9761;","elianto","#3366ff99","-1","-1","1","0","[]","0","0","2","","","","","","","","",""
"pit-trial","36","453224","0.0-2.0-11.1-4.1","battery-v0.2","","""event"",""trial"",""time""
""fullscreenenter"",""1"",""3927""
","
","
","""event"",""trial"",""time""
""fullscreenenter"",""1"",""3927""
","
","","","-1","","","15","1073","775","&#9761;","elianto","#3366ff99","-1","-1","1","+10","[]","0","0","2","","","","","","","","",""
"pit-trial","37","458077","0.0-2.0-11.2-0.2","battery-v0.2","","""event"",""trial"",""time""
""fullscreenenter"",""1"",""3927""
","
","
","""event"",""trial"",""time""
""fullscreenenter"",""1"",""3927""
","
","","","-1","","","15","1073","775","&#9761;","elianto","#3366ff99","-1","-1","1","+10","[]","0","0","2","","","","","","","","",""
"pit-trial","38","462930","0.0-2.0-11.2-1.2","battery-v0.2","","""event"",""trial"",""time""
""fullscreenenter"",""1"",""3927""
","
","
","""event"",""trial"",""time""
""fullscreenenter"",""1"",""3927""
","
","","","-1","","","15","1073","775","&#9761;","elianto","#3366ff99","-1","-1","1","+10","[]","0","0","2","","","","","","","","",""
"pit-trial","39","467784","0.0-2.0-11.2-2.2","battery-v0.2","","""event"",""trial"",""time""
""fullscreenenter"",""1"",""3927""
","
","
","""event"",""trial"",""time""
""fullscreenenter"",""1"",""3927""
","
","","","-1","","","15","1073","775","&#9761;","elianto","#3366ff99","-1","-1","1","+10","[]","0","0","2","","","","","","","","",""
"pit-trial","40","472638","0.0-2.0-11.2-3.2","battery-v0.2","","""event"",""trial"",""time""
""fullscreenenter"",""1"",""3927""
","
","
","""event"",""trial"",""time""
""fullscreenenter"",""1"",""3927""
","
","","","-1","","","15","1073","775","&#9761;","elianto","#3366ff99","-1","-1","1","0","[]","0","0","2","","","","","","","","",""
"pit-trial","41","477491","0.0-2.0-11.2-4.2","battery-v0.2","","""event"",""trial"",""time""
""fullscreenenter"",""1"",""3927""
","
","
","""event"",""trial"",""time""
""fullscreenenter"",""1"",""3927""
","
","","","-1","","","15","1073","775","&#9761;","elianto","#3366ff99","-1","-1","1","+10","[]","0","0","2","","","","","","","","",""
"call-function","42","477493","0.0-2.0-12.0","battery-v0.2","","""event"",""trial"",""time""
""fullscreenenter"",""1"",""3927""
","
","
","""event"",""trial"",""time""
""fullscreenenter"",""1"",""3927""
","
","","","","","","","","","","","","","","","","","","","","","","","","","","","",""
"pit-instructions","43","509806","0.0-2.0-13.0","battery-v0.2","","""event"",""trial"",""time""
""fullscreenenter"",""1"",""3927""
","
","
","""event"",""trial"",""time""
""fullscreenenter"",""1"",""3927""
","
","","[{""page_index"":0,""viewing_time"":5270},{""page_index"":1,""viewing_time"":7570},{""page_index"":2,""viewing_time"":3967},{""page_index"":3,""viewing_time"":10671},{""page_index"":4,""viewing_time"":4835}]","32313","","","","","","","","","","","","","","","","","","","","","","","","",""
"pit-trial","44","513603","0.0-2.0-14.0-0.0","battery-v0.2","","""event"",""trial"",""time""
""fullscreenenter"",""1"",""3927""
","
","
","""event"",""trial"",""time""
""fullscreenenter"",""1"",""3927""
","
","","","944.0000000000582","","","15","1073","775","&#9826;","elianto","#f73b6a7A","-1"," ","0","-10","[1794.0000000000582]","1","0","3","","","","","","","","",""
"pit-trial","45","518455","0.0-2.0-14.0-1.0","battery-v0.2","","""event"",""trial"",""time""
""fullscreenenter"",""1"",""3927""
","
","
","""event"",""trial"",""time""
""fullscreenenter"",""1"",""3927""
","
","","","-1","","","15","1073","775","&#9826;","elianto","#f73b6a7A","-1","-1","1","0","[]","0","0","3","","","","","","","","",""
"pit-trial","46","523308","0.0-2.0-14.0-2.0","battery-v0.2","","""event"",""trial"",""time""
""fullscreenenter"",""1"",""3927""
","
","
","""event"",""trial"",""time""
""fullscreenenter"",""1"",""3927""
","
","","","-1","","","15","1073","775","&#9826;","elianto","#f73b6a7A","-1","-1","1","0","[]","0","0","3","","","","","","","","",""
"pit-trial","47","528161","0.0-2.0-14.0-3.0","battery-v0.2","","""event"",""trial"",""time""
""fullscreenenter"",""1"",""3927""
","
","
","""event"",""trial"",""time""
""fullscreenenter"",""1"",""3927""
","
","","","-1","","","15","1073","775","&#9826;","elianto","#f73b6a7A","-1","-1","1","-10","[]","0","0","3","","","","","","","","",""
"pit-trial","48","531906","0.0-2.0-14.0-4.0","battery-v0.2","","""event"",""trial"",""time""
""fullscreenenter"",""1"",""3927""
","
","
","""event"",""trial"",""time""
""fullscreenenter"",""1"",""3927""
","
","","","892","","","15","1073","775","&#9826;","elianto","#f73b6a7A","-1"," ","0","-10","[1743]","1","0","3","","","","","","","","",""
"pit-trial","49","536760","0.0-2.0-14.1-0.1","battery-v0.2","","""event"",""trial"",""time""
""fullscreenenter"",""1"",""3927""
","
","
","""event"",""trial"",""time""
""fullscreenenter"",""1"",""3927""
","
","","","-1","","","15","1073","775","&#9826;","elianto","#f73b6a7A","-1","-1","1","0","[]","0","0","3","","","","","","","","",""
"pit-trial","50","541614","0.0-2.0-14.1-1.1","battery-v0.2","","""event"",""trial"",""time""
""fullscreenenter"",""1"",""3927""
","
","
","""event"",""trial"",""time""
""fullscreenenter"",""1"",""3927""
","
","","","-1","","","15","1073","775","&#9826;","elianto","#f73b6a7A","-1","-1","1","0","[]","0","0","3","","","","","","","","",""
"pit-trial","51","546468","0.0-2.0-14.1-2.1","battery-v0.2","","""event"",""trial"",""time""
""fullscreenenter"",""1"",""3927""
","
","
","""event"",""trial"",""time""
""fullscreenenter"",""1"",""3927""
","
","","","-1","","","15","1073","775","&#9826;","elianto","#f73b6a7A","-1","-1","1","0","[]","0","0","3","","","","","","","","",""
"pit-trial","52","551321","0.0-2.0-14.1-3.1","battery-v0.2","","""event"",""trial"",""time""
""fullscreenenter"",""1"",""3927""
","
","
","""event"",""trial"",""time""
""fullscreenenter"",""1"",""3927""
","
","","","-1","","","15","1073","775","&#9826;","elianto","#f73b6a7A","-1","-1","1","-10","[]","0","0","3","","","","","","","","",""
"pit-trial","53","556175","0.0-2.0-14.1-4.1","battery-v0.2","","""event"",""trial"",""time""
""fullscreenenter"",""1"",""3927""
","
","
","""event"",""trial"",""time""
""fullscreenenter"",""1"",""3927""
","
","","","-1","","","15","1073","775","&#9826;","elianto","#f73b6a7A","-1","-1","1","0","[]","0","0","3","","","","","","","","",""
"call-function","54","556177","0.0-2.0-15.0","battery-v0.2","","""event"",""trial"",""time""
""fullscreenenter"",""1"",""3927""
","
","
","""event"",""trial"",""time""
""fullscreenenter"",""1"",""3927""
","
","","","","","","","","","","","","","","","","","","","","","","","","","","","",""
"pit-instructions","55","581327","0.0-2.0-16.0","battery-v0.2","","""event"",""trial"",""time""
""fullscreenenter"",""1"",""3927""
","
","
","""event"",""trial"",""time""
""fullscreenenter"",""1"",""3927""
","
","","[{""page_index"":0,""viewing_time"":6560.999999999884},{""page_index"":1,""viewing_time"":8236},{""page_index"":2,""viewing_time"":5018},{""page_index"":3,""viewing_time"":5335}]","25150.999999999884","","","","","","","","","","","","","","","","","","","","","","","","",""
"pit-trial","56","584929","0.0-2.0-17.0-0.0","battery-v0.2","","""event"",""trial"",""time""
""fullscreenenter"",""1"",""3927""
","
","
","""event"",""trial"",""time""
""fullscreenenter"",""1"",""3927""
","
","","","748","","","15","1073","775","&#9789;","elianto","#f73b6a7A"," "," ","1","0","[1599]","1","0","4","","","","","","","","",""
"pit-trial","57","588596","0.0-2.0-17.0-1.0","battery-v0.2","","""event"",""trial"",""time""
""fullscreenenter"",""1"",""3927""
","
","
","""event"",""trial"",""time""
""fullscreenenter"",""1"",""3927""
","
","","","814","","","15","1073","775","&#9789;","elianto","#f73b6a7A"," "," ","1","0","[1664]","1","0","4","","","","","","","","",""
"pit-trial","58","591982","0.0-2.0-17.0-2.0","battery-v0.2","","""event"",""trial"",""time""
""fullscreenenter"",""1"",""3927""
","
","
","""event"",""trial"",""time""
""fullscreenenter"",""1"",""3927""
","
","","","534","","","15","1073","775","&#9789;","elianto","#f73b6a7A"," "," ","1","0","[1383]","1","0","4","","","","","","","","",""
"pit-trial","59","595335","0.0-2.0-17.0-3.0","battery-v0.2","","""event"",""trial"",""time""
""fullscreenenter"",""1"",""3927""
","
","
","""event"",""trial"",""time""
""fullscreenenter"",""1"",""3927""
","
","","","500","","","15","1073","775","&#9789;","elianto","#f73b6a7A"," "," ","1","-10","[1351]","1","0","4","","","","","","","","",""
"pit-trial","60","598462","0.0-2.0-17.0-4.0","battery-v0.2","","""event"",""trial"",""time""
""fullscreenenter"",""1"",""3927""
","
","
","""event"",""trial"",""time""
""fullscreenenter"",""1"",""3927""
","
","","","274","","","15","1073","775","&#9789;","elianto","#f73b6a7A"," "," ","1","0","[1125]","1","0","4","","","","","","","","",""
"call-function","61","598464","0.0-2.0-18.0","battery-v0.2","","""event"",""trial"",""time""
""fullscreenenter"",""1"",""3927""
","
","
","""event"",""trial"",""time""
""fullscreenenter"",""1"",""3927""
","
","","","","","","","","","","","","","","","","","","","","","","","","","","","",""
"pit-instructions","62","670254","0.0-2.0-19.0","battery-v0.2","","""event"",""trial"",""time""
""fullscreenenter"",""1"",""3927""
","
","
","""event"",""trial"",""time""
""fullscreenenter"",""1"",""3927""
","
","","[{""page_index"":0,""viewing_time"":6554},{""page_index"":1,""viewing_time"":6085},{""page_index"":2,""viewing_time"":13388},{""page_index"":3,""viewing_time"":7418},{""page_index"":4,""viewing_time"":8437},{""page_index"":5,""viewing_time"":8835.000000000116},{""page_index"":6,""viewing_time"":8719.999999999884},{""page_index"":7,""viewing_time"":5852.000000000116},{""page_index"":8,""viewing_time"":6501.999999999884}]","71792","","","","","","","","","","","","","","","","","","","","","","","","",""
"pit-comprehension","63","674557","0.0-2.0-20.0-0.0","battery-v0.2","","""event"",""trial"",""time""
""fullscreenenter"",""1"",""3927""
","
","
","""event"",""trial"",""time""
""fullscreenenter"",""1"",""3927""
","
","","","4301","[""SPACE""]","0","15","1073","775","","","","","","","","","","","","","","","","","","","",""
"pit-instructions","64","677889","0.0-2.0-20.0-1.0","battery-v0.2","","""event"",""trial"",""time""
""fullscreenenter"",""1"",""3927""
","
","
","""event"",""trial"",""time""
""fullscreenenter"",""1"",""3927""
","
","","[{""page_index"":0,""viewing_time"":3295}]","3295","","","","","","","","","","","","","","","","","","","","","","","","",""
"pit-comprehension","65","685112","0.0-2.0-21.0-0.0","battery-v0.2","","""event"",""trial"",""time""
""fullscreenenter"",""1"",""3927""
","
","
","""event"",""trial"",""time""
""fullscreenenter"",""1"",""3927""
","
","","","7220","[""10""]","0","15","1073","775","","","","","","","","","","","","","","","","","","","",""
"pit-instructions","66","688576","0.0-2.0-21.0-1.0","battery-v0.2","","""event"",""trial"",""time""
""fullscreenenter"",""1"",""3927""
","
","
","""event"",""trial"",""time""
""fullscreenenter"",""1"",""3927""
","
","","[{""page_index"":0,""viewing_time"":3424}]","3424","","","","","","","","","","","","","","","","","","","","","","","","",""
"pit-comprehension","67","695213","0.0-2.0-22.0-0.0","battery-v0.2","","""event"",""trial"",""time""
""fullscreenenter"",""1"",""3927""
","
","
","""event"",""trial"",""time""
""fullscreenenter"",""1"",""3927""
","
","","","6633.999999999884","[""0""]","0","15","1073","775","","","","","","","","","","","","","","","","","","","",""
"pit-instructions","68","697079","0.0-2.0-22.0-1.0","battery-v0.2","","""event"",""trial"",""time""
""fullscreenenter"",""1"",""3927""
","
","
","""event"",""trial"",""time""
""fullscreenenter"",""1"",""3927""
","
","","[{""page_index"":0,""viewing_time"":1825.0000000001164}]","1825.0000000001164","","","","","","","","","","","","","","","","","","","","","","","","",""
"pit-comprehension","69","706550","0.0-2.0-23.0-0.0","battery-v0.2","","""event"",""trial"",""time""
""fullscreenenter"",""1"",""3927""
","
","
","""event"",""trial"",""time""
""fullscreenenter"",""1"",""3927""
","
","","","9468.000000000116","[""True""]","0","15","1073","775","","","","","","","","","","","","","","","","","","","",""
"pit-instructions","70","708499","0.0-2.0-23.0-1.0","battery-v0.2","","""event"",""trial"",""time""
""fullscreenenter"",""1"",""3927""
","
","
","""event"",""trial"",""time""
""fullscreenenter"",""1"",""3927""
","
","","[{""page_index"":0,""viewing_time"":1906}]","1906","","","","","","","","","","","","","","","","","","","","","","","","",""
"pit-comprehension","71","715969","0.0-2.0-24.0-0.0","battery-v0.2","","""event"",""trial"",""time""
""fullscreenenter"",""1"",""3927""
","
","
","""event"",""trial"",""time""
""fullscreenenter"",""1"",""3927""
","
","","","7467.999999999884","[""True""]","0","15","1073","775","","","","","","","","","","","","","","","","","","","",""
"pit-instructions","72","717736","0.0-2.0-24.0-1.0","battery-v0.2","","""event"",""trial"",""time""
""fullscreenenter"",""1"",""3927""
","
","
","""event"",""trial"",""time""
""fullscreenenter"",""1"",""3927""
","
","","[{""page_index"":0,""viewing_time"":1724}]","1724","","","","","","","","","","","","","","","","","","","","","","","","",""
"pit-comprehension","73","724305","0.0-2.0-25.0-0.0","battery-v0.2","","""event"",""trial"",""time""
""fullscreenenter"",""1"",""3927""
","
","
","""event"",""trial"",""time""
""fullscreenenter"",""1"",""3927""
","
","","","6565.000000000116","[""True""]","0","15","1073","775","","","","","","","","","","","","","","","","","","","",""
"pit-instructions","74","726021","0.0-2.0-25.0-1.0","battery-v0.2","","""event"",""trial"",""time""
""fullscreenenter"",""1"",""3927""
","
","
","""event"",""trial"",""time""
""fullscreenenter"",""1"",""3927""
","
","","[{""page_index"":0,""viewing_time"":1673}]","1673","","","","","","","","","","","","","","","","","","","","","","","","",""
"pit-comprehension","75","732857","0.0-2.0-26.0-0.0","battery-v0.2","","""event"",""trial"",""time""
""fullscreenenter"",""1"",""3927""
","
","
","""event"",""trial"",""time""
""fullscreenenter"",""1"",""3927""
","
","","","6833.000000000116","[""False""]","0","15","1073","775","","","","","","","","","","","","","","","","","","","",""
"pit-instructions","76","734474","0.0-2.0-26.0-1.0","battery-v0.2","","""event"",""trial"",""time""
""fullscreenenter"",""1"",""3927""
","
","
","""event"",""trial"",""time""
""fullscreenenter"",""1"",""3927""
","
","","[{""page_index"":0,""viewing_time"":1572}]","1573","","","","","","","","","","","","","","","","","","","","","","","","",""
"pit-instructions","77","751112","0.0-3.0","battery-v0.2","","""event"",""trial"",""time""
""fullscreenenter"",""1"",""3927""
","
","
","""event"",""trial"",""time""
""fullscreenenter"",""1"",""3927""
","
","","[{""page_index"":0,""viewing_time"":4280.999999999884},{""page_index"":1,""viewing_time"":5052},{""page_index"":2,""viewing_time"":7302}]","16635.999999999884","","","","","","","","","","","","","","","","","","","","","","","","",""
"pit-trial","78","755007","0.0-4.0","battery-v0.2","","""event"",""trial"",""time""
""fullscreenenter"",""1"",""3927""
","
","
","""event"",""trial"",""time""
""fullscreenenter"",""1"",""3927""
","
","","","1039","","","15","1073","775","&#9730;","elianto","#3366ff99"," "," ","1","+10","[1890]","1","1","","","1073","1","1","1","win","go","0","[]"
"pit-trial","79","759485","0.0-5.0","battery-v0.2","","""event"",""trial"",""time""
""fullscreenenter"",""1"",""3927""
","
","
","""event"",""trial"",""time""
""fullscreenenter"",""1"",""3927""
","
","","","1623","","","15","1073","775","&#9728;","elianto","#f73b6a7A","-1"," ","0","-10","[2474]","1","1","","","1073","2","0","4","lose","no-go","0","0"
"pit-trial","80","763287","0.0-6.0","battery-v0.2","","""event"",""trial"",""time""
""fullscreenenter"",""1"",""3927""
","
","
","""event"",""trial"",""time""
""fullscreenenter"",""1"",""3927""
","
","","","948","","","15","1073","775","&#9733;","elianto","#3366ff99","-1"," ","0","+10","[1799]","1","1","","","1073","3","2","2","win","no-go","1","0"
"pit-trial","81","767260","0.0-7.0","battery-v0.2","","""event"",""trial"",""time""
""fullscreenenter"",""1"",""3927""
","
","
","""event"",""trial"",""time""
""fullscreenenter"",""1"",""3927""
","
","","","1118","","","15","1073","775","&#9752;","elianto","#f73b6a7A"," "," ","1","-10","[1969]","1","1","","","1073","4","3","3","lose","go","1","0"
"pit-trial","82","771421","0.0-8.0","battery-v0.2","","""event"",""trial"",""time""
""fullscreenenter"",""1"",""3927""
","
","
","""event"",""trial"",""time""
""fullscreenenter"",""1"",""3927""
","
","","","1308","","","15","1073","775","&#9730;","elianto","#3366ff99"," "," ","1","+10","[2158]","1","1","","","1073","5","1","1","win","go","0","0"
"pit-trial","83","776276","0.0-9.0","battery-v0.2","","""event"",""trial"",""time""
""fullscreenenter"",""1"",""3927""
","
","
","""event"",""trial"",""time""
""fullscreenenter"",""1"",""3927""
","
","","","-1","","","15","1073","775","&#9728;","elianto","#f73b6a7A","-1","-1","1","-10","[]","0","1","","","1073","6","0","4","lose","no-go","1","0"
"pit-trial","84","780444","0.0-10.0","battery-v0.2","","""event"",""trial"",""time""
""fullscreenenter"",""1"",""3927""
","
","
","""event"",""trial"",""time""
""fullscreenenter"",""1"",""3927""
","
","","","1315","","","15","1073","775","&#9733;","elianto","#3366ff99","-1"," ","0","+10","[2165]","1","1","","","1073","7","2","2","win","no-go","1","0"
"pit-trial","85","785299","0.0-11.0","battery-v0.2","","""event"",""trial"",""time""
""fullscreenenter"",""1"",""3927""
","
","
","""event"",""trial"",""time""
""fullscreenenter"",""1"",""3927""
","
","","","-1","","","15","1073","775","&#9752;","elianto","#f73b6a7A"," ","-1","0","-10","[]","0","1","","","1073","8","3","3","lose","go","0","0"
"pit-trial","86","788949","0.0-12.0","battery-v0.2","","""event"",""trial"",""time""
""fullscreenenter"",""1"",""3927""
","
","
","""event"",""trial"",""time""
""fullscreenenter"",""1"",""3927""
","
","","","797","","","15","1073","775","&#9733;","elianto","#3366ff99","-1"," ","0","0","[1647]","1","1","","","1073","9","2","2","win","no-go","0","0"
"pit-trial","87","792932","0.0-13.0","battery-v0.2","","""event"",""trial"",""time""
""fullscreenenter"",""1"",""3927""
","
","
","""event"",""trial"",""time""
""fullscreenenter"",""1"",""3927""
","
","","","1129","","","15","1073","775","&#9728;","elianto","#f73b6a7A","-1"," ","0","-10","[1979]","1","1","","","1073","10","0","4","lose","no-go","0","0"
"pit-trial","88","796869","0.0-14.0","battery-v0.2","","""event"",""trial"",""time""
""fullscreenenter"",""1"",""3927""
","
","
","""event"",""trial"",""time""
""fullscreenenter"",""1"",""3927""
","
","","","1084","","","15","1073","775","&#9730;","elianto","#3366ff99"," "," ","1","+10","[1934]","1","1","","","1073","11","1","1","win","go","0","0"
"pit-trial","89","801724","0.0-15.0","battery-v0.2","","""event"",""trial"",""time""
""fullscreenenter"",""1"",""3927""
","
","
","""event"",""trial"",""time""
""fullscreenenter"",""1"",""3927""
","
","","","-1","","","15","1073","775","&#9752;","elianto","#f73b6a7A"," ","-1","0","-10","[]","0","1","","","1073","12","3","3","lose","go","0","0"
"pit-trial","90","805565","0.0-16.0","battery-v0.2","","""event"",""trial"",""time""
""fullscreenenter"",""1"",""3927""
","
","
","""event"",""trial"",""time""
""fullscreenenter"",""1"",""3927""
","
","","","987","","","15","1073","775","&#9730;","elianto","#3366ff99"," "," ","1","+10","[1837]","1","1","","","1073","13","1","1","win","go","0","0"
"pit-trial","91","810009","0.0-17.0","battery-v0.2","","""event"",""trial"",""time""
""fullscreenenter"",""1"",""3927""
","
","
","""event"",""trial"",""time""
""fullscreenenter"",""1"",""3927""
","
","","","1590.9999999998836","","","15","1073","775","&#9728;","elianto","#f73b6a7A","-1"," ","0","-10","[2441.9999999998836]","1","1","","","1073","14","0","4","lose","no-go","0","0"
"pit-trial","92","813913","0.0-18.0","battery-v0.2","","""event"",""trial"",""time""
""fullscreenenter"",""1"",""3927""
","
","
","""event"",""trial"",""time""
""fullscreenenter"",""1"",""3927""
","
","","","1048","","","15","1073","775","&#9752;","elianto","#f73b6a7A"," "," ","1","0","[1899]","1","1","","","1073","15","3","3","lose","go","0","0"
"pit-trial","93","817525","0.0-19.0","battery-v0.2","","""event"",""trial"",""time""
""fullscreenenter"",""1"",""3927""
","
","
","""event"",""trial"",""time""
""fullscreenenter"",""1"",""3927""
","
","","","758.0000000001164","","","15","1073","775","&#9733;","elianto","#3366ff99","-1"," ","0","0","[1609.0000000001164]","1","1","","","1073","16","2","2","win","no-go","0","0"
"pit-trial","94","822379","0.0-20.0","battery-v0.2","","""event"",""trial"",""time""
""fullscreenenter"",""1"",""3927""
","
","
","""event"",""trial"",""time""
""fullscreenenter"",""1"",""3927""
","
","","","-1","","","15","1073","775","&#9752;","elianto","#f73b6a7A"," ","-1","0","-10","[3138]","1","1","","","1073","17","3","3","lose","go","0","0"
"pit-trial","95","825996","0.0-21.0","battery-v0.2","","""event"",""trial"",""time""
""fullscreenenter"",""1"",""3927""
","
","
","""event"",""trial"",""time""
""fullscreenenter"",""1"",""3927""
","
","","","762.0000000001164","","","15","1073","775","&#9733;","elianto","#3366ff99","-1"," ","0","0","[1613.0000000001164]","1","1","","","1073","18","2","2","win","no-go","0","0"
"pit-trial","96","830079","0.0-22.0","battery-v0.2","","""event"",""trial"",""time""
""fullscreenenter"",""1"",""3927""
","
","
","""event"",""trial"",""time""
""fullscreenenter"",""1"",""3927""
","
","","","1230","","","15","1073","775","&#9728;","elianto","#f73b6a7A","-1"," ","0","-10","[2080]","1","1","","","1073","19","0","4","lose","no-go","0","0"
"pit-trial","97","833961","0.0-23.0","battery-v0.2","","""event"",""trial"",""time""
""fullscreenenter"",""1"",""3927""
","
","
","""event"",""trial"",""time""
""fullscreenenter"",""1"",""3927""
","
","","","1028","","","15","1073","775","&#9730;","elianto","#3366ff99"," "," ","1","+10","[1878.9999999998836]","1","1","","","1073","20","1","1","win","go","0","0"
"pit-instructions","98","853243","0.0-24.0","battery-v0.2","","""event"",""trial"",""time""
""fullscreenenter"",""1"",""3927""
","
","
","""event"",""trial"",""time""
""fullscreenenter"",""1"",""3927""
","
","","[{""page_index"":0,""viewing_time"":11596},{""page_index"":1,""viewing_time"":7684}]","19280","","","","","","","","","","","","","","","","","","","","","","","","",""
"pit-trial","99","858099","0.0-25.0","battery-v0.2","","""event"",""trial"",""time""
""fullscreenenter"",""1"",""3927""
","
","
","""event"",""trial"",""time""
""fullscreenenter"",""1"",""3927""
","
","","","-1","","","15","1073","775","h","elianto","#3366ff99"," ","-1","0","0","[2946]","1","2","","","1073","21","3","1","win","go","0","0"
"pit-trial","100","861918","0.0-26.0","battery-v0.2","","""event"",""trial"",""time""
""fullscreenenter"",""1"",""3927""
","
","
","""event"",""trial"",""time""
""fullscreenenter"",""1"",""3927""
","
","","","963.0000000001164","","","15","1073","775","y","elianto","#f73b6a7A","-1"," ","0","-10","[1814]","1","2","","","1073","22","2","4","lose","no-go","0","0"
"pit-trial","101","865597","0.0-27.0","battery-v0.2","","""event"",""trial"",""time""
""fullscreenenter"",""1"",""3927""
","
","
","""event"",""trial"",""time""
""fullscreenenter"",""1"",""3927""
","
","","","824","","","15","1073","775","m","elianto","#3366ff99","-1"," ","0","+10","[1676]","1","2","","","1073","23","0","2","win","no-go","1","0"
"pit-trial","102","869522","0.0-28.0","battery-v0.2","","""event"",""trial"",""time""
""fullscreenenter"",""1"",""3927""
","
","
","""event"",""trial"",""time""
""fullscreenenter"",""1"",""3927""
","
","","","1071","","","15","1073","775","r","elianto","#f73b6a7A"," "," ","1","0","[1922]","1","2","","","1073","24","1","3","lose","go","0","0"
"pit-trial","103","873774","0.0-29.0","battery-v0.2","","""event"",""trial"",""time""
""fullscreenenter"",""1"",""3927""
","
","
","""event"",""trial"",""time""
""fullscreenenter"",""1"",""3927""
","
","","","1398","","","15","1073","775","y","elianto","#f73b6a7A","-1"," ","0","-10","[33,2249]","2","2","","","1073","25","2","4","lose","no-go","0","0"
"pit-trial","104","878354","0.0-30.0","battery-v0.2","","""event"",""trial"",""time""
""fullscreenenter"",""1"",""3927""
","
","
","""event"",""trial"",""time""
""fullscreenenter"",""1"",""3927""
","
","","","1726","","","15","1073","775","h","elianto","#3366ff99"," "," ","1","+10","[338,2576]","2","2","","","1073","26","3","1","win","go","0","0"
"pit-trial","105","882561","0.0-31.0","battery-v0.2","","""event"",""trial"",""time""
""fullscreenenter"",""1"",""3927""
","
","
","""event"",""trial"",""time""
""fullscreenenter"",""1"",""3927""
","
","","","1354","","","15","1073","775","m","elianto","#3366ff99","-1"," ","0","+10","[2203]","1","2","","","1073","27","0","2","win","no-go","1","0"
"pit-trial","106","887004","0.0-32.0","battery-v0.2","","""event"",""trial"",""time""
""fullscreenenter"",""1"",""3927""
","
","
","""event"",""trial"",""time""
""fullscreenenter"",""1"",""3927""
","
","","","1590.0000000001164","","","15","1073","775","r","elianto","#f73b6a7A"," "," ","1","-10","[2440.0000000001164]","1","2","","","1073","28","1","3","lose","go","1","0"
"pit-trial","107","890706","0.0-33.0","battery-v0.2","","""event"",""trial"",""time""
""fullscreenenter"",""1"",""3927""
","
","
","""event"",""trial"",""time""
""fullscreenenter"",""1"",""3927""
","
","","","848.0000000001164","","","15","1073","775","m","elianto","#3366ff99","-1"," ","0","0","[1699.0000000001164]","1","2","","","1073","29","0","2","win","no-go","0","0"
"pit-trial","108","895562","0.0-34.0","battery-v0.2","","""event"",""trial"",""time""
""fullscreenenter"",""1"",""3927""
","
","
","""event"",""trial"",""time""
""fullscreenenter"",""1"",""3927""
","
","","","-1","","","15","1073","775","r","elianto","#f73b6a7A"," ","-1","0","-10","[]","0","2","","","1073","30","1","3","lose","go","0","0"
"pit-trial","109","900416","0.0-35.0","battery-v0.2","","""event"",""trial"",""time""
""fullscreenenter"",""1"",""3927""
","
","
","""event"",""trial"",""time""
""fullscreenenter"",""1"",""3927""
","
","","","-1","","","15","1073","775","y","elianto","#f73b6a7A","-1","-1","1","0","[]","0","2","","","1073","31","2","4","lose","no-go","0","0"
"pit-trial","110","904837","0.0-36.0","battery-v0.2","","""event"",""trial"",""time""
""fullscreenenter"",""1"",""3927""
","
","
","""event"",""trial"",""time""
""fullscreenenter"",""1"",""3927""
","
","","","1567","","","15","1073","775","h","elianto","#3366ff99"," "," ","1","+10","[2418]","1","2","","","1073","32","3","1","win","go","0","0"
"pit-trial","111","909606","0.0-37.0","battery-v0.2","","""event"",""trial"",""time""
""fullscreenenter"",""1"",""3927""
","
","
","""event"",""trial"",""time""
""fullscreenenter"",""1"",""3927""
","
","","","1915.9999999998836","","","15","1073","775","h","elianto","#3366ff99"," "," ","1","+10","[2766]","1","2","","","1073","33","3","1","win","go","0","0"
"pit-trial","112","914461","0.0-38.0","battery-v0.2","","""event"",""trial"",""time""
""fullscreenenter"",""1"",""3927""
","
","
","""event"",""trial"",""time""
""fullscreenenter"",""1"",""3927""
","
","","","-1","","","15","1073","775","r","elianto","#f73b6a7A"," ","-1","0","-10","[]","0","2","","","1073","34","1","3","lose","go","0","0"
"pit-trial","113","918179","0.0-39.0","battery-v0.2","","""event"",""trial"",""time""
""fullscreenenter"",""1"",""3927""
","
","
","""event"",""trial"",""time""
""fullscreenenter"",""1"",""3927""
","
","","","864","","","15","1073","775","m","elianto","#3366ff99","-1"," ","0","+10","[1713.9999999998836]","1","2","","","1073","35","0","2","win","no-go","1","0"
"pit-trial","114","923033","0.0-40.0","battery-v0.2","","""event"",""trial"",""time""
""fullscreenenter"",""1"",""3927""
","
","
","""event"",""trial"",""time""
""fullscreenenter"",""1"",""3927""
","
","","","-1","","","15","1073","775","y","elianto","#f73b6a7A","-1","-1","1","0","[]","0","2","","","1073","36","2","4","lose","no-go","0","0"
"pit-trial","115","927370","0.0-41.0","battery-v0.2","","""event"",""trial"",""time""
""fullscreenenter"",""1"",""3927""
","
","
","""event"",""trial"",""time""
""fullscreenenter"",""1"",""3927""
","
","","","1484","","","15","1073","775","m","elianto","#3366ff99","-1"," ","0","0","[2335]","1","2","","","1073","37","0","2","win","no-go","0","0"
"pit-trial","116","931780","0.0-42.0","battery-v0.2","","""event"",""trial"",""time""
""fullscreenenter"",""1"",""3927""
","
","
","""event"",""trial"",""time""
""fullscreenenter"",""1"",""3927""
","
","","","1555.9999999998836","","","15","1073","775","h","elianto","#3366ff99"," "," ","1","+10","[2406.9999999998836]","1","2","","","1073","38","3","1","win","go","0","0"
"pit-trial","117","936635","0.0-43.0","battery-v0.2","","""event"",""trial"",""time""
""fullscreenenter"",""1"",""3927""
","
","
","""event"",""trial"",""time""
""fullscreenenter"",""1"",""3927""
","
","","","-1","","","15","1073","775","y","elianto","#f73b6a7A","-1","-1","1","0","[]","0","2","","","1073","39","2","4","lose","no-go","0","0"
"pit-trial","118","941489","0.0-44.0","battery-v0.2","","""event"",""trial"",""time""
""fullscreenenter"",""1"",""3927""
","
","
","""event"",""trial"",""time""
""fullscreenenter"",""1"",""3927""
","
","","","-1","","","15","1073","775","r","elianto","#f73b6a7A"," ","-1","0","-10","[3054]","1","2","","","1073","40","1","3","lose","go","0","0"
"pit-trial","119","945573","0.0-45.0","battery-v0.2","","""event"",""trial"",""time""
""fullscreenenter"",""1"",""3927""
","
","
","""event"",""trial"",""time""
""fullscreenenter"",""1"",""3927""
","
","","","1229","","","15","1073","775","r","elianto","#f73b6a7A"," "," ","1","-10","[2080]","1","2","","","1073","41","1","3","lose","go","1","0"
"pit-trial","120","950428","0.0-46.0","battery-v0.2","","""event"",""trial"",""time""
""fullscreenenter"",""1"",""3927""
","
","
","""event"",""trial"",""time""
""fullscreenenter"",""1"",""3927""
","
","","","-1","","","15","1073","775","y","elianto","#f73b6a7A","-1","-1","1","0","[]","0","2","","","1073","42","2","4","lose","no-go","0","0"
"pit-trial","121","954573","0.0-47.0","battery-v0.2","","""event"",""trial"",""time""
""fullscreenenter"",""1"",""3927""
","
","
","""event"",""trial"",""time""
""fullscreenenter"",""1"",""3927""
","
","","","1291","","","15","1073","775","m","elianto","#3366ff99","-1"," ","0","0","[2142]","1","2","","","1073","43","0","2","win","no-go","0","0"
"pit-trial","122","958791","0.0-48.0","battery-v0.2","","""event"",""trial"",""time""
""fullscreenenter"",""1"",""3927""
","
","
","""event"",""trial"",""time""
""fullscreenenter"",""1"",""3927""
","
","","","1363.0000000001164","","","15","1073","775","h","elianto","#3366ff99"," "," ","1","+10","[2215.0000000001164]","1","2","","","1073","44","3","1","win","go","0","0"
"pit-trial","123","963646","0.0-49.0","battery-v0.2","","""event"",""trial"",""time""
""fullscreenenter"",""1"",""3927""
","
","
","""event"",""trial"",""time""
""fullscreenenter"",""1"",""3927""
","
","","","-1","","","15","1073","775","m","elianto","#3366ff99","-1","-1","1","+10","[]","0","2","","","1073","45","0","2","win","no-go","0","0"
"pit-trial","124","968343","0.0-50.0","battery-v0.2","","""event"",""trial"",""time""
""fullscreenenter"",""1"",""3927""
","
","
","""event"",""trial"",""time""
""fullscreenenter"",""1"",""3927""
","
","","","1843","","","15","1073","775","r","elianto","#f73b6a7A"," "," ","1","0","[2694]","1","2","","","1073","46","1","3","lose","go","0","0"
"pit-trial","125","973198","0.0-51.0","battery-v0.2","","""event"",""trial"",""time""
""fullscreenenter"",""1"",""3927""
","
","
","""event"",""trial"",""time""
""fullscreenenter"",""1"",""3927""
","
","","","-1","","","15","1073","775","y","elianto","#f73b6a7A","-1","-1","1","0","[]","0","2","","","1073","47","2","4","lose","no-go","0","0"
"pit-trial","126","977545","0.0-52.0","battery-v0.2","","""event"",""trial"",""time""
""fullscreenenter"",""1"",""3927""
","
","
","""event"",""trial"",""time""
""fullscreenenter"",""1"",""3927""
","
","","","1494.0000000001164","","","15","1073","775","h","elianto","#3366ff99"," "," ","1","+10","[2345.0000000001164]","1","2","","","1073","48","3","1","win","go","0","0"
"pit-trial","127","982102","0.0-53.0","battery-v0.2","","""event"",""trial"",""time""
""fullscreenenter"",""1"",""3927""
","
","
","""event"",""trial"",""time""
""fullscreenenter"",""1"",""3927""
","
","","","1702","","","15","1073","775","y","elianto","#f73b6a7A","-1"," ","0","-10","[2553]","1","2","","","1073","49","2","4","lose","no-go","0","0"
"pit-trial","128","986956","0.0-54.0","battery-v0.2","","""event"",""trial"",""time""
""fullscreenenter"",""1"",""3927""
","
","
","""event"",""trial"",""time""
""fullscreenenter"",""1"",""3927""
","
","","","-1","","","15","1073","775","r","elianto","#f73b6a7A"," ","-1","0","-10","[]","0","2","","","1073","50","1","3","lose","go","0","0"
"pit-trial","129","991248","0.0-55.0","battery-v0.2","","""event"",""trial"",""time""
""fullscreenenter"",""1"",""3927""
","
","
","""event"",""trial"",""time""
""fullscreenenter"",""1"",""3927""
","
","","","1438","","","15","1073","775","h","elianto","#3366ff99"," "," ","1","+10","[2289]","1","2","","","1073","51","3","1","win","go","0","0"
"pit-trial","130","996103","0.0-56.0","battery-v0.2","","""event"",""trial"",""time""
""fullscreenenter"",""1"",""3927""
","
","
","""event"",""trial"",""time""
""fullscreenenter"",""1"",""3927""
","
","","","-1","","","15","1073","775","m","elianto","#3366ff99","-1","-1","1","+10","[]","0","2","","","1073","52","0","2","win","no-go","0","0"
"pit-trial","131","1000823","0.0-57.0","battery-v0.2","","""event"",""trial"",""time""
""fullscreenenter"",""1"",""3927""
","
","
","""event"",""trial"",""time""
""fullscreenenter"",""1"",""3927""
","
","","","1865","","","15","1073","775","c","elianto","#f73b6a7A","-1"," ","0","-10","[2715]","1","2","","","1073","53","5","4","lose","no-go","0","0"
"pit-trial","132","1005019","0.0-58.0","battery-v0.2","","""event"",""trial"",""time""
""fullscreenenter"",""1"",""3927""
","
","
","""event"",""trial"",""time""
""fullscreenenter"",""1"",""3927""
","
","","","1342","","","15","1073","775","z","elianto","#f73b6a7A"," "," ","1","0","[2193,2328]","2","2","","","1073","54","4","3","lose","go","0","0"
"pit-trial","133","1009874","0.0-59.0","battery-v0.2","","""event"",""trial"",""time""
""fullscreenenter"",""1"",""3927""
","
","
","""event"",""trial"",""time""
""fullscreenenter"",""1"",""3927""
","
","","","-1","","","15","1073","775","y","elianto","#f73b6a7A","-1","-1","1","0","[]","0","2","","","1073","55","2","4","lose","no-go","0","0"
"pit-trial","134","1014729","0.0-60.0","battery-v0.2","","""event"",""trial"",""time""
""fullscreenenter"",""1"",""3927""
","
","
","""event"",""trial"",""time""
""fullscreenenter"",""1"",""3927""
","
","","","-1","","","15","1073","775","r","elianto","#f73b6a7A"," ","-1","0","-10","[2973.9999999998836]","1","2","","","1073","56","1","3","lose","go","0","0"
"pit-trial","135","1018248","0.0-61.0","battery-v0.2","","""event"",""trial"",""time""
""fullscreenenter"",""1"",""3927""
","
","
","""event"",""trial"",""time""
""fullscreenenter"",""1"",""3927""
","
","","","666","","","15","1073","775","r","elianto","#f73b6a7A"," "," ","1","0","[1517]","1","2","","","1073","57","1","3","lose","go","0","0"
"pit-trial","136","1023102","0.0-62.0","battery-v0.2","","""event"",""trial"",""time""
""fullscreenenter"",""1"",""3927""
","
","
","""event"",""trial"",""time""
""fullscreenenter"",""1"",""3927""
","
","","","-1","","","15","1073","775","y","elianto","#f73b6a7A","-1","-1","1","-10","[]","0","2","","","1073","58","2","4","lose","no-go","1","0"
"pit-trial","137","1027621","0.0-63.0","battery-v0.2","","""event"",""trial"",""time""
""fullscreenenter"",""1"",""3927""
","
","
","""event"",""trial"",""time""
""fullscreenenter"",""1"",""3927""
","
","","","1665","","","15","1073","775","z","elianto","#f73b6a7A"," "," ","1","0","[2516.0000000001164]","1","2","","","1073","59","4","3","lose","go","0","0"
"pit-trial","138","1032476","0.0-64.0","battery-v0.2","","""event"",""trial"",""time""
""fullscreenenter"",""1"",""3927""
","
","
","""event"",""trial"",""time""
""fullscreenenter"",""1"",""3927""
","
","","","-1","","","15","1073","775","c","elianto","#f73b6a7A","-1","-1","1","0","[]","0","2","","","1073","60","5","4","lose","no-go","0","0"
"pit-trial","139","1037093","0.0-65.0","battery-v0.2","","""event"",""trial"",""time""
""fullscreenenter"",""1"",""3927""
","
","
","""event"",""trial"",""time""
""fullscreenenter"",""1"",""3927""
","
","","","1763.0000000002328","","","15","1073","775","z","elianto","#f73b6a7A"," "," ","1","0","[2614.0000000001164]","1","2","","","1073","61","4","3","lose","go","0","0"
"pit-trial","140","1041948","0.0-66.0","battery-v0.2","","""event"",""trial"",""time""
""fullscreenenter"",""1"",""3927""
","
","
","""event"",""trial"",""time""
""fullscreenenter"",""1"",""3927""
","
","","","-1","","","15","1073","775","y","elianto","#f73b6a7A","-1","-1","1","-10","[]","0","2","","","1073","62","2","4","lose","no-go","1","0"
"pit-trial","141","1046757","0.0-67.0","battery-v0.2","","""event"",""trial"",""time""
""fullscreenenter"",""1"",""3927""
","
","
","""event"",""trial"",""time""
""fullscreenenter"",""1"",""3927""
","
","","","1954.9999999998836","","","15","1073","775","c","elianto","#f73b6a7A","-1"," ","0","-10","[2806]","1","2","","","1073","63","5","4","lose","no-go","0","0"
"pit-trial","142","1051594","0.0-68.0","battery-v0.2","","""event"",""trial"",""time""
""fullscreenenter"",""1"",""3927""
","
","
","""event"",""trial"",""time""
""fullscreenenter"",""1"",""3927""
","
","","","1983","","","15","1073","775","b","elianto","#3366ff99","-1"," ","0","0","[2834]","1","2","","","1073","64","6","2","win","no-go","0","0"
"pit-trial","143","1056448","0.0-69.0","battery-v0.2","","""event"",""trial"",""time""
""fullscreenenter"",""1"",""3927""
","
","
","""event"",""trial"",""time""
""fullscreenenter"",""1"",""3927""
","
","","","-1","","","15","1073","775","b","elianto","#3366ff99","-1","-1","1","+10","[]","0","2","","","1073","65","6","2","win","no-go","0","0"
"pit-trial","144","1061301","0.0-70.0","battery-v0.2","","""event"",""trial"",""time""
""fullscreenenter"",""1"",""3927""
","
","
","""event"",""trial"",""time""
""fullscreenenter"",""1"",""3927""
","
","","","-1","","","15","1073","775","c","elianto","#f73b6a7A","-1","-1","1","0","[]","0","2","","","1073","66","5","4","lose","no-go","0","0"
"pit-trial","145","1066156","0.0-71.0","battery-v0.2","","""event"",""trial"",""time""
""fullscreenenter"",""1"",""3927""
","
","
","""event"",""trial"",""time""
""fullscreenenter"",""1"",""3927""
","
","","","-1","","","15","1073","775","z","elianto","#f73b6a7A"," ","-1","0","-10","[]","0","2","","","1073","67","4","3","lose","go","0","0"
"pit-trial","146","1071011","0.0-72.0","battery-v0.2","","""event"",""trial"",""time""
""fullscreenenter"",""1"",""3927""
","
","
","""event"",""trial"",""time""
""fullscreenenter"",""1"",""3927""
","
","","","-1","","","15","1073","775","y","elianto","#f73b6a7A","-1","-1","1","-10","[]","0","2","","","1073","68","2","4","lose","no-go","1","0"
"pit-trial","147","1075703","0.0-73.0","battery-v0.2","","""event"",""trial"",""time""
""fullscreenenter"",""1"",""3927""
","
","
","""event"",""trial"",""time""
""fullscreenenter"",""1"",""3927""
","
","","","1839","","","15","1073","775","z","elianto","#f73b6a7A"," "," ","1","0","[2689]","1","2","","","1073","69","4","3","lose","go","0","0"
"pit-trial","148","1080557","0.0-74.0","battery-v0.2","","""event"",""trial"",""time""
""fullscreenenter"",""1"",""3927""
","
","
","""event"",""trial"",""time""
""fullscreenenter"",""1"",""3927""
","
","","","-1","","","15","1073","775","c","elianto","#f73b6a7A","-1","-1","1","0","[]","0","2","","","1073","70","5","4","lose","no-go","0","0"
"pit-trial","149","1085389","0.0-75.0","battery-v0.2","","""event"",""trial"",""time""
""fullscreenenter"",""1"",""3927""
","
","
","""event"",""trial"",""time""
""fullscreenenter"",""1"",""3927""
","
","","","1979","","","15","1073","775","t","elianto","#3366ff99"," "," ","1","0","[2830]","1","2","","","1073","71","7","1","win","go","1","0"
"pit-trial","150","1090081","0.0-76.0","battery-v0.2","","""event"",""trial"",""time""
""fullscreenenter"",""1"",""3927""
","
","
","""event"",""trial"",""time""
""fullscreenenter"",""1"",""3927""
","
","","","1838","","","15","1073","775","b","elianto","#3366ff99","-1"," ","0","0","[2689]","1","2","","","1073","72","6","2","win","no-go","0","0"
"pit-trial","151","1094935","0.0-77.0","battery-v0.2","","""event"",""trial"",""time""
""fullscreenenter"",""1"",""3927""
","
","
","""event"",""trial"",""time""
""fullscreenenter"",""1"",""3927""
","
","","","-1","","","15","1073","775","t","elianto","#3366ff99"," ","-1","0","+10","[]","0","2","","","1073","73","7","1","win","go","1","0"
"pit-trial","152","1099790","0.0-78.0","battery-v0.2","","""event"",""trial"",""time""
""fullscreenenter"",""1"",""3927""
","
","
","""event"",""trial"",""time""
""fullscreenenter"",""1"",""3927""
","
","","","-1","","","15","1073","775","b","elianto","#3366ff99","-1","-1","1","+10","[]","0","2","","","1073","74","6","2","win","no-go","0","0"
"pit-trial","153","1104644","0.0-79.0","battery-v0.2","","""event"",""trial"",""time""
""fullscreenenter"",""1"",""3927""
","
","
","""event"",""trial"",""time""
""fullscreenenter"",""1"",""3927""
","
","","","-1","","","15","1073","775","c","elianto","#f73b6a7A","-1","-1","1","0","[]","0","2","","","1073","75","5","4","lose","no-go","0","0"
"pit-trial","154","1108992","0.0-80.0","battery-v0.2","","""event"",""trial"",""time""
""fullscreenenter"",""1"",""3927""
","
","
","""event"",""trial"",""time""
""fullscreenenter"",""1"",""3927""
","
","","","1494.0000000002328","","","15","1073","775","z","elianto","#f73b6a7A"," "," ","1","-10","[2344]","1","2","","","1073","76","4","3","lose","go","1","0"
"pit-trial","155","1113470","0.0-81.0","battery-v0.2","","""event"",""trial"",""time""
""fullscreenenter"",""1"",""3927""
","
","
","""event"",""trial"",""time""
""fullscreenenter"",""1"",""3927""
","
","","","1623","","","15","1073","775","z","elianto","#f73b6a7A"," "," ","1","0","[2474]","1","2","","","1073","77","4","3","lose","go","0","0"
"pit-trial","156","1118325","0.0-82.0","battery-v0.2","","""event"",""trial"",""time""
""fullscreenenter"",""1"",""3927""
","
","
","""event"",""trial"",""time""
""fullscreenenter"",""1"",""3927""
","
","","","-1","","","15","1073","775","c","elianto","#f73b6a7A","-1","-1","1","0","[]","0","2","","","1073","78","5","4","lose","no-go","0","0"
"pit-trial","157","1123178","0.0-83.0","battery-v0.2","","""event"",""trial"",""time""
""fullscreenenter"",""1"",""3927""
","
","
","""event"",""trial"",""time""
""fullscreenenter"",""1"",""3927""
","
","","","-1","","","15","1073","775","t","elianto","#3366ff99"," ","-1","0","0","[]","0","2","","","1073","79","7","1","win","go","0","0"
"pit-trial","158","1128034","0.0-84.0","battery-v0.2","","""event"",""trial"",""time""
""fullscreenenter"",""1"",""3927""
","
","
","""event"",""trial"",""time""
""fullscreenenter"",""1"",""3927""
","
","","","-1","","","15","1073","775","b","elianto","#3366ff99","-1","-1","1","0","[]","0","2","","","1073","80","6","2","win","no-go","1","0"
"pit-trial","159","1132764","0.0-85.0","battery-v0.2","","""event"",""trial"",""time""
""fullscreenenter"",""1"",""3927""
","
","
","""event"",""trial"",""time""
""fullscreenenter"",""1"",""3927""
","
","","","1876.9999999997672","","","15","1073","775","z","elianto","#f73b6a7A"," "," ","1","0","[2727]","1","2","","","1073","81","4","3","lose","go","0","0"
"pit-trial","160","1136960","0.0-86.0","battery-v0.2","","""event"",""trial"",""time""
""fullscreenenter"",""1"",""3927""
","
","
","""event"",""trial"",""time""
""fullscreenenter"",""1"",""3927""
","
","","","1342","","","15","1073","775","t","elianto","#3366ff99"," "," ","1","+10","[2192]","1","2","","","1073","82","7","1","win","go","0","0"
"pit-trial","161","1141055","0.0-87.0","battery-v0.2","","""event"",""trial"",""time""
""fullscreenenter"",""1"",""3927""
","
","
","""event"",""trial"",""time""
""fullscreenenter"",""1"",""3927""
","
","","","1241","","","15","1073","775","b","elianto","#3366ff99","-1"," ","0","0","[2092]","1","2","","","1073","83","6","2","win","no-go","0","0"
"pit-trial","162","1145910","0.0-88.0","battery-v0.2","","""event"",""trial"",""time""
""fullscreenenter"",""1"",""3927""
","
","
","""event"",""trial"",""time""
""fullscreenenter"",""1"",""3927""
","
","","","-1","","","15","1073","775","c","elianto","#f73b6a7A","-1","-1","1","0","[]","0","2","","","1073","84","5","4","lose","no-go","0","0"
"pit-trial","163","1150213","0.0-89.0","battery-v0.2","","""event"",""trial"",""time""
""fullscreenenter"",""1"",""3927""
","
","
","""event"",""trial"",""time""
""fullscreenenter"",""1"",""3927""
","
","","","1449","","","15","1073","775","b","elianto","#3366ff99","-1"," ","0","0","[2300]","1","2","","","1073","85","6","2","win","no-go","0","0"
"pit-trial","164","1154983","0.0-90.0","battery-v0.2","","""event"",""trial"",""time""
""fullscreenenter"",""1"",""3927""
","
","
","""event"",""trial"",""time""
""fullscreenenter"",""1"",""3927""
","
","","","1915.0000000002328","","","15","1073","775","z","elianto","#f73b6a7A"," "," ","1","-10","[2767.000000000233]","1","2","","","1073","86","4","3","lose","go","1","0"
"pit-trial","165","1159837","0.0-91.0","battery-v0.2","","""event"",""trial"",""time""
""fullscreenenter"",""1"",""3927""
","
","
","""event"",""trial"",""time""
""fullscreenenter"",""1"",""3927""
","
","","","-1","","","15","1073","775","c","elianto","#f73b6a7A","-1","-1","1","0","[]","0","2","","","1073","87","5","4","lose","no-go","0","0"
"pit-trial","166","1164152","0.0-92.0","battery-v0.2","","""event"",""trial"",""time""
""fullscreenenter"",""1"",""3927""
","
","
","""event"",""trial"",""time""
""fullscreenenter"",""1"",""3927""
","
","","","1460","","","15","1073","775","t","elianto","#3366ff99"," "," ","1","+10","[2311]","1","2","","","1073","88","7","1","win","go","0","0"
"pit-trial","167","1169006","0.0-93.0","battery-v0.2","","""event"",""trial"",""time""
""fullscreenenter"",""1"",""3927""
","
","
","""event"",""trial"",""time""
""fullscreenenter"",""1"",""3927""
","
","","","-1","","","15","1073","775","c","elianto","#f73b6a7A","-1","-1","1","0","[]","0","2","","","1073","89","5","4","lose","no-go","0","0"
"pit-trial","168","1173861","0.0-94.0","battery-v0.2","","""event"",""trial"",""time""
""fullscreenenter"",""1"",""3927""
","
","
","""event"",""trial"",""time""
""fullscreenenter"",""1"",""3927""
","
","","","-1","","","15","1073","775","b","elianto","#3366ff99","-1","-1","1","+10","[]","0","2","","","1073","90","6","2","win","no-go","0","0"
"pit-trial","169","1178715","0.0-95.0","battery-v0.2","","""event"",""trial"",""time""
""fullscreenenter"",""1"",""3927""
","
","
","""event"",""trial"",""time""
""fullscreenenter"",""1"",""3927""
","
","","","-1","","","15","1073","775","z","elianto","#f73b6a7A"," ","-1","0","-10","[]","0","2","","","1073","91","4","3","lose","go","0","0"
"pit-trial","170","1183074","0.0-96.0","battery-v0.2","","""event"",""trial"",""time""
""fullscreenenter"",""1"",""3927""
","
","
","""event"",""trial"",""time""
""fullscreenenter"",""1"",""3927""
","
","","","1505","","","15","1073","775","t","elianto","#3366ff99"," "," ","1","+10","[2356]","1","2","","","1073","92","7","1","win","go","0","0"
"pit-trial","171","1187079","0.0-97.0","battery-v0.2","","""event"",""trial"",""time""
""fullscreenenter"",""1"",""3927""
","
","
","""event"",""trial"",""time""
""fullscreenenter"",""1"",""3927""
","
","","","1152","","","15","1073","775","t","elianto","#3366ff99"," "," ","1","+10","[2002]","1","2","","","1073","93","7","1","win","go","0","0"
"pit-trial","172","1191934","0.0-98.0","battery-v0.2","","""event"",""trial"",""time""
""fullscreenenter"",""1"",""3927""
","
","
","""event"",""trial"",""time""
""fullscreenenter"",""1"",""3927""
","
","","","-1","","","15","1073","775","x","elianto","#3366ff99"," ","-1","0","0","[2935]","1","2","","","1073","94","8","1","win","go","0","0"
"pit-trial","173","1196451","0.0-99.0","battery-v0.2","","""event"",""trial"",""time""
""fullscreenenter"",""1"",""3927""
","
","
","""event"",""trial"",""time""
""fullscreenenter"",""1"",""3927""
","
","","","1660.9999999997672","","","15","1073","775","z","elianto","#f73b6a7A"," "," ","1","-10","[2513]","1","2","","","1073","95","4","3","lose","go","1","0"
"pit-trial","174","1200849","0.0-100.0","battery-v0.2","","""event"",""trial"",""time""
""fullscreenenter"",""1"",""3927""
","
","
","""event"",""trial"",""time""
""fullscreenenter"",""1"",""3927""
","
","","","1544","","","15","1073","775","b","elianto","#3366ff99","-1"," ","0","0","[2395]","1","2","","","1073","96","6","2","win","no-go","0","0"
"pit-trial","175","1205225","0.0-101.0","battery-v0.2","","""event"",""trial"",""time""
""fullscreenenter"",""1"",""3927""
","
","
","""event"",""trial"",""time""
""fullscreenenter"",""1"",""3927""
","
","","","1522.9999999997672","","","15","1073","775","z","elianto","#f73b6a7A"," "," ","1","-10","[2373]","1","2","","","1073","97","4","3","lose","go","1","0"
"pit-trial","176","1209703","0.0-102.0","battery-v0.2","","""event"",""trial"",""time""
""fullscreenenter"",""1"",""3927""
","
","
","""event"",""trial"",""time""
""fullscreenenter"",""1"",""3927""
","
","","","1624.0000000002328","","","15","1073","775","b","elianto","#3366ff99","-1"," ","0","0","[2474.000000000233]","1","2","","","1073","98","6","2","win","no-go","0","0"
"pit-trial","177","1214558","0.0-103.0","battery-v0.2","","""event"",""trial"",""time""
""fullscreenenter"",""1"",""3927""
","
","
","""event"",""trial"",""time""
""fullscreenenter"",""1"",""3927""
","
","","","-1","","","15","1073","775","t","elianto","#3366ff99"," ","-1","0","0","[3171]","1","2","","","1073","99","7","1","win","go","0","0"
"pit-trial","178","1219412","0.0-104.0","battery-v0.2","","""event"",""trial"",""time""
""fullscreenenter"",""1"",""3927""
","
","
","""event"",""trial"",""time""
""fullscreenenter"",""1"",""3927""
","
","","","-1","","","15","1073","775","x","elianto","#3366ff99"," ","-1","0","0","[]","0","2","","","1073","100","8","1","win","go","0","0"
"pit-trial","179","1223417","0.0-105.0","battery-v0.2","","""event"",""trial"",""time""
""fullscreenenter"",""1"",""3927""
","
","
","""event"",""trial"",""time""
""fullscreenenter"",""1"",""3927""
","
","","","1151","","","15","1073","775","x","elianto","#3366ff99"," "," ","1","+10","[2002]","1","2","","","1073","101","8","1","win","go","0","0"
"pit-trial","180","1227591","0.0-106.0","battery-v0.2","","""event"",""trial"",""time""
""fullscreenenter"",""1"",""3927""
","
","
","""event"",""trial"",""time""
""fullscreenenter"",""1"",""3927""
","
","","","1320","","","15","1073","775","b","elianto","#3366ff99","-1"," ","0","+10","[2170]","1","2","","","1073","102","6","2","win","no-go","1","0"
"pit-trial","181","1232091","0.0-107.0","battery-v0.2","","""event"",""trial"",""time""
""fullscreenenter"",""1"",""3927""
","
","
","""event"",""trial"",""time""
""fullscreenenter"",""1"",""3927""
","
","","","1647","","","15","1073","775","t","elianto","#3366ff99"," "," ","1","+10","[2496]","1","2","","","1073","103","7","1","win","go","0","0"
"pit-trial","182","1236946","0.0-108.0","battery-v0.2","","""event"",""trial"",""time""
""fullscreenenter"",""1"",""3927""
","
","
","""event"",""trial"",""time""
""fullscreenenter"",""1"",""3927""
","
","","","-1","","","15","1073","775","f","elianto","#3366ff99","-1","-1","1","+10","[]","0","2","","","1073","104","9","2","win","no-go","0","0"
"pit-trial","183","1241801","0.0-109.0","battery-v0.2","","""event"",""trial"",""time""
""fullscreenenter"",""1"",""3927""
","
","
","""event"",""trial"",""time""
""fullscreenenter"",""1"",""3927""
","
","","","-1","","","15","1073","775","f","elianto","#3366ff99","-1","-1","1","+10","[3029]","1","2","","","1073","105","9","2","win","no-go","0","0"
"pit-trial","184","1246656","0.0-110.0","battery-v0.2","","""event"",""trial"",""time""
""fullscreenenter"",""1"",""3927""
","
","
","""event"",""trial"",""time""
""fullscreenenter"",""1"",""3927""
","
","","","-1","","","15","1073","775","b","elianto","#3366ff99","-1","-1","1","+10","[2866]","1","2","","","1073","106","6","2","win","no-go","0","0"
"pit-trial","185","1250968","0.0-111.0","battery-v0.2","","""event"",""trial"",""time""
""fullscreenenter"",""1"",""3927""
","
","
","""event"",""trial"",""time""
""fullscreenenter"",""1"",""3927""
","
","","","1457.9999999997672","","","15","1073","775","t","elianto","#3366ff99"," "," ","1","0","[2309]","1","2","","","1073","107","7","1","win","go","1","0"
"pit-trial","186","1255243","0.0-112.0","battery-v0.2","","""event"",""trial"",""time""
""fullscreenenter"",""1"",""3927""
","
","
","""event"",""trial"",""time""
""fullscreenenter"",""1"",""3927""
","
","","","1421","","","15","1073","775","x","elianto","#3366ff99"," "," ","1","0","[2271]","1","2","","","1073","108","8","1","win","go","1","0"
"pit-trial","187","1260098","0.0-113.0","battery-v0.2","","""event"",""trial"",""time""
""fullscreenenter"",""1"",""3927""
","
","
","""event"",""trial"",""time""
""fullscreenenter"",""1"",""3927""
","
","","","-1","","","15","1073","775","n","elianto","#f73b6a7A"," ","-1","0","0","[3262]","1","2","","","1073","109","10","3","lose","go","1","0"
"pit-trial","188","1264953","0.0-114.0","battery-v0.2","","""event"",""trial"",""time""
""fullscreenenter"",""1"",""3927""
","
","
","""event"",""trial"",""time""
""fullscreenenter"",""1"",""3927""
","
","","","-1","","","15","1073","775","f","elianto","#3366ff99","-1","-1","1","0","[]","0","2","","","1073","110","9","2","win","no-go","1","0"
"pit-trial","189","1269262","0.0-115.0","battery-v0.2","","""event"",""trial"",""time""
""fullscreenenter"",""1"",""3927""
","
","
","""event"",""trial"",""time""
""fullscreenenter"",""1"",""3927""
","
","","","1453.9999999997672","","","15","1073","775","q","elianto","#f73b6a7A","-1"," ","0","-10","[2305]","1","2","","","1073","111","11","4","lose","no-go","0","0"
"pit-trial","190","1274088","0.0-116.0","battery-v0.2","","""event"",""trial"",""time""
""fullscreenenter"",""1"",""3927""
","
","
","""event"",""trial"",""time""
""fullscreenenter"",""1"",""3927""
","
","","","1970","","","15","1073","775","x","elianto","#3366ff99"," "," ","1","+10","[2822]","1","2","","","1073","112","8","1","win","go","0","0"
"pit-trial","191","1278942","0.0-117.0","battery-v0.2","","""event"",""trial"",""time""
""fullscreenenter"",""1"",""3927""
","
","
","""event"",""trial"",""time""
""fullscreenenter"",""1"",""3927""
","
","","","-1","","","15","1073","775","n","elianto","#f73b6a7A"," ","-1","0","0","[]","0","2","","","1073","113","10","3","lose","go","1","0"
"pit-trial","192","1283797","0.0-118.0","battery-v0.2","","""event"",""trial"",""time""
""fullscreenenter"",""1"",""3927""
","
","
","""event"",""trial"",""time""
""fullscreenenter"",""1"",""3927""
","
","","","-1","","","15","1073","775","f","elianto","#3366ff99","-1","-1","1","0","[]","0","2","","","1073","114","9","2","win","no-go","1","0"
"pit-trial","193","1288652","0.0-119.0","battery-v0.2","","""event"",""trial"",""time""
""fullscreenenter"",""1"",""3927""
","
","
","""event"",""trial"",""time""
""fullscreenenter"",""1"",""3927""
","
","","","-1","","","15","1073","775","q","elianto","#f73b6a7A","-1","-1","1","0","[3475]","1","2","","","1073","115","11","4","lose","no-go","0","0"
"pit-trial","194","1293505","0.0-120.0","battery-v0.2","","""event"",""trial"",""time""
""fullscreenenter"",""1"",""3927""
","
","
","""event"",""trial"",""time""
""fullscreenenter"",""1"",""3927""
","
","","","-1","","","15","1073","775","x","elianto","#3366ff99"," ","-1","0","+10","[2974]","1","2","","","1073","116","8","1","win","go","1","0"
"pit-trial","195","1298360","0.0-121.0","battery-v0.2","","""event"",""trial"",""time""
""fullscreenenter"",""1"",""3927""
","
","
","""event"",""trial"",""time""
""fullscreenenter"",""1"",""3927""
","
","","","-1","","","15","1073","775","n","elianto","#f73b6a7A"," ","-1","0","-10","[]","0","2","","","1073","117","10","3","lose","go","0","0"
"pit-trial","196","1303215","0.0-122.0","battery-v0.2","","""event"",""trial"",""time""
""fullscreenenter"",""1"",""3927""
","
","
","""event"",""trial"",""time""
""fullscreenenter"",""1"",""3927""
","
","","","-1","","","15","1073","775","f","elianto","#3366ff99","-1","-1","1","+10","[]","0","2","","","1073","118","9","2","win","no-go","0","0"
"pit-trial","197","1307895","0.0-123.0","battery-v0.2","","""event"",""trial"",""time""
""fullscreenenter"",""1"",""3927""
","
","
","""event"",""trial"",""time""
""fullscreenenter"",""1"",""3927""
","
","","","1826","","","15","1073","775","q","elianto","#f73b6a7A","-1"," ","0","-10","[2676]","1","2","","","1073","119","11","4","lose","no-go","0","0"
"pit-trial","198","1312440","0.0-124.0","battery-v0.2","","""event"",""trial"",""time""
""fullscreenenter"",""1"",""3927""
","
","
","""event"",""trial"",""time""
""fullscreenenter"",""1"",""3927""
","
","","","1689","","","15","1073","775","x","elianto","#3366ff99"," "," ","1","+10","[2541]","1","2","","","1073","120","8","1","win","go","0","0"
"pit-trial","199","1317294","0.0-125.0","battery-v0.2","","""event"",""trial"",""time""
""fullscreenenter"",""1"",""3927""
","
","
","""event"",""trial"",""time""
""fullscreenenter"",""1"",""3927""
","
","","","-1","","","15","1073","775","f","elianto","#3366ff99","-1","-1","1","+10","[]","0","2","","","1073","121","9","2","win","no-go","0","0"
"pit-trial","200","1322148","0.0-126.0","battery-v0.2","","""event"",""trial"",""time""
""fullscreenenter"",""1"",""3927""
","
","
","""event"",""trial"",""time""
""fullscreenenter"",""1"",""3927""
","
","","","-1","","","15","1073","775","n","elianto","#f73b6a7A"," ","-1","0","-10","[]","0","2","","","1073","122","10","3","lose","go","0","0"
"pit-trial","201","1327003","0.0-127.0","battery-v0.2","","""event"",""trial"",""time""
""fullscreenenter"",""1"",""3927""
","
","
","""event"",""trial"",""time""
""fullscreenenter"",""1"",""3927""
","
","","","-1","","","15","1073","775","q","elianto","#f73b6a7A","-1","-1","1","0","[3161]","1","2","","","1073","123","11","4","lose","no-go","0","0"
"pit-trial","202","1331350","0.0-128.0","battery-v0.2","","""event"",""trial"",""time""
""fullscreenenter"",""1"",""3927""
","
","
","""event"",""trial"",""time""
""fullscreenenter"",""1"",""3927""
","
","","","1494","","","15","1073","775","x","elianto","#3366ff99"," "," ","1","+10","[2345]","1","2","","","1073","124","8","1","win","go","0","0"
"pit-trial","203","1336205","0.0-129.0","battery-v0.2","","""event"",""trial"",""time""
""fullscreenenter"",""1"",""3927""
","
","
","""event"",""trial"",""time""
""fullscreenenter"",""1"",""3927""
","
","","","-1","","","15","1073","775","f","elianto","#3366ff99","-1","-1","1","+10","[3127]","1","2","","","1073","125","9","2","win","no-go","0","0"
"pit-trial","204","1340644","0.0-130.0","battery-v0.2","","""event"",""trial"",""time""
""fullscreenenter"",""1"",""3927""
","
","
","""event"",""trial"",""time""
""fullscreenenter"",""1"",""3927""
","
","","","1585","","","15","1073","775","x","elianto","#3366ff99"," "," ","1","0","[2436]","1","2","","","1073","126","8","1","win","go","1","0"
"pit-trial","205","1345492","0.0-131.0","battery-v0.2","","""event"",""trial"",""time""
""fullscreenenter"",""1"",""3927""
","
","
","""event"",""trial"",""time""
""fullscreenenter"",""1"",""3927""
","
","","","1994","","","15","1073","775","n","elianto","#f73b6a7A"," "," ","1","-10","[2845]","1","2","","","1073","127","10","3","lose","go","1","0"
"pit-trial","206","1350347","0.0-132.0","battery-v0.2","","""event"",""trial"",""time""
""fullscreenenter"",""1"",""3927""
","
","
","""event"",""trial"",""time""
""fullscreenenter"",""1"",""3927""
","
","","","-1","","","15","1073","775","q","elianto","#f73b6a7A","-1","-1","1","0","[]","0","2","","","1073","128","11","4","lose","no-go","0","0"
"pit-trial","207","1355201","0.0-133.0","battery-v0.2","","""event"",""trial"",""time""
""fullscreenenter"",""1"",""3927""
","
","
","""event"",""trial"",""time""
""fullscreenenter"",""1"",""3927""
","
","","","-1","","","15","1073","775","x","elianto","#3366ff99"," ","-1","0","+10","[]","0","2","","","1073","129","8","1","win","go","1","0"
"pit-trial","208","1360055","0.0-134.0","battery-v0.2","","""event"",""trial"",""time""
""fullscreenenter"",""1"",""3927""
","
","
","""event"",""trial"",""time""
""fullscreenenter"",""1"",""3927""
","
","","","-1","","","15","1073","775","f","elianto","#3366ff99","-1","-1","1","0","[]","0","2","","","1073","130","9","2","win","no-go","1","0"
"pit-trial","209","1364910","0.0-135.0","battery-v0.2","","""event"",""trial"",""time""
""fullscreenenter"",""1"",""3927""
","
","
","""event"",""trial"",""time""
""fullscreenenter"",""1"",""3927""
","
","","","-1","","","15","1073","775","n","elianto","#f73b6a7A"," ","-1","0","-10","[]","0","2","","","1073","131","10","3","lose","go","0","0"
"pit-trial","210","1369764","0.0-136.0","battery-v0.2","","""event"",""trial"",""time""
""fullscreenenter"",""1"",""3927""
","
","
","""event"",""trial"",""time""
""fullscreenenter"",""1"",""3927""
","
","","","-1","","","15","1073","775","q","elianto","#f73b6a7A","-1","-1","1","0","[]","0","2","","","1073","132","11","4","lose","no-go","0","0"
"pit-trial","211","1374618","0.0-137.0","battery-v0.2","","""event"",""trial"",""time""
""fullscreenenter"",""1"",""3927""
","
","
","""event"",""trial"",""time""
""fullscreenenter"",""1"",""3927""
","
","","","-1","","","15","1073","775","f","elianto","#3366ff99","-1","-1","1","+10","[]","0","2","","","1073","133","9","2","win","no-go","0","0"
"pit-trial","212","1379473","0.0-138.0","battery-v0.2","","""event"",""trial"",""time""
""fullscreenenter"",""1"",""3927""
","
","
","""event"",""trial"",""time""
""fullscreenenter"",""1"",""3927""
","
","","","-1","","","15","1073","775","n","elianto","#f73b6a7A"," ","-1","0","-10","[]","0","2","","","1073","134","10","3","lose","go","0","0"
"pit-trial","213","1384327","0.0-139.0","battery-v0.2","","""event"",""trial"",""time""
""fullscreenenter"",""1"",""3927""
","
","
","""event"",""trial"",""time""
""fullscreenenter"",""1"",""3927""
","
","","","-1","","","15","1073","775","q","elianto","#f73b6a7A","-1","-1","1","0","[]","0","2","","","1073","135","11","4","lose","no-go","0","0"
"pit-trial","214","1389040","0.0-140.0","battery-v0.2","","""event"",""trial"",""time""
""fullscreenenter"",""1"",""3927""
","
","
","""event"",""trial"",""time""
""fullscreenenter"",""1"",""3927""
","
","","","1859.9999999997672","","","15","1073","775","x","elianto","#3366ff99"," "," ","1","+10","[2711]","1","2","","","1073","136","8","1","win","go","0","0"
"pit-trial","215","1393896","0.0-141.0","battery-v0.2","","""event"",""trial"",""time""
""fullscreenenter"",""1"",""3927""
","
","
","""event"",""trial"",""time""
""fullscreenenter"",""1"",""3927""
","
","","","-1","","","15","1073","775","n","elianto","#f73b6a7A"," ","-1","0","-10","[]","0","2","","","1073","137","10","3","lose","go","0","0"
"pit-trial","216","1398751","0.0-142.0","battery-v0.2","","""event"",""trial"",""time""
""fullscreenenter"",""1"",""3927""
","
","
","""event"",""trial"",""time""
""fullscreenenter"",""1"",""3927""
","
","","","-1","","","15","1073","775","q","elianto","#f73b6a7A","-1","-1","1","0","[]","0","2","","","1073","138","11","4","lose","no-go","0","0"
"pit-trial","217","1403092","0.0-143.0","battery-v0.2","","""event"",""trial"",""time""
""fullscreenenter"",""1"",""3927""
","
","
","""event"",""trial"",""time""
""fullscreenenter"",""1"",""3927""
","
","","","1487","","","15","1073","775","x","elianto","#3366ff99"," "," ","1","+10","[2339]","1","2","","","1073","139","8","1","win","go","0","0"
"pit-trial","218","1407947","0.0-144.0","battery-v0.2","","""event"",""trial"",""time""
""fullscreenenter"",""1"",""3927""
","
","
","""event"",""trial"",""time""
""fullscreenenter"",""1"",""3927""
","
","","","-1","","","15","1073","775","f","elianto","#3366ff99","-1","-1","1","+10","[]","0","2","","","1073","140","9","2","win","no-go","0","0"
"pit-instructions","219","1424517","0.0-145.0","battery-v0.2","","""event"",""trial"",""time""
""fullscreenenter"",""1"",""3927""
","
","
","""event"",""trial"",""time""
""fullscreenenter"",""1"",""3927""
","
","","[{""page_index"":0,""viewing_time"":5548},{""page_index"":1,""viewing_time"":11020}]","16568","","","","","","","","","","","","","","","","","","","","","","","","",""
"pit-trial","220","1429227","0.0-146.0","battery-v0.2","","""event"",""trial"",""time""
""fullscreenenter"",""1"",""3927""
","
","
","""event"",""trial"",""time""
""fullscreenenter"",""1"",""3927""
","
","","","1853.9999999997672","","","15","1073","775","v","elianto","#3366ff99","-1"," ","0","0","[2704]","1","3","","","1073","141","0","2","win","no-go","0","0"
"pit-trial","221","1433130","0.0-147.0","battery-v0.2","","""event"",""trial"",""time""
""fullscreenenter"",""1"",""3927""
","
","
","""event"",""trial"",""time""
""fullscreenenter"",""1"",""3927""
","
","","","1049","","","15","1073","775","k","elianto","#f73b6a7A"," "," ","1","0","[1900]","1","3","","","1073","142","3","3","lose","go","0","0"
"pit-trial","222","1437135","0.0-148.0","battery-v0.2","","""event"",""trial"",""time""
""fullscreenenter"",""1"",""3927""
","
","
","""event"",""trial"",""time""
""fullscreenenter"",""1"",""3927""
","
","","","1151","","","15","1073","775","d","elianto","#3366ff99"," "," ","1","+10","[2001]","1","3","","","1073","143","2","1","win","go","0","0"
"pit-trial","223","1441990","0.0-149.0","battery-v0.2","","""event"",""trial"",""time""
""fullscreenenter"",""1"",""3927""
","
","
","""event"",""trial"",""time""
""fullscreenenter"",""1"",""3927""
","
","","","-1","","","15","1073","775","j","elianto","#3366ff99","-1","-1","1","+10","[]","0","3","","","1073","144","1","2","win","no-go","0","0"
"pit-trial","224","1446845","0.0-150.0","battery-v0.2","","""event"",""trial"",""time""
""fullscreenenter"",""1"",""3927""
","
","
","""event"",""trial"",""time""
""fullscreenenter"",""1"",""3927""
","
","","","-1","","","15","1073","775","d","elianto","#3366ff99"," ","-1","0","0","[3066]","1","3","","","1073","145","2","1","win","go","0","0"
"pit-trial","225","1451699","0.0-151.0","battery-v0.2","","""event"",""trial"",""time""
""fullscreenenter"",""1"",""3927""
","
","
","""event"",""trial"",""time""
""fullscreenenter"",""1"",""3927""
","
","","","-1","","","15","1073","775","k","elianto","#f73b6a7A"," ","-1","0","-10","[]","0","3","","","1073","146","3","3","lose","go","0","0"
"pit-trial","226","1455596","0.0-152.0","battery-v0.2","","""event"",""trial"",""time""
""fullscreenenter"",""1"",""3927""
","
","
","""event"",""trial"",""time""
""fullscreenenter"",""1"",""3927""
","
","","","1044","","","15","1073","775","v","elianto","#3366ff99","-1"," ","0","0","[1894]","1","3","","","1073","147","0","2","win","no-go","0","0"
"pit-trial","227","1459659","0.0-153.0","battery-v0.2","","""event"",""trial"",""time""
""fullscreenenter"",""1"",""3927""
","
","
","""event"",""trial"",""time""
""fullscreenenter"",""1"",""3927""
","
","","","1208","","","15","1073","775","j","elianto","#3366ff99","-1"," ","0","0","[2059]","1","3","","","1073","148","1","2","win","no-go","0","0"
"pit-trial","228","1464513","0.0-154.0","battery-v0.2","","""event"",""trial"",""time""
""fullscreenenter"",""1"",""3927""
","
","
","""event"",""trial"",""time""
""fullscreenenter"",""1"",""3927""
","
","","","-1","","","15","1073","775","k","elianto","#f73b6a7A"," ","-1","0","-10","[]","0","3","","","1073","149","3","3","lose","go","0","0"
"pit-trial","229","1469175","0.0-155.0","battery-v0.2","","""event"",""trial"",""time""
""fullscreenenter"",""1"",""3927""
","
","
","""event"",""trial"",""time""
""fullscreenenter"",""1"",""3927""
","
","","","1809","","","15","1073","775","d","elianto","#3366ff99"," "," ","1","0","[2660]","1","3","","","1073","150","2","1","win","go","1","0"
"pit-trial","230","1472843","0.0-156.0","battery-v0.2","","""event"",""trial"",""time""
""fullscreenenter"",""1"",""3927""
","
","
","""event"",""trial"",""time""
""fullscreenenter"",""1"",""3927""
","
","","","814","","","15","1073","775","j","elianto","#3366ff99","-1"," ","0","+10","[1664.9999999997672]","1","3","","","1073","151","1","2","win","no-go","1","0"
"pit-trial","231","1476804","0.0-157.0","battery-v0.2","","""event"",""trial"",""time""
""fullscreenenter"",""1"",""3927""
","
","
","""event"",""trial"",""time""
""fullscreenenter"",""1"",""3927""
","
","","","1106.0000000002328","","","15","1073","775","v","elianto","#3366ff99","-1"," ","0","0","[1957.0000000002328]","1","3","","","1073","152","0","2","win","no-go","0","0"
"pit-trial","232","1480425","0.0-158.0","battery-v0.2","","""event"",""trial"",""time""
""fullscreenenter"",""1"",""3927""
","
","
","""event"",""trial"",""time""
""fullscreenenter"",""1"",""3927""
","
","","","767","","","15","1073","775","d","elianto","#3366ff99"," "," ","1","+10","[1618]","1","3","","","1073","153","2","1","win","go","0","0"
"pit-trial","233","1485278","0.0-159.0","battery-v0.2","","""event"",""trial"",""time""
""fullscreenenter"",""1"",""3927""
","
","
","""event"",""trial"",""time""
""fullscreenenter"",""1"",""3927""
","
","","","-1","","","15","1073","775","k","elianto","#f73b6a7A"," ","-1","0","-10","[382.99999999976717]","1","3","","","1073","154","3","3","lose","go","0","0"
"pit-trial","234","1489269","0.0-160.0","battery-v0.2","","""event"",""trial"",""time""
""fullscreenenter"",""1"",""3927""
","
","
","""event"",""trial"",""time""
""fullscreenenter"",""1"",""3927""
","
","","","1136","","","15","1073","775","v","elianto","#3366ff99","-1"," ","0","0","[1987]","1","3","","","1073","155","0","2","win","no-go","0","0"
"pit-trial","235","1493161","0.0-161.0","battery-v0.2","","""event"",""trial"",""time""
""fullscreenenter"",""1"",""3927""
","
","
","""event"",""trial"",""time""
""fullscreenenter"",""1"",""3927""
","
","","","1038","","","15","1073","775","j","elianto","#3366ff99","-1"," ","0","0","[1889]","1","3","","","1073","156","1","2","win","no-go","0","0"
"pit-trial","236","1498014","0.0-162.0","battery-v0.2","","""event"",""trial"",""time""
""fullscreenenter"",""1"",""3927""
","
","
","""event"",""trial"",""time""
""fullscreenenter"",""1"",""3927""
","
","","","-1","","","15","1073","775","d","elianto","#3366ff99"," ","-1","0","0","[]","0","3","","","1073","157","2","1","win","go","0","0"
"pit-trial","237","1501891","0.0-163.0","battery-v0.2","","""event"",""trial"",""time""
""fullscreenenter"",""1"",""3927""
","
","
","""event"",""trial"",""time""
""fullscreenenter"",""1"",""3927""
","
","","","1023","","","15","1073","775","j","elianto","#3366ff99","-1"," ","0","0","[1873,2458]","2","3","","","1073","158","1","2","win","no-go","0","0"
"pit-trial","238","1506223","0.0-164.0","battery-v0.2","","""event"",""trial"",""time""
""fullscreenenter"",""1"",""3927""
","
","
","""event"",""trial"",""time""
""fullscreenenter"",""1"",""3927""
","
","","","1476.9999999997672","","","15","1073","775","v","elianto","#3366ff99","-1"," ","0","0","[2328]","1","3","","","1073","159","0","2","win","no-go","0","0"
"pit-trial","239","1509980","0.0-165.0","battery-v0.2","","""event"",""trial"",""time""
""fullscreenenter"",""1"",""3927""
","
","
","""event"",""trial"",""time""
""fullscreenenter"",""1"",""3927""
","
","","","903","","","15","1073","775","k","elianto","#f73b6a7A"," "," ","1","0","[1754]","1","3","","","1073","160","3","3","lose","go","0","0"
"pit-trial","240","1514255","0.0-166.0","battery-v0.2","","""event"",""trial"",""time""
""fullscreenenter"",""1"",""3927""
","
","
","""event"",""trial"",""time""
""fullscreenenter"",""1"",""3927""
","
","","","1421.0000000002328","","","15","1073","775","k","elianto","#f73b6a7A"," "," ","1","0","[2272.000000000233]","1","3","","","1073","161","3","3","lose","go","0","0"
"pit-trial","241","1519110","0.0-167.0","battery-v0.2","","""event"",""trial"",""time""
""fullscreenenter"",""1"",""3927""
","
","
","""event"",""trial"",""time""
""fullscreenenter"",""1"",""3927""
","
","","","-1","","","15","1073","775","d","elianto","#3366ff99"," ","-1","0","0","[]","0","3","","","1073","162","2","1","win","go","0","0"
"pit-trial","242","1522952","0.0-168.0","battery-v0.2","","""event"",""trial"",""time""
""fullscreenenter"",""1"",""3927""
","
","
","""event"",""trial"",""time""
""fullscreenenter"",""1"",""3927""
","
","","","987","","","15","1073","775","v","elianto","#3366ff99","-1"," ","0","0","[1838]","1","3","","","1073","163","0","2","win","no-go","0","0"
"pit-trial","243","1526709","0.0-169.0","battery-v0.2","","""event"",""trial"",""time""
""fullscreenenter"",""1"",""3927""
","
","
","""event"",""trial"",""time""
""fullscreenenter"",""1"",""3927""
","
","","","903","","","15","1073","775","j","elianto","#3366ff99","-1"," ","0","0","[1753,3688]","2","3","","","1073","164","1","2","win","no-go","0","0"
"pit-trial","244","1530601","0.0-170.0","battery-v0.2","","""event"",""trial"",""time""
""fullscreenenter"",""1"",""3927""
","
","
","""event"",""trial"",""time""
""fullscreenenter"",""1"",""3927""
","
","","","1039","","","15","1073","775","j","elianto","#3366ff99","-1"," ","0","+10","[1889.0000000002328]","1","3","","","1073","165","1","2","win","no-go","1","0"
"pit-trial","245","1534832","0.0-171.0","battery-v0.2","","""event"",""trial"",""time""
""fullscreenenter"",""1"",""3927""
","
","
","""event"",""trial"",""time""
""fullscreenenter"",""1"",""3927""
","
","","","1375","","","15","1073","775","k","elianto","#f73b6a7A"," "," ","1","0","[2227.000000000233]","1","3","","","1073","166","3","3","lose","go","0","0"
"pit-trial","246","1539686","0.0-172.0","battery-v0.2","","""event"",""trial"",""time""
""fullscreenenter"",""1"",""3927""
","
","
","""event"",""trial"",""time""
""fullscreenenter"",""1"",""3927""
","
","","","-1","","","15","1073","775","d","elianto","#3366ff99"," ","-1","0","0","[]","0","3","","","1073","167","2","1","win","go","0","0"
"pit-trial","247","1544540","0.0-173.0","battery-v0.2","","""event"",""trial"",""time""
""fullscreenenter"",""1"",""3927""
","
","
","""event"",""trial"",""time""
""fullscreenenter"",""1"",""3927""
","
","","","-1","","","15","1073","775","v","elianto","#3366ff99","-1","-1","1","+10","[]","0","3","","","1073","168","0","2","win","no-go","0","0"
"pit-trial","248","1548612","0.0-174.0","battery-v0.2","","""event"",""trial"",""time""
""fullscreenenter"",""1"",""3927""
","
","
","""event"",""trial"",""time""
""fullscreenenter"",""1"",""3927""
","
","","","1219","","","15","1073","775","j","elianto","#3366ff99","-1"," ","0","+10","[2069]","1","3","","","1073","169","1","2","win","no-go","1","0"
"pit-trial","249","1553467","0.0-175.0","battery-v0.2","","""event"",""trial"",""time""
""fullscreenenter"",""1"",""3927""
","
","
","""event"",""trial"",""time""
""fullscreenenter"",""1"",""3927""
","
","","","-1","","","15","1073","775","v","elianto","#3366ff99","-1","-1","1","+10","[]","0","3","","","1073","170","0","2","win","no-go","0","0"
"pit-trial","250","1558322","0.0-176.0","battery-v0.2","","""event"",""trial"",""time""
""fullscreenenter"",""1"",""3927""
","
","
","""event"",""trial"",""time""
""fullscreenenter"",""1"",""3927""
","
","","","-1","","","15","1073","775","d","elianto","#3366ff99"," ","-1","0","0","[]","0","3","","","1073","171","2","1","win","go","0","0"
"pit-trial","251","1562180","0.0-177.0","battery-v0.2","","""event"",""trial"",""time""
""fullscreenenter"",""1"",""3927""
","
","
","""event"",""trial"",""time""
""fullscreenenter"",""1"",""3927""
","
","","","1003.9999999997672","","","15","1073","775","k","elianto","#f73b6a7A"," "," ","1","0","[1856]","1","3","","","1073","172","3","3","lose","go","0","0"
"pit-trial","252","1567035","0.0-178.0","battery-v0.2","","""event"",""trial"",""time""
""fullscreenenter"",""1"",""3927""
","
","
","""event"",""trial"",""time""
""fullscreenenter"",""1"",""3927""
","
","","","-1","","","15","1073","775","e","elianto","#f73b6a7A","-1","-1","1","0","[]","0","3","","","1073","173","4","4","lose","no-go","0","0"
"pit-trial","253","1570933","0.0-179.0","battery-v0.2","","""event"",""trial"",""time""
""fullscreenenter"",""1"",""3927""
","
","
","""event"",""trial"",""time""
""fullscreenenter"",""1"",""3927""
","
","","","1044","","","15","1073","775","d","elianto","#3366ff99"," "," ","1","+10","[1896]","1","3","","","1073","174","2","1","win","go","0","0"
"pit-trial","254","1575788","0.0-180.0","battery-v0.2","","""event"",""trial"",""time""
""fullscreenenter"",""1"",""3927""
","
","
","""event"",""trial"",""time""
""fullscreenenter"",""1"",""3927""
","
","","","-1","","","15","1073","775","v","elianto","#3366ff99","-1","-1","1","+10","[]","0","3","","","1073","175","0","2","win","no-go","0","0"
"pit-trial","255","1580643","0.0-181.0","battery-v0.2","","""event"",""trial"",""time""
""fullscreenenter"",""1"",""3927""
","
","
","""event"",""trial"",""time""
""fullscreenenter"",""1"",""3927""
","
","","","-1","","","15","1073","775","w","elianto","#f73b6a7A"," ","-1","0","0","[]","0","3","","","1073","176","5","3","lose","go","1","0"
"pit-trial","256","1585497","0.0-182.0","battery-v0.2","","""event"",""trial"",""time""
""fullscreenenter"",""1"",""3927""
","
","
","""event"",""trial"",""time""
""fullscreenenter"",""1"",""3927""
","
","","","-1","","","15","1073","775","e","elianto","#f73b6a7A","-1","-1","1","0","[]","0","3","","","1073","177","4","4","lose","no-go","0","0"
"pit-trial","257","1590352","0.0-183.0","battery-v0.2","","""event"",""trial"",""time""
""fullscreenenter"",""1"",""3927""
","
","
","""event"",""trial"",""time""
""fullscreenenter"",""1"",""3927""
","
","","","-1","","","15","1073","775","v","elianto","#3366ff99","-1","-1","1","0","[]","0","3","","","1073","178","0","2","win","no-go","1","0"
"pit-trial","258","1594760","0.0-184.0","battery-v0.2","","""event"",""trial"",""time""
""fullscreenenter"",""1"",""3927""
","
","
","""event"",""trial"",""time""
""fullscreenenter"",""1"",""3927""
","
","","","1554","","","15","1073","775","w","elianto","#f73b6a7A"," "," ","1","0","[2405]","1","3","","","1073","179","5","3","lose","go","0","0"
"pit-trial","259","1598575","0.0-185.0","battery-v0.2","","""event"",""trial"",""time""
""fullscreenenter"",""1"",""3927""
","
","
","""event"",""trial"",""time""
""fullscreenenter"",""1"",""3927""
","
","","","960","","","15","1073","775","d","elianto","#3366ff99"," "," ","1","+10","[1810.9999999997672]","1","3","","","1073","180","2","1","win","go","0","0"
"pit-trial","260","1602637","0.0-186.0","battery-v0.2","","""event"",""trial"",""time""
""fullscreenenter"",""1"",""3927""
","
","
","""event"",""trial"",""time""
""fullscreenenter"",""1"",""3927""
","
","","","1207","","","15","1073","775","w","elianto","#f73b6a7A"," "," ","1","0","[2058]","1","3","","","1073","181","5","3","lose","go","0","0"
"pit-trial","261","1607498","0.0-187.0","battery-v0.2","","""event"",""trial"",""time""
""fullscreenenter"",""1"",""3927""
","
","
","""event"",""trial"",""time""
""fullscreenenter"",""1"",""3927""
","
","","","-1","","","15","1073","775","e","elianto","#f73b6a7A","-1","-1","1","0","[]","0","3","","","1073","182","4","4","lose","no-go","0","0"
"pit-trial","262","1612357","0.0-188.0","battery-v0.2","","""event"",""trial"",""time""
""fullscreenenter"",""1"",""3927""
","
","
","""event"",""trial"",""time""
""fullscreenenter"",""1"",""3927""
","
","","","-1","","","15","1073","775","s","elianto","#3366ff99","-1","-1","1","+10","[]","0","3","","","1073","183","6","2","win","no-go","0","0"
"pit-trial","263","1615948","0.0-189.0","battery-v0.2","","""event"",""trial"",""time""
""fullscreenenter"",""1"",""3927""
","
","
","""event"",""trial"",""time""
""fullscreenenter"",""1"",""3927""
","
","","","735","","","15","1073","775","d","elianto","#3366ff99"," "," ","1","+10","[1586]","1","3","","","1073","184","2","1","win","go","0","0"
"pit-trial","264","1620806","0.0-190.0","battery-v0.2","","""event"",""trial"",""time""
""fullscreenenter"",""1"",""3927""
","
","
","""event"",""trial"",""time""
""fullscreenenter"",""1"",""3927""
","
","","","-1","","","15","1073","775","s","elianto","#3366ff99","-1","-1","1","+10","[]","0","3","","","1073","185","6","2","win","no-go","0","0"
"pit-trial","265","1624380","0.0-191.0","battery-v0.2","","""event"",""trial"",""time""
""fullscreenenter"",""1"",""3927""
","
","
","""event"",""trial"",""time""
""fullscreenenter"",""1"",""3927""
","
","","","717","","","15","1073","775","d","elianto","#3366ff99"," "," ","1","+10","[1567.9999999997672]","1","3","","","1073","186","2","1","win","go","0","0"
"pit-trial","266","1629237","0.0-192.0","battery-v0.2","","""event"",""trial"",""time""
""fullscreenenter"",""1"",""3927""
","
","
","""event"",""trial"",""time""
""fullscreenenter"",""1"",""3927""
","
","","","-1","","","15","1073","775","w","elianto","#f73b6a7A"," ","-1","0","-10","[]","0","3","","","1073","187","5","3","lose","go","0","0"
"pit-trial","267","1634093","0.0-193.0","battery-v0.2","","""event"",""trial"",""time""
""fullscreenenter"",""1"",""3927""
","
","
","""event"",""trial"",""time""
""fullscreenenter"",""1"",""3927""
","
","","","-1","","","15","1073","775","e","elianto","#f73b6a7A","-1","-1","1","0","[]","0","3","","","1073","188","4","4","lose","no-go","0","0"
"pit-trial","268","1638948","0.0-194.0","battery-v0.2","","""event"",""trial"",""time""
""fullscreenenter"",""1"",""3927""
","
","
","""event"",""trial"",""time""
""fullscreenenter"",""1"",""3927""
","
","","","-1","","","15","1073","775","e","elianto","#f73b6a7A","-1","-1","1","0","[]","0","3","","","1073","189","4","4","lose","no-go","0","0"
"pit-trial","269","1643804","0.0-195.0","battery-v0.2","","""event"",""trial"",""time""
""fullscreenenter"",""1"",""3927""
","
","
","""event"",""trial"",""time""
""fullscreenenter"",""1"",""3927""
","
","","","-1","","","15","1073","775","s","elianto","#3366ff99","-1","-1","1","+10","[]","0","3","","","1073","190","6","2","win","no-go","0","0"
"pit-trial","270","1648123","0.0-196.0","battery-v0.2","","""event"",""trial"",""time""
""fullscreenenter"",""1"",""3927""
","
","
","""event"",""trial"",""time""
""fullscreenenter"",""1"",""3927""
","
","","","1464.0000000002328","","","15","1073","775","w","elianto","#f73b6a7A"," "," ","1","0","[2316.000000000233]","1","3","","","1073","191","5","3","lose","go","0","0"
"pit-trial","271","1652978","0.0-197.0","battery-v0.2","","""event"",""trial"",""time""
""fullscreenenter"",""1"",""3927""
","
","
","""event"",""trial"",""time""
""fullscreenenter"",""1"",""3927""
","
","","","-1","","","15","1073","775","p","elianto","#f73b6a7A","-1","-1","1","-10","[]","0","3","","","1073","192","7","4","lose","no-go","1","0"
"pit-trial","272","1657833","0.0-198.0","battery-v0.2","","""event"",""trial"",""time""
""fullscreenenter"",""1"",""3927""
","
","
","""event"",""trial"",""time""
""fullscreenenter"",""1"",""3927""
","
","","","-1","","","15","1073","775","s","elianto","#3366ff99","-1","-1","1","+10","[]","0","3","","","1073","193","6","2","win","no-go","0","0"
