"trial_type","trial_index","time_elapsed","internal_node_id","task_version","rune","rune_set","hex","correct","choice","rt","accuracy","outcome","keys","total_keys","sub","block","trial","stimulus","robot","valence","action","sham"
"pavlovia","0","12","0.0-0.0","battery-v0.2","","","","","","","","","","","","","","","","","",""
"pit-trial","1","4871","0.0-1.0","battery-v0.2","a","elianto","#d1e6df","-1","-1","-1","1","-10","[]","0","3&age=8&participant_ID=5&order=1","2","21","2","4","lose","no-go","1"
"pit-trial","2","9731","0.0-2.0","battery-v0.2","l","elianto","#d1e6df","32","-1","-1","0","-10","[]","0","3&age=8&participant_ID=5&order=1","2","22","1","3","lose","go","0"
"pit-trial","3","14588","0.0-3.0","battery-v0.2","g","elianto","#d1e6df","32","-1","-1","0","+10","[]","0","3&age=8&participant_ID=5&order=1","2","23","3","1","win","go","1"
"pit-trial","4","19453","0.0-4.0","battery-v0.2","u","elianto","#d1e6df","-1","-1","-1","1","+10","[]","0","3&age=8&participant_ID=5&order=1","2","24","0","2","win","no-go","0"
"pit-trial","5","24307","0.0-5.0","battery-v0.2","u","elianto","#d1e6df","-1","-1","-1","1","+10","[]","0","3&age=8&participant_ID=5&order=1","2","25","0","2","win","no-go","0"
"pit-trial","6","29162","0.0-6.0","battery-v0.2","a","elianto","#d1e6df","-1","-1","-1","1","0","[]","0","3&age=8&participant_ID=5&order=1","2","26","2","4","lose","no-go","0"
"pit-trial","7","34020","0.0-7.0","battery-v0.2","g","elianto","#d1e6df","32","-1","-1","0","0","[]","0","3&age=8&participant_ID=5&order=1","2","27","3","1","win","go","0"
"pit-trial","8","38875","0.0-8.0","battery-v0.2","l","elianto","#d1e6df","32","-1","-1","0","-10","[]","0","3&age=8&participant_ID=5&order=1","2","28","1","3","lose","go","0"
"pit-trial","9","43728","0.0-9.0","battery-v0.2","a","elianto","#d1e6df","-1","-1","-1","1","0","[]","0","3&age=8&participant_ID=5&order=1","2","29","2","4","lose","no-go","0"
"pit-trial","10","48586","0.0-10.0","battery-v0.2","l","elianto","#d1e6df","32","-1","-1","0","-10","[]","0","3&age=8&participant_ID=5&order=1","2","30","1","3","lose","go","0"
"pit-trial","11","53444","0.0-11.0","battery-v0.2","u","elianto","#d1e6df","-1","-1","-1","1","+10","[]","0","3&age=8&participant_ID=5&order=1","2","31","0","2","win","no-go","0"
"pit-trial","12","58299","0.0-12.0","battery-v0.2","g","elianto","#d1e6df","32","-1","-1","0","0","[]","0","3&age=8&participant_ID=5&order=1","2","32","3","1","win","go","0"
"pit-trial","13","63157","0.0-13.0","battery-v0.2","a","elianto","#d1e6df","-1","-1","-1","1","0","[]","0","3&age=8&participant_ID=5&order=1","2","33","2","4","lose","no-go","0"
"pit-trial","14","68014","0.0-14.0","battery-v0.2","u","elianto","#d1e6df","-1","-1","-1","1","0","[]","0","3&age=8&participant_ID=5&order=1","2","34","0","2","win","no-go","1"
"pit-trial","15","72870","0.0-15.0","battery-v0.2","g","elianto","#d1e6df","32","-1","-1","0","+10","[]","0","3&age=8&participant_ID=5&order=1","2","35","3","1","win","go","1"
"pit-trial","16","77728","0.0-16.0","battery-v0.2","l","elianto","#d1e6df","32","-1","-1","0","-10","[]","0","3&age=8&participant_ID=5&order=1","2","36","1","3","lose","go","0"
"pit-trial","17","82586","0.0-17.0","battery-v0.2","a","elianto","#d1e6df","-1","-1","-1","1","-10","[]","0","3&age=8&participant_ID=5&order=1","2","37","2","4","lose","no-go","1"
"pit-trial","18","87441","0.0-18.0","battery-v0.2","g","elianto","#d1e6df","32","-1","-1","0","0","[]","0","3&age=8&participant_ID=5&order=1","2","38","3","1","win","go","0"
"pit-trial","19","92296","0.0-19.0","battery-v0.2","u","elianto","#d1e6df","-1","-1","-1","1","+10","[]","0","3&age=8&participant_ID=5&order=1","2","39","0","2","win","no-go","0"
"pit-trial","20","97153","0.0-20.0","battery-v0.2","l","elianto","#d1e6df","32","-1","-1","0","-10","[]","0","3&age=8&participant_ID=5&order=1","2","40","1","3","lose","go","0"
"pit-trial","21","102011","0.0-21.0","battery-v0.2","a","elianto","#d1e6df","-1","-1","-1","1","0","[]","0","3&age=8&participant_ID=5&order=1","2","41","2","4","lose","no-go","0"
"pit-trial","22","106868","0.0-22.0","battery-v0.2","u","elianto","#d1e6df","-1","-1","-1","1","+10","[]","0","3&age=8&participant_ID=5&order=1","2","42","0","2","win","no-go","0"
"pit-trial","23","111725","0.0-23.0","battery-v0.2","l","elianto","#d1e6df","32","-1","-1","0","-10","[]","0","3&age=8&participant_ID=5&order=1","2","43","1","3","lose","go","0"
"pit-trial","24","116585","0.0-24.0","battery-v0.2","g","elianto","#d1e6df","32","-1","-1","0","0","[]","0","3&age=8&participant_ID=5&order=1","2","44","3","1","win","go","0"
"pit-trial","25","121446","0.0-25.0","battery-v0.2","g","elianto","#d1e6df","32","-1","-1","0","+10","[]","0","3&age=8&participant_ID=5&order=1","2","45","3","1","win","go","1"
"pit-trial","26","126306","0.0-26.0","battery-v0.2","l","elianto","#d1e6df","32","-1","-1","0","0","[]","0","3&age=8&participant_ID=5&order=1","2","46","1","3","lose","go","1"
"pit-trial","27","131167","0.0-27.0","battery-v0.2","a","elianto","#d1e6df","-1","-1","-1","1","-10","[]","0","3&age=8&participant_ID=5&order=1","2","47","2","4","lose","no-go","1"
"pit-trial","28","136019","0.0-28.0","battery-v0.2","u","elianto","#d1e6df","-1","-1","-1","1","+10","[]","0","3&age=8&participant_ID=5&order=1","2","48","0","2","win","no-go","0"
"pit-trial","29","140881","0.0-29.0","battery-v0.2","l","elianto","#d1e6df","32","-1","-1","0","-10","[]","0","3&age=8&participant_ID=5&order=1","2","49","1","3","lose","go","0"
"pit-trial","30","145739","0.0-30.0","battery-v0.2","g","elianto","#d1e6df","32","-1","-1","0","0","[]","0","3&age=8&participant_ID=5&order=1","2","50","3","1","win","go","0"
"pit-trial","31","150601","0.0-31.0","battery-v0.2","u","elianto","#d1e6df","-1","-1","-1","1","+10","[]","0","3&age=8&participant_ID=5&order=1","2","51","0","2","win","no-go","0"
"pit-trial","32","155459","0.0-32.0","battery-v0.2","a","elianto","#d1e6df","-1","-1","-1","1","0","[]","0","3&age=8&participant_ID=5&order=1","2","52","2","4","lose","no-go","0"
"pit-trial","33","160318","0.0-33.0","battery-v0.2","p","elianto","#d1e6df","32","-1","-1","0","-10","[]","0","3&age=8&participant_ID=5&order=1","2","53","4","3","lose","go","0"
"pit-trial","34","165176","0.0-34.0","battery-v0.2","l","elianto","#d1e6df","32","-1","-1","0","-10","[]","0","3&age=8&participant_ID=5&order=1","2","54","1","3","lose","go","0"
"pit-trial","35","170037","0.0-35.0","battery-v0.2","s","elianto","#d1e6df","-1","-1","-1","1","0","[]","0","3&age=8&participant_ID=5&order=1","2","55","5","4","lose","no-go","0"
"pit-trial","36","174891","0.0-36.0","battery-v0.2","a","elianto","#d1e6df","-1","-1","-1","1","-10","[]","0","3&age=8&participant_ID=5&order=1","2","56","2","4","lose","no-go","1"
"pit-trial","37","179746","0.0-37.0","battery-v0.2","s","elianto","#d1e6df","-1","-1","-1","1","-10","[]","0","3&age=8&participant_ID=5&order=1","2","57","5","4","lose","no-go","1"
"pit-trial","38","184601","0.0-38.0","battery-v0.2","l","elianto","#d1e6df","32","-1","-1","0","0","[]","0","3&age=8&participant_ID=5&order=1","2","58","1","3","lose","go","1"
"pit-trial","39","189463","0.0-39.0","battery-v0.2","p","elianto","#d1e6df","32","-1","-1","0","-10","[]","0","3&age=8&participant_ID=5&order=1","2","59","4","3","lose","go","0"
"pit-trial","40","194320","0.0-40.0","battery-v0.2","a","elianto","#d1e6df","-1","-1","-1","1","0","[]","0","3&age=8&participant_ID=5&order=1","2","60","2","4","lose","no-go","0"
"pit-trial","41","199179","0.0-41.0","battery-v0.2","s","elianto","#d1e6df","-1","-1","-1","1","-10","[]","0","3&age=8&participant_ID=5&order=1","2","61","5","4","lose","no-go","1"
"pit-trial","42","204038","0.0-42.0","battery-v0.2","a","elianto","#d1e6df","-1","-1","-1","1","0","[]","0","3&age=8&participant_ID=5&order=1","2","62","2","4","lose","no-go","0"
"pit-trial","43","208897","0.0-43.0","battery-v0.2","w","elianto","#d1e6df","-1","-1","-1","1","+10","[]","0","3&age=8&participant_ID=5&order=1","2","63","6","2","win","no-go","0"
"pit-trial","44","213752","0.0-44.0","battery-v0.2","p","elianto","#d1e6df","32","-1","-1","0","-10","[]","0","3&age=8&participant_ID=5&order=1","2","64","4","3","lose","go","0"
"pit-trial","45","218612","0.0-45.0","battery-v0.2","p","elianto","#d1e6df","32","-1","-1","0","-10","[]","0","3&age=8&participant_ID=5&order=1","2","65","4","3","lose","go","0"
"pit-trial","46","223471","0.0-46.0","battery-v0.2","s","elianto","#d1e6df","-1","-1","-1","1","0","[]","0","3&age=8&participant_ID=5&order=1","2","66","5","4","lose","no-go","0"
"pit-trial","47","228328","0.0-47.0","battery-v0.2","a","elianto","#d1e6df","-1","-1","-1","1","0","[]","0","3&age=8&participant_ID=5&order=1","2","67","2","4","lose","no-go","0"
"pit-trial","48","233189","0.0-48.0","battery-v0.2","w","elianto","#d1e6df","-1","-1","-1","1","+10","[]","0","3&age=8&participant_ID=5&order=1","2","68","6","2","win","no-go","0"
"pit-trial","49","238052","0.0-49.0","battery-v0.2","e","elianto","#d1e6df","32","-1","-1","0","+10","[]","0","3&age=8&participant_ID=5&order=1","2","69","7","1","win","go","1"
"pit-trial","50","242909","0.0-50.0","battery-v0.2","p","elianto","#d1e6df","32","-1","-1","0","-10","[]","0","3&age=8&participant_ID=5&order=1","2","70","4","3","lose","go","0"
"pit-trial","51","247769","0.0-51.0","battery-v0.2","w","elianto","#d1e6df","-1","-1","-1","1","+10","[]","0","3&age=8&participant_ID=5&order=1","2","71","6","2","win","no-go","0"
"pit-trial","52","252625","0.0-52.0","battery-v0.2","s","elianto","#d1e6df","-1","-1","-1","1","0","[]","0","3&age=8&participant_ID=5&order=1","2","72","5","4","lose","no-go","0"
"pit-trial","53","257485","0.0-53.0","battery-v0.2","p","elianto","#d1e6df","32","-1","-1","0","-10","[]","0","3&age=8&participant_ID=5&order=1","2","73","4","3","lose","go","0"
"pit-trial","54","262339","0.0-54.0","battery-v0.2","s","elianto","#d1e6df","-1","-1","-1","1","-10","[]","0","3&age=8&participant_ID=5&order=1","2","74","5","4","lose","no-go","1"
"pit-trial","55","267196","0.0-55.0","battery-v0.2","e","elianto","#d1e6df","32","-1","-1","0","0","[]","0","3&age=8&participant_ID=5&order=1","2","75","7","1","win","go","0"
"pit-trial","56","272052","0.0-56.0","battery-v0.2","w","elianto","#d1e6df","-1","-1","-1","1","0","[]","0","3&age=8&participant_ID=5&order=1","2","76","6","2","win","no-go","1"
"pit-trial","57","276910","0.0-57.0","battery-v0.2","p","elianto","#d1e6df","32","-1","-1","0","-10","[]","0","3&age=8&participant_ID=5&order=1","2","77","4","3","lose","go","0"
"pit-trial","58","281766","0.0-58.0","battery-v0.2","e","elianto","#d1e6df","32","-1","-1","0","0","[]","0","3&age=8&participant_ID=5&order=1","2","78","7","1","win","go","0"
"pit-trial","59","286623","0.0-59.0","battery-v0.2","s","elianto","#d1e6df","-1","-1","-1","1","0","[]","0","3&age=8&participant_ID=5&order=1","2","79","5","4","lose","no-go","0"
"pit-trial","60","291483","0.0-60.0","battery-v0.2","w","elianto","#d1e6df","-1","-1","-1","1","+10","[]","0","3&age=8&participant_ID=5&order=1","2","80","6","2","win","no-go","0"
"pit-trial","61","296341","0.0-61.0","battery-v0.2","s","elianto","#d1e6df","-1","-1","-1","1","0","[]","0","3&age=8&participant_ID=5&order=1","2","81","5","4","lose","no-go","0"
"pit-trial","62","301196","0.0-62.0","battery-v0.2","e","elianto","#d1e6df","32","-1","-1","0","0","[]","0","3&age=8&participant_ID=5&order=1","2","82","7","1","win","go","0"
"pit-trial","63","306052","0.0-63.0","battery-v0.2","p","elianto","#d1e6df","32","-1","-1","0","-10","[]","0","3&age=8&participant_ID=5&order=1","2","83","4","3","lose","go","0"
"pit-trial","64","310911","0.0-64.0","battery-v0.2","w","elianto","#d1e6df","-1","-1","-1","1","0","[]","0","3&age=8&participant_ID=5&order=1","2","84","6","2","win","no-go","1"
"pit-trial","65","315769","0.0-65.0","battery-v0.2","s","elianto","#d1e6df","-1","-1","-1","1","0","[]","0","3&age=8&participant_ID=5&order=1","2","85","5","4","lose","no-go","0"
"pit-trial","66","320624","0.0-66.0","battery-v0.2","e","elianto","#d1e6df","32","-1","-1","0","0","[]","0","3&age=8&participant_ID=5&order=1","2","86","7","1","win","go","0"
"pit-trial","67","325481","0.0-67.0","battery-v0.2","p","elianto","#d1e6df","32","-1","-1","0","0","[]","0","3&age=8&participant_ID=5&order=1","2","87","4","3","lose","go","1"
"pit-trial","68","330342","0.0-68.0","battery-v0.2","w","elianto","#d1e6df","-1","-1","-1","1","0","[]","0","3&age=8&participant_ID=5&order=1","2","88","6","2","win","no-go","1"
"pit-trial","69","335200","0.0-69.0","battery-v0.2","s","elianto","#d1e6df","-1","-1","-1","1","0","[]","0","3&age=8&participant_ID=5&order=1","2","89","5","4","lose","no-go","0"
"pit-trial","70","340055","0.0-70.0","battery-v0.2","e","elianto","#d1e6df","32","-1","-1","0","0","[]","0","3&age=8&participant_ID=5&order=1","2","90","7","1","win","go","0"
"pit-trial","71","344912","0.0-71.0","battery-v0.2","p","elianto","#d1e6df","32","-1","-1","0","-10","[]","0","3&age=8&participant_ID=5&order=1","2","91","4","3","lose","go","0"
"pit-trial","72","349768","0.0-72.0","battery-v0.2","w","elianto","#d1e6df","-1","-1","-1","1","+10","[]","0","3&age=8&participant_ID=5&order=1","2","92","6","2","win","no-go","0"
"pit-trial","73","354625","0.0-73.0","battery-v0.2","p","elianto","#d1e6df","32","-1","-1","0","0","[]","0","3&age=8&participant_ID=5&order=1","2","93","4","3","lose","go","1"
"pit-trial","74","359487","0.0-74.0","battery-v0.2","e","elianto","#d1e6df","32","-1","-1","0","0","[]","0","3&age=8&participant_ID=5&order=1","2","94","7","1","win","go","0"
"pit-trial","75","364342","0.0-75.0","battery-v0.2","w","elianto","#d1e6df","-1","-1","-1","1","+10","[]","0","3&age=8&participant_ID=5&order=1","2","95","6","2","win","no-go","0"
"pit-trial","76","369198","0.0-76.0","battery-v0.2","k","elianto","#d1e6df","32","-1","-1","0","0","[]","0","3&age=8&participant_ID=5&order=1","2","96","8","1","win","go","0"
"pit-trial","77","374056","0.0-77.0","battery-v0.2","w","elianto","#d1e6df","-1","-1","-1","1","+10","[]","0","3&age=8&participant_ID=5&order=1","2","97","6","2","win","no-go","0"
"pit-trial","78","378913","0.0-78.0","battery-v0.2","p","elianto","#d1e6df","32","-1","-1","0","-10","[]","0","3&age=8&participant_ID=5&order=1","2","98","4","3","lose","go","0"
"pit-trial","79","383769","0.0-79.0","battery-v0.2","k","elianto","#d1e6df","32","-1","-1","0","+10","[]","0","3&age=8&participant_ID=5&order=1","2","99","8","1","win","go","1"
"pit-trial","80","388624","0.0-80.0","battery-v0.2","e","elianto","#d1e6df","32","-1","-1","0","0","[]","0","3&age=8&participant_ID=5&order=1","2","100","7","1","win","go","0"
"pit-trial","81","393479","0.0-81.0","battery-v0.2","d","elianto","#d1e6df","-1","-1","-1","1","+10","[]","0","3&age=8&participant_ID=5&order=1","2","101","9","2","win","no-go","0"
"pit-trial","82","398335","0.0-82.0","battery-v0.2","e","elianto","#d1e6df","32","-1","-1","0","0","[]","0","3&age=8&participant_ID=5&order=1","2","102","7","1","win","go","0"
"pit-trial","83","403194","0.0-83.0","battery-v0.2","k","elianto","#d1e6df","32","-1","-1","0","0","[]","0","3&age=8&participant_ID=5&order=1","2","103","8","1","win","go","0"
"pit-trial","84","408054","0.0-84.0","battery-v0.2","w","elianto","#d1e6df","-1","-1","-1","1","+10","[]","0","3&age=8&participant_ID=5&order=1","2","104","6","2","win","no-go","0"
"pit-trial","85","412914","0.0-85.0","battery-v0.2","d","elianto","#d1e6df","-1","-1","-1","1","+10","[]","0","3&age=8&participant_ID=5&order=1","2","105","9","2","win","no-go","0"
"pit-trial","86","417767","0.0-86.0","battery-v0.2","w","elianto","#d1e6df","-1","-1","-1","1","+10","[]","0","3&age=8&participant_ID=5&order=1","2","106","6","2","win","no-go","0"
"pit-trial","87","422629","0.0-87.0","battery-v0.2","e","elianto","#d1e6df","32","-1","-1","0","+10","[]","0","3&age=8&participant_ID=5&order=1","2","107","7","1","win","go","1"
"pit-trial","88","427488","0.0-88.0","battery-v0.2","k","elianto","#d1e6df","32","-1","-1","0","+10","[]","0","3&age=8&participant_ID=5&order=1","2","108","8","1","win","go","1"
"pit-trial","89","432347","0.0-89.0","battery-v0.2","j","elianto","#d1e6df","32","-1","-1","0","-10","[]","0","3&age=8&participant_ID=5&order=1","2","109","10","3","lose","go","0"
"pit-trial","90","437201","0.0-90.0","battery-v0.2","d","elianto","#d1e6df","-1","-1","-1","1","+10","[]","0","3&age=8&participant_ID=5&order=1","2","110","9","2","win","no-go","0"
"pit-trial","91","442056","0.0-91.0","battery-v0.2","v","elianto","#d1e6df","-1","-1","-1","1","-10","[]","0","3&age=8&participant_ID=5&order=1","2","111","11","4","lose","no-go","1"
"pit-trial","92","446915","0.0-92.0","battery-v0.2","k","elianto","#d1e6df","32","-1","-1","0","0","[]","0","3&age=8&participant_ID=5&order=1","2","112","8","1","win","go","0"
"pit-trial","93","451772","0.0-93.0","battery-v0.2","j","elianto","#d1e6df","32","-1","-1","0","-10","[]","0","3&age=8&participant_ID=5&order=1","2","113","10","3","lose","go","0"
"pit-trial","94","456629","0.0-94.0","battery-v0.2","k","elianto","#d1e6df","32","-1","-1","0","0","[]","0","3&age=8&participant_ID=5&order=1","2","114","8","1","win","go","0"
"pit-trial","95","461489","0.0-95.0","battery-v0.2","v","elianto","#d1e6df","-1","-1","-1","1","0","[]","0","3&age=8&participant_ID=5&order=1","2","115","11","4","lose","no-go","0"
"pit-trial","96","466341","0.0-96.0","battery-v0.2","d","elianto","#d1e6df","-1","-1","-1","1","+10","[]","0","3&age=8&participant_ID=5&order=1","2","116","9","2","win","no-go","0"
"pit-trial","97","471201","0.0-97.0","battery-v0.2","v","elianto","#d1e6df","-1","-1","-1","1","0","[]","0","3&age=8&participant_ID=5&order=1","2","117","11","4","lose","no-go","0"
"pit-trial","98","476058","0.0-98.0","battery-v0.2","k","elianto","#d1e6df","32","-1","-1","0","0","[]","0","3&age=8&participant_ID=5&order=1","2","118","8","1","win","go","0"
"pit-trial","99","480916","0.0-99.0","battery-v0.2","d","elianto","#d1e6df","-1","-1","-1","1","0","[]","0","3&age=8&participant_ID=5&order=1","2","119","9","2","win","no-go","1"
"pit-trial","100","485776","0.0-100.0","battery-v0.2","j","elianto","#d1e6df","32","-1","-1","0","-10","[]","0","3&age=8&participant_ID=5&order=1","2","120","10","3","lose","go","0"
"pit-trial","101","490630","0.0-101.0","battery-v0.2","v","elianto","#d1e6df","-1","-1","-1","1","0","[]","0","3&age=8&participant_ID=5&order=1","2","121","11","4","lose","no-go","0"
"pit-trial","102","495492","0.0-102.0","battery-v0.2","k","elianto","#d1e6df","32","-1","-1","0","0","[]","0","3&age=8&participant_ID=5&order=1","2","122","8","1","win","go","0"
"pit-trial","103","500353","0.0-103.0","battery-v0.2","d","elianto","#d1e6df","-1","-1","-1","1","+10","[]","0","3&age=8&participant_ID=5&order=1","2","123","9","2","win","no-go","0"
"pit-trial","104","505207","0.0-104.0","battery-v0.2","j","elianto","#d1e6df","32","-1","-1","0","-10","[]","0","3&age=8&participant_ID=5&order=1","2","124","10","3","lose","go","0"
"pit-trial","105","510063","0.0-105.0","battery-v0.2","d","elianto","#d1e6df","-1","-1","-1","1","+10","[]","0","3&age=8&participant_ID=5&order=1","2","125","9","2","win","no-go","0"
"pit-trial","106","514922","0.0-106.0","battery-v0.2","j","elianto","#d1e6df","32","-1","-1","0","-10","[]","0","3&age=8&participant_ID=5&order=1","2","126","10","3","lose","go","0"
"pit-trial","107","519781","0.0-107.0","battery-v0.2","k","elianto","#d1e6df","32","-1","-1","0","0","[]","0","3&age=8&participant_ID=5&order=1","2","127","8","1","win","go","0"
"pit-trial","108","524642","0.0-108.0","battery-v0.2","v","elianto","#d1e6df","-1","-1","-1","1","0","[]","0","3&age=8&participant_ID=5&order=1","2","128","11","4","lose","no-go","0"
"pit-trial","109","529500","0.0-109.0","battery-v0.2","d","elianto","#d1e6df","-1","-1","-1","1","+10","[]","0","3&age=8&participant_ID=5&order=1","2","129","9","2","win","no-go","0"
"pit-trial","110","534361","0.0-110.0","battery-v0.2","j","elianto","#d1e6df","32","-1","-1","0","-10","[]","0","3&age=8&participant_ID=5&order=1","2","130","10","3","lose","go","0"
"pit-trial","111","539218","0.0-111.0","battery-v0.2","k","elianto","#d1e6df","32","-1","-1","0","+10","[]","0","3&age=8&participant_ID=5&order=1","2","131","8","1","win","go","1"
"pit-trial","112","544074","0.0-112.0","battery-v0.2","v","elianto","#d1e6df","-1","-1","-1","1","0","[]","0","3&age=8&participant_ID=5&order=1","2","132","11","4","lose","no-go","0"
"pit-trial","113","548931","0.0-113.0","battery-v0.2","v","elianto","#d1e6df","-1","-1","-1","1","0","[]","0","3&age=8&participant_ID=5&order=1","2","133","11","4","lose","no-go","0"
"pit-trial","114","553789","0.0-114.0","battery-v0.2","j","elianto","#d1e6df","32","-1","-1","0","0","[]","0","3&age=8&participant_ID=5&order=1","2","134","10","3","lose","go","1"
"pit-trial","115","558646","0.0-115.0","battery-v0.2","d","elianto","#d1e6df","-1","-1","-1","1","0","[]","0","3&age=8&participant_ID=5&order=1","2","135","9","2","win","no-go","1"
"pit-trial","116","563502","0.0-116.0","battery-v0.2","k","elianto","#d1e6df","32","-1","-1","0","0","[]","0","3&age=8&participant_ID=5&order=1","2","136","8","1","win","go","0"
"pit-trial","117","568362","0.0-117.0","battery-v0.2","j","elianto","#d1e6df","32","-1","-1","0","0","[]","0","3&age=8&participant_ID=5&order=1","2","137","10","3","lose","go","1"
"pit-trial","118","573223","0.0-118.0","battery-v0.2","k","elianto","#d1e6df","32","-1","-1","0","0","[]","0","3&age=8&participant_ID=5&order=1","2","138","8","1","win","go","0"
"pit-trial","119","578080","0.0-119.0","battery-v0.2","d","elianto","#d1e6df","-1","-1","-1","1","0","[]","0","3&age=8&participant_ID=5&order=1","2","139","9","2","win","no-go","1"
"pit-trial","120","582937","0.0-120.0","battery-v0.2","v","elianto","#d1e6df","-1","-1","-1","1","0","[]","0","3&age=8&participant_ID=5&order=1","2","140","11","4","lose","no-go","0"
"pit-trial","121","587795","0.0-121.0","battery-v0.2","m","elianto","#d1e6df","-1","-1","-1","1","+10","[]","0","3&age=8&participant_ID=5&order=1","3","141","0","2","win","no-go","0"
"pit-trial","122","592650","0.0-122.0","battery-v0.2","h","elianto","#d1e6df","32","-1","-1","0","-10","[]","0","3&age=8&participant_ID=5&order=1","3","142","3","3","lose","go","0"
"pit-trial","123","597511","0.0-123.0","battery-v0.2","r","elianto","#d1e6df","-1","-1","-1","1","+10","[]","0","3&age=8&participant_ID=5&order=1","3","143","1","2","win","no-go","0"
"pit-trial","124","602365","0.0-124.0","battery-v0.2","y","elianto","#d1e6df","32","-1","-1","0","0","[]","0","3&age=8&participant_ID=5&order=1","3","144","2","1","win","go","0"
"pit-trial","125","607224","0.0-125.0","battery-v0.2","m","elianto","#d1e6df","-1","-1","-1","1","+10","[]","0","3&age=8&participant_ID=5&order=1","3","145","0","2","win","no-go","0"
"pit-trial","126","612088","0.0-126.0","battery-v0.2","r","elianto","#d1e6df","-1","-1","-1","1","0","[]","0","3&age=8&participant_ID=5&order=1","3","146","1","2","win","no-go","1"
"pit-trial","127","616945","0.0-127.0","battery-v0.2","h","elianto","#d1e6df","32","-1","-1","0","-10","[]","0","3&age=8&participant_ID=5&order=1","3","147","3","3","lose","go","0"
"pit-trial","128","621805","0.0-128.0","battery-v0.2","y","elianto","#d1e6df","32","-1","-1","0","0","[]","0","3&age=8&participant_ID=5&order=1","3","148","2","1","win","go","0"
"pit-trial","129","626666","0.0-129.0","battery-v0.2","m","elianto","#d1e6df","-1","-1","-1","1","+10","[]","0","3&age=8&participant_ID=5&order=1","3","149","0","2","win","no-go","0"
"pit-trial","130","631521","0.0-130.0","battery-v0.2","h","elianto","#d1e6df","32","-1","-1","0","-10","[]","0","3&age=8&participant_ID=5&order=1","3","150","3","3","lose","go","0"
"pit-trial","131","636382","0.0-131.0","battery-v0.2","y","elianto","#d1e6df","32","-1","-1","0","+10","[]","0","3&age=8&participant_ID=5&order=1","3","151","2","1","win","go","1"
"pit-trial","132","641237","0.0-132.0","battery-v0.2","r","elianto","#d1e6df","-1","-1","-1","1","+10","[]","0","3&age=8&participant_ID=5&order=1","3","152","1","2","win","no-go","0"
"pit-trial","133","646093","0.0-133.0","battery-v0.2","y","elianto","#d1e6df","32","-1","-1","0","0","[]","0","3&age=8&participant_ID=5&order=1","3","153","2","1","win","go","0"
"pit-trial","134","650949","0.0-134.0","battery-v0.2","r","elianto","#d1e6df","-1","-1","-1","1","+10","[]","0","3&age=8&participant_ID=5&order=1","3","154","1","2","win","no-go","0"
"pit-trial","135","655807","0.0-135.0","battery-v0.2","h","elianto","#d1e6df","32","-1","-1","0","-10","[]","0","3&age=8&participant_ID=5&order=1","3","155","3","3","lose","go","0"
"pit-trial","136","660666","0.0-136.0","battery-v0.2","m","elianto","#d1e6df","-1","-1","-1","1","+10","[]","0","3&age=8&participant_ID=5&order=1","3","156","0","2","win","no-go","0"
"pit-trial","137","665523","0.0-137.0","battery-v0.2","h","elianto","#d1e6df","32","-1","-1","0","-10","[]","0","3&age=8&participant_ID=5&order=1","3","157","3","3","lose","go","0"
"pit-trial","138","670383","0.0-138.0","battery-v0.2","m","elianto","#d1e6df","-1","-1","-1","1","+10","[]","0","3&age=8&participant_ID=5&order=1","3","158","0","2","win","no-go","0"
"pit-trial","139","675242","0.0-139.0","battery-v0.2","y","elianto","#d1e6df","32","-1","-1","0","0","[]","0","3&age=8&participant_ID=5&order=1","3","159","2","1","win","go","0"
"pit-trial","140","680102","0.0-140.0","battery-v0.2","r","elianto","#d1e6df","-1","-1","-1","1","+10","[]","0","3&age=8&participant_ID=5&order=1","3","160","1","2","win","no-go","0"
"pit-trial","141","684964","0.0-141.0","battery-v0.2","m","elianto","#d1e6df","-1","-1","-1","1","0","[]","0","3&age=8&participant_ID=5&order=1","3","161","0","2","win","no-go","1"
"pit-trial","142","689824","0.0-142.0","battery-v0.2","r","elianto","#d1e6df","-1","-1","-1","1","+10","[]","0","3&age=8&participant_ID=5&order=1","3","162","1","2","win","no-go","0"
"pit-trial","143","694678","0.0-143.0","battery-v0.2","h","elianto","#d1e6df","32","-1","-1","0","-10","[]","0","3&age=8&participant_ID=5&order=1","3","163","3","3","lose","go","0"
"pit-trial","144","699535","0.0-144.0","battery-v0.2","y","elianto","#d1e6df","32","-1","-1","0","0","[]","0","3&age=8&participant_ID=5&order=1","3","164","2","1","win","go","0"
"pit-trial","145","704391","0.0-145.0","battery-v0.2","r","elianto","#d1e6df","-1","-1","-1","1","+10","[]","0","3&age=8&participant_ID=5&order=1","3","165","1","2","win","no-go","0"
"pit-trial","146","709248","0.0-146.0","battery-v0.2","h","elianto","#d1e6df","32","-1","-1","0","-10","[]","0","3&age=8&participant_ID=5&order=1","3","166","3","3","lose","go","0"
"pit-trial","147","714107","0.0-147.0","battery-v0.2","m","elianto","#d1e6df","-1","-1","-1","1","+10","[]","0","3&age=8&participant_ID=5&order=1","3","167","0","2","win","no-go","0"
"pit-trial","148","718960","0.0-148.0","battery-v0.2","y","elianto","#d1e6df","32","-1","-1","0","0","[]","0","3&age=8&participant_ID=5&order=1","3","168","2","1","win","go","0"
"pit-trial","149","723821","0.0-149.0","battery-v0.2","r","elianto","#d1e6df","-1","-1","-1","1","+10","[]","0","3&age=8&participant_ID=5&order=1","3","169","1","2","win","no-go","0"
"pit-trial","150","728679","0.0-150.0","battery-v0.2","h","elianto","#d1e6df","32","-1","-1","0","-10","[]","0","3&age=8&participant_ID=5&order=1","3","170","3","3","lose","go","0"
"pit-trial","151","733535","0.0-151.0","battery-v0.2","m","elianto","#d1e6df","-1","-1","-1","1","+10","[]","0","3&age=8&participant_ID=5&order=1","3","171","0","2","win","no-go","0"
"pit-trial","152","738392","0.0-152.0","battery-v0.2","y","elianto","#d1e6df","32","-1","-1","0","+10","[]","0","3&age=8&participant_ID=5&order=1","3","172","2","1","win","go","1"
"pit-trial","153","743249","0.0-153.0","battery-v0.2","z","elianto","#d1e6df","-1","-1","-1","1","0","[]","0","3&age=8&participant_ID=5&order=1","3","173","4","4","lose","no-go","0"
"pit-trial","154","748108","0.0-154.0","battery-v0.2","y","elianto","#d1e6df","32","-1","-1","0","0","[]","0","3&age=8&participant_ID=5&order=1","3","174","2","1","win","go","0"
"pit-trial","155","752970","0.0-155.0","battery-v0.2","m","elianto","#d1e6df","-1","-1","-1","1","+10","[]","0","3&age=8&participant_ID=5&order=1","3","175","0","2","win","no-go","0"
"pit-trial","156","757828","0.0-156.0","battery-v0.2","c","elianto","#d1e6df","32","-1","-1","0","-10","[]","0","3&age=8&participant_ID=5&order=1","3","176","5","3","lose","go","0"
"pit-trial","157","762689","0.0-157.0","battery-v0.2","y","elianto","#d1e6df","32","-1","-1","0","0","[]","0","3&age=8&participant_ID=5&order=1","3","177","2","1","win","go","0"
"pit-trial","158","767547","0.0-158.0","battery-v0.2","m","elianto","#d1e6df","-1","-1","-1","1","+10","[]","0","3&age=8&participant_ID=5&order=1","3","178","0","2","win","no-go","0"
"pit-trial","159","772400","0.0-159.0","battery-v0.2","z","elianto","#d1e6df","-1","-1","-1","1","0","[]","0","3&age=8&participant_ID=5&order=1","3","179","4","4","lose","no-go","0"
"pit-trial","160","777255","0.0-160.0","battery-v0.2","c","elianto","#d1e6df","32","-1","-1","0","-10","[]","0","3&age=8&participant_ID=5&order=1","3","180","5","3","lose","go","0"
"pit-trial","161","782114","0.0-161.0","battery-v0.2","z","elianto","#d1e6df","-1","-1","-1","1","0","[]","0","3&age=8&participant_ID=5&order=1","3","181","4","4","lose","no-go","0"
"pit-trial","162","786974","0.0-162.0","battery-v0.2","c","elianto","#d1e6df","32","-1","-1","0","-10","[]","0","3&age=8&participant_ID=5&order=1","3","182","5","3","lose","go","0"
"pit-trial","163","791834","0.0-163.0","battery-v0.2","y","elianto","#d1e6df","32","-1","-1","0","0","[]","0","3&age=8&participant_ID=5&order=1","3","183","2","1","win","go","0"
"pit-trial","164","796689","0.0-164.0","battery-v0.2","b","elianto","#d1e6df","-1","-1","-1","1","0","[]","0","3&age=8&participant_ID=5&order=1","3","184","6","2","win","no-go","1"
"pit-trial","165","801544","0.0-165.0","battery-v0.2","z","elianto","#d1e6df","-1","-1","-1","1","-10","[]","0","3&age=8&participant_ID=5&order=1","3","185","4","4","lose","no-go","1"
"pit-trial","166","806398","0.0-166.0","battery-v0.2","c","elianto","#d1e6df","32","-1","-1","0","-10","[]","0","3&age=8&participant_ID=5&order=1","3","186","5","3","lose","go","0"
"pit-trial","167","811256","0.0-167.0","battery-v0.2","b","elianto","#d1e6df","-1","-1","-1","1","+10","[]","0","3&age=8&participant_ID=5&order=1","3","187","6","2","win","no-go","0"
"pit-trial","168","816116","0.0-168.0","battery-v0.2","y","elianto","#d1e6df","32","-1","-1","0","0","[]","0","3&age=8&participant_ID=5&order=1","3","188","2","1","win","go","0"
"pit-trial","169","820977","0.0-169.0","battery-v0.2","z","elianto","#d1e6df","-1","-1","-1","1","0","[]","0","3&age=8&participant_ID=5&order=1","3","189","4","4","lose","no-go","0"
"pit-trial","170","825835","0.0-170.0","battery-v0.2","t","elianto","#d1e6df","-1","-1","-1","1","0","[]","0","3&age=8&participant_ID=5&order=1","3","190","7","4","lose","no-go","0"
"pit-trial","171","830694","0.0-171.0","battery-v0.2","c","elianto","#d1e6df","32","-1","-1","0","0","[]","0","3&age=8&participant_ID=5&order=1","3","191","5","3","lose","go","1"
"pit-trial","172","835552","0.0-172.0","battery-v0.2","b","elianto","#d1e6df","-1","-1","-1","1","+10","[]","0","3&age=8&participant_ID=5&order=1","3","192","6","2","win","no-go","0"
"pit-trial","173","840408","0.0-173.0","battery-v0.2","b","elianto","#d1e6df","-1","-1","-1","1","+10","[]","0","3&age=8&participant_ID=5&order=1","3","193","6","2","win","no-go","0"
"pit-trial","174","845268","0.0-174.0","battery-v0.2","c","elianto","#d1e6df","32","-1","-1","0","-10","[]","0","3&age=8&participant_ID=5&order=1","3","194","5","3","lose","go","0"
"pit-trial","175","850127","0.0-175.0","battery-v0.2","t","elianto","#d1e6df","-1","-1","-1","1","0","[]","0","3&age=8&participant_ID=5&order=1","3","195","7","4","lose","no-go","0"
"pit-trial","176","854986","0.0-176.0","battery-v0.2","z","elianto","#d1e6df","-1","-1","-1","1","0","[]","0","3&age=8&participant_ID=5&order=1","3","196","4","4","lose","no-go","0"
"pit-trial","177","859844","0.0-177.0","battery-v0.2","c","elianto","#d1e6df","32","-1","-1","0","-10","[]","0","3&age=8&participant_ID=5&order=1","3","197","5","3","lose","go","0"
"pit-trial","178","864701","0.0-178.0","battery-v0.2","z","elianto","#d1e6df","-1","-1","-1","1","0","[]","0","3&age=8&participant_ID=5&order=1","3","198","4","4","lose","no-go","0"
"pit-trial","179","869558","0.0-179.0","battery-v0.2","b","elianto","#d1e6df","-1","-1","-1","1","+10","[]","0","3&age=8&participant_ID=5&order=1","3","199","6","2","win","no-go","0"
"pit-trial","180","874417","0.0-180.0","battery-v0.2","t","elianto","#d1e6df","-1","-1","-1","1","0","[]","0","3&age=8&participant_ID=5&order=1","3","200","7","4","lose","no-go","0"
"pit-trial","181","879275","0.0-181.0","battery-v0.2","t","elianto","#d1e6df","-1","-1","-1","1","0","[]","0","3&age=8&participant_ID=5&order=1","3","201","7","4","lose","no-go","0"
"pit-trial","182","884133","0.0-182.0","battery-v0.2","b","elianto","#d1e6df","-1","-1","-1","1","+10","[]","0","3&age=8&participant_ID=5&order=1","3","202","6","2","win","no-go","0"
"pit-trial","183","888992","0.0-183.0","battery-v0.2","z","elianto","#d1e6df","-1","-1","-1","1","0","[]","0","3&age=8&participant_ID=5&order=1","3","203","4","4","lose","no-go","0"
"pit-trial","184","893849","0.0-184.0","battery-v0.2","c","elianto","#d1e6df","32","-1","-1","0","-10","[]","0","3&age=8&participant_ID=5&order=1","3","204","5","3","lose","go","0"
"pit-trial","185","898709","0.0-185.0","battery-v0.2","z","elianto","#d1e6df","-1","-1","-1","1","0","[]","0","3&age=8&participant_ID=5&order=1","3","205","4","4","lose","no-go","0"
"pit-trial","186","903569","0.0-186.0","battery-v0.2","t","elianto","#d1e6df","-1","-1","-1","1","0","[]","0","3&age=8&participant_ID=5&order=1","3","206","7","4","lose","no-go","0"
"pit-trial","187","908429","0.0-187.0","battery-v0.2","b","elianto","#d1e6df","-1","-1","-1","1","+10","[]","0","3&age=8&participant_ID=5&order=1","3","207","6","2","win","no-go","0"
"pit-trial","188","913285","0.0-188.0","battery-v0.2","c","elianto","#d1e6df","32","-1","-1","0","0","[]","0","3&age=8&participant_ID=5&order=1","3","208","5","3","lose","go","1"
"pit-trial","189","918142","0.0-189.0","battery-v0.2","b","elianto","#d1e6df","-1","-1","-1","1","+10","[]","0","3&age=8&participant_ID=5&order=1","3","209","6","2","win","no-go","0"
"pit-trial","190","922998","0.0-190.0","battery-v0.2","z","elianto","#d1e6df","-1","-1","-1","1","0","[]","0","3&age=8&participant_ID=5&order=1","3","210","4","4","lose","no-go","0"
"pit-trial","191","927854","0.0-191.0","battery-v0.2","t","elianto","#d1e6df","-1","-1","-1","1","0","[]","0","3&age=8&participant_ID=5&order=1","3","211","7","4","lose","no-go","0"
"pit-trial","192","932712","0.0-192.0","battery-v0.2","c","elianto","#d1e6df","32","-1","-1","0","0","[]","0","3&age=8&participant_ID=5&order=1","3","212","5","3","lose","go","1"
"pit-trial","193","937572","0.0-193.0","battery-v0.2","c","elianto","#d1e6df","32","-1","-1","0","-10","[]","0","3&age=8&participant_ID=5&order=1","3","213","5","3","lose","go","0"
"pit-trial","194","942434","0.0-194.0","battery-v0.2","t","elianto","#d1e6df","-1","-1","-1","1","0","[]","0","3&age=8&participant_ID=5&order=1","3","214","7","4","lose","no-go","0"
"pit-trial","195","947293","0.0-195.0","battery-v0.2","b","elianto","#d1e6df","-1","-1","-1","1","+10","[]","0","3&age=8&participant_ID=5&order=1","3","215","6","2","win","no-go","0"
"pit-trial","196","952149","0.0-196.0","battery-v0.2","x","elianto","#d1e6df","-1","-1","-1","1","0","[]","0","3&age=8&participant_ID=5&order=1","3","216","8","4","lose","no-go","0"
"pit-trial","197","957007","0.0-197.0","battery-v0.2","c","elianto","#d1e6df","32","-1","-1","0","-10","[]","0","3&age=8&participant_ID=5&order=1","3","217","5","3","lose","go","0"
"pit-trial","198","961864","0.0-198.0","battery-v0.2","x","elianto","#d1e6df","-1","-1","-1","1","-10","[]","0","3&age=8&participant_ID=5&order=1","3","218","8","4","lose","no-go","1"
"pit-trial","199","966719","0.0-199.0","battery-v0.2","b","elianto","#d1e6df","-1","-1","-1","1","0","[]","0","3&age=8&participant_ID=5&order=1","3","219","6","2","win","no-go","1"
"pit-trial","200","971573","0.0-200.0","battery-v0.2","t","elianto","#d1e6df","-1","-1","-1","1","-10","[]","0","3&age=8&participant_ID=5&order=1","3","220","7","4","lose","no-go","1"
"pit-trial","201","976431","0.0-201.0","battery-v0.2","f","elianto","#d1e6df","32","-1","-1","0","+10","[]","0","3&age=8&participant_ID=5&order=1","3","221","9","1","win","go","1"
"pit-trial","202","981286","0.0-202.0","battery-v0.2","x","elianto","#d1e6df","-1","-1","-1","1","0","[]","0","3&age=8&participant_ID=5&order=1","3","222","8","4","lose","no-go","0"
"pit-trial","203","986144","0.0-203.0","battery-v0.2","b","elianto","#d1e6df","-1","-1","-1","1","0","[]","0","3&age=8&participant_ID=5&order=1","3","223","6","2","win","no-go","1"
"pit-trial","204","991001","0.0-204.0","battery-v0.2","n","elianto","#d1e6df","32","-1","-1","0","0","[]","0","3&age=8&participant_ID=5&order=1","3","224","10","3","lose","go","1"
"pit-trial","205","995859","0.0-205.0","battery-v0.2","n","elianto","#d1e6df","32","-1","-1","0","-10","[]","0","3&age=8&participant_ID=5&order=1","3","225","10","3","lose","go","0"
"pit-trial","206","1000718","0.0-206.0","battery-v0.2","f","elianto","#d1e6df","32","-1","-1","0","0","[]","0","3&age=8&participant_ID=5&order=1","3","226","9","1","win","go","0"
"pit-trial","207","1005576","0.0-207.0","battery-v0.2","x","elianto","#d1e6df","-1","-1","-1","1","0","[]","0","3&age=8&participant_ID=5&order=1","3","227","8","4","lose","no-go","0"
"pit-trial","208","1010436","0.0-208.0","battery-v0.2","b","elianto","#d1e6df","-1","-1","-1","1","+10","[]","0","3&age=8&participant_ID=5&order=1","3","228","6","2","win","no-go","0"
"pit-trial","209","1015290","0.0-209.0","battery-v0.2","q","elianto","#d1e6df","32","-1","-1","0","+10","[]","0","3&age=8&participant_ID=5&order=1","3","229","11","1","win","go","1"
"pit-trial","210","1020149","0.0-210.0","battery-v0.2","x","elianto","#d1e6df","-1","-1","-1","1","0","[]","0","3&age=8&participant_ID=5&order=1","3","230","8","4","lose","no-go","0"
"pit-trial","211","1025007","0.0-211.0","battery-v0.2","n","elianto","#d1e6df","32","-1","-1","0","-10","[]","0","3&age=8&participant_ID=5&order=1","3","231","10","3","lose","go","0"
"pit-trial","212","1029869","0.0-212.0","battery-v0.2","f","elianto","#d1e6df","32","-1","-1","0","+10","[]","0","3&age=8&participant_ID=5&order=1","3","232","9","1","win","go","1"
"pit-trial","213","1034726","0.0-213.0","battery-v0.2","f","elianto","#d1e6df","32","-1","-1","0","0","[]","0","3&age=8&participant_ID=5&order=1","3","233","9","1","win","go","0"
"pit-trial","214","1040502","0.0-214.0","battery-v0.2","x","elianto","#d1e6df","-1","-1","-1","1","0","[]","0","3&age=8&participant_ID=5&order=1","3","234","8","4","lose","no-go","0"
"pit-trial","215","1045358","0.0-215.0","battery-v0.2","q","elianto","#d1e6df","32","-1","-1","0","0","[]","0","3&age=8&participant_ID=5&order=1","3","235","11","1","win","go","0"
"pit-trial","216","1050213","0.0-216.0","battery-v0.2","n","elianto","#d1e6df","32","-1","-1","0","-10","[]","0","3&age=8&participant_ID=5&order=1","3","236","10","3","lose","go","0"
"pit-trial","217","1055074","0.0-217.0","battery-v0.2","f","elianto","#d1e6df","32","-1","-1","0","0","[]","0","3&age=8&participant_ID=5&order=1","3","237","9","1","win","go","0"
"pit-trial","218","1059928","0.0-218.0","battery-v0.2","n","elianto","#d1e6df","32","-1","-1","0","-10","[]","0","3&age=8&participant_ID=5&order=1","3","238","10","3","lose","go","0"
"pit-trial","219","1064796","0.0-219.0","battery-v0.2","x","elianto","#d1e6df","-1","-1","-1","1","0","[]","0","3&age=8&participant_ID=5&order=1","3","239","8","4","lose","no-go","0"
"pit-trial","220","1069655","0.0-220.0","battery-v0.2","q","elianto","#d1e6df","32","-1","-1","0","0","[]","0","3&age=8&participant_ID=5&order=1","3","240","11","1","win","go","0"
"pit-trial","221","1074511","0.0-221.0","battery-v0.2","f","elianto","#d1e6df","32","-1","-1","0","0","[]","0","3&age=8&participant_ID=5&order=1","3","241","9","1","win","go","0"
"pit-trial","222","1079372","0.0-222.0","battery-v0.2","q","elianto","#d1e6df","32","-1","-1","0","+10","[]","0","3&age=8&participant_ID=5&order=1","3","242","11","1","win","go","1"
"pit-trial","223","1084234","0.0-223.0","battery-v0.2","n","elianto","#d1e6df","32","-1","-1","0","-10","[]","0","3&age=8&participant_ID=5&order=1","3","243","10","3","lose","go","0"
"pit-trial","224","1089093","0.0-224.0","battery-v0.2","x","elianto","#d1e6df","-1","-1","-1","1","0","[]","0","3&age=8&participant_ID=5&order=1","3","244","8","4","lose","no-go","0"
"pit-trial","225","1093949","0.0-225.0","battery-v0.2","f","elianto","#d1e6df","32","-1","-1","0","0","[]","0","3&age=8&participant_ID=5&order=1","3","245","9","1","win","go","0"
"pit-trial","226","1098802","0.0-226.0","battery-v0.2","n","elianto","#d1e6df","32","-1","-1","0","-10","[]","0","3&age=8&participant_ID=5&order=1","3","246","10","3","lose","go","0"
"pit-trial","227","1103660","0.0-227.0","battery-v0.2","q","elianto","#d1e6df","32","-1","-1","0","0","[]","0","3&age=8&participant_ID=5&order=1","3","247","11","1","win","go","0"
"pit-trial","228","1108521","0.0-228.0","battery-v0.2","x","elianto","#d1e6df","-1","-1","-1","1","0","[]","0","3&age=8&participant_ID=5&order=1","3","248","8","4","lose","no-go","0"
"pit-trial","229","1113377","0.0-229.0","battery-v0.2","x","elianto","#d1e6df","-1","-1","-1","1","0","[]","0","3&age=8&participant_ID=5&order=1","3","249","8","4","lose","no-go","0"
"pit-trial","230","1118237","0.0-230.0","battery-v0.2","q","elianto","#d1e6df","32","-1","-1","0","0","[]","0","3&age=8&participant_ID=5&order=1","3","250","11","1","win","go","0"
"pit-trial","231","1123089","0.0-231.0","battery-v0.2","f","elianto","#d1e6df","32","-1","-1","0","0","[]","0","3&age=8&participant_ID=5&order=1","3","251","9","1","win","go","0"
"pit-trial","232","1127943","0.0-232.0","battery-v0.2","n","elianto","#d1e6df","32","-1","-1","0","0","[]","0","3&age=8&participant_ID=5&order=1","3","252","10","3","lose","go","1"
"pit-trial","233","1132801","0.0-233.0","battery-v0.2","f","elianto","#d1e6df","32","-1","-1","0","+10","[]","0","3&age=8&participant_ID=5&order=1","3","253","9","1","win","go","1"
"pit-trial","234","1137657","0.0-234.0","battery-v0.2","n","elianto","#d1e6df","32","-1","-1","0","-10","[]","0","3&age=8&participant_ID=5&order=1","3","254","10","3","lose","go","0"
"pit-trial","235","1142519","0.0-235.0","battery-v0.2","x","elianto","#d1e6df","-1","-1","-1","1","0","[]","0","3&age=8&participant_ID=5&order=1","3","255","8","4","lose","no-go","0"
"pit-trial","236","1147376","0.0-236.0","battery-v0.2","q","elianto","#d1e6df","32","-1","-1","0","0","[]","0","3&age=8&participant_ID=5&order=1","3","256","11","1","win","go","0"
"pit-trial","237","1152238","0.0-237.0","battery-v0.2","q","elianto","#d1e6df","32","-1","-1","0","0","[]","0","3&age=8&participant_ID=5&order=1","3","257","11","1","win","go","0"
"pit-trial","238","1157099","0.0-238.0","battery-v0.2","n","elianto","#d1e6df","32","-1","-1","0","-10","[]","0","3&age=8&participant_ID=5&order=1","3","258","10","3","lose","go","0"
"pit-trial","239","1161956","0.0-239.0","battery-v0.2","x","elianto","#d1e6df","-1","-1","-1","1","0","[]","0","3&age=8&participant_ID=5&order=1","3","259","8","4","lose","no-go","0"
"pit-trial","240","1166813","0.0-240.0","battery-v0.2","f","elianto","#d1e6df","32","-1","-1","0","0","[]","0","3&age=8&participant_ID=5&order=1","3","260","9","1","win","go","0"
