"trial_type","trial_index","time_elapsed","internal_node_id","task_version","success","view_history","rt","rune","rune_set","hex","correct","choice","accuracy","outcome","keys","total_keys","block","practice","subject","participantId","value","responses","num_errors","sub","trial","stimulus","robot","valence","action","sham"
"pavlovia","0","8","0.0-0.0","battery-v0.2","","","","","","","","","","","","","","","","","","","","","","","","","",""
"fullscreen","1","7700","0.0-1.0","battery-v0.2","true","","","","","","","","","","","","","","","","","","","","","","","","",""
"pit-instructions","2","79370","0.0-2.0-0.0","battery-v0.2","","[{""page_index"":0,""viewing_time"":3127},{""page_index"":1,""viewing_time"":2048},{""page_index"":2,""viewing_time"":3811},{""page_index"":3,""viewing_time"":4427},{""page_index"":4,""viewing_time"":2958},{""page_index"":5,""viewing_time"":1691},{""page_index"":6,""viewing_time"":4500},{""page_index"":7,""viewing_time"":4033},{""page_index"":8,""viewing_time"":8327},{""page_index"":9,""viewing_time"":3546},{""page_index"":10,""viewing_time"":1564},{""page_index"":11,""viewing_time"":1220},{""page_index"":12,""viewing_time"":4822},{""page_index"":13,""viewing_time"":3704},{""page_index"":14,""viewing_time"":5877},{""page_index"":15,""viewing_time"":3846},{""page_index"":16,""viewing_time"":9000},{""page_index"":17,""viewing_time"":3163}]","71664","","","","","","","","","","","","","","","","","","","","","","",""
"pit-trial","3","82797","0.0-2.0-1.0-0.0","battery-v0.2","","","569","&#9776;","elianto","#3366ff99","32","32","1","+10","1422","1","0","1","5c8ec49f692c610001e14eca&order=3&STUDY_ID=61caf6d05e4609be7bf98488","999","","","","","","","","","",""
"pit-trial","4","86174","0.0-2.0-1.0-1.0","battery-v0.2","","","511","&#9776;","elianto","#3366ff99","32","32","1","+10","1366","1","0","1","5c8ec49f692c610001e14eca&order=3&STUDY_ID=61caf6d05e4609be7bf98488","999","","","","","","","","","",""
"pit-trial","5","89597","0.0-2.0-1.0-2.0","battery-v0.2","","","551","&#9776;","elianto","#3366ff99","32","32","1","+10","1405","1","0","1","5c8ec49f692c610001e14eca&order=3&STUDY_ID=61caf6d05e4609be7bf98488","999","","","","","","","","","",""
"pit-trial","6","92991","0.0-2.0-1.0-3.0","battery-v0.2","","","530","&#9776;","elianto","#3366ff99","32","32","1","0","1391","1","0","1","5c8ec49f692c610001e14eca&order=3&STUDY_ID=61caf6d05e4609be7bf98488","999","","","","","","","","","",""
"pit-trial","7","96408","0.0-2.0-1.0-4.0","battery-v0.2","","","542","&#9776;","elianto","#3366ff99","32","32","1","+10","1406","1","0","1","5c8ec49f692c610001e14eca&order=3&STUDY_ID=61caf6d05e4609be7bf98488","999","","","","","","","","","",""
"call-function","8","96409","0.0-2.0-2.0","battery-v0.2","","","","","","","","","","","","","","","","","","","","","","","","","",""
"pit-instructions","9","129557","0.0-2.0-3.0","battery-v0.2","","[{""page_index"":0,""viewing_time"":14011},{""page_index"":1,""viewing_time"":4101},{""page_index"":2,""viewing_time"":11016},{""page_index"":3,""viewing_time"":4019}]","33148","","","","","","","","","","","","","","","","","","","","","","",""
"pit-trial","10","133104","0.0-2.0-4.0-0.0","battery-v0.2","","","680","&#9761;","elianto","#3366ff99","-1","32","0","0","1542","1","0","2","5c8ec49f692c610001e14eca&order=3&STUDY_ID=61caf6d05e4609be7bf98488","999","","","","","","","","","",""
"pit-trial","11","136859","0.0-2.0-4.0-1.0","battery-v0.2","","","898","&#9761;","elianto","#3366ff99","-1","32","0","0","1750","1","0","2","5c8ec49f692c610001e14eca&order=3&STUDY_ID=61caf6d05e4609be7bf98488","999","","","","","","","","","",""
"pit-trial","12","141723","0.0-2.0-4.0-2.0","battery-v0.2","","","-1","&#9761;","elianto","#3366ff99","-1","-1","1","+10","","0","0","2","5c8ec49f692c610001e14eca&order=3&STUDY_ID=61caf6d05e4609be7bf98488","999","","","","","","","","","",""
"pit-trial","13","146578","0.0-2.0-4.0-3.0","battery-v0.2","","","-1","&#9761;","elianto","#3366ff99","-1","-1","1","+10","","0","0","2","5c8ec49f692c610001e14eca&order=3&STUDY_ID=61caf6d05e4609be7bf98488","999","","","","","","","","","",""
"pit-trial","14","151441","0.0-2.0-4.0-4.0","battery-v0.2","","","-1","&#9761;","elianto","#3366ff99","-1","-1","1","0","","0","0","2","5c8ec49f692c610001e14eca&order=3&STUDY_ID=61caf6d05e4609be7bf98488","999","","","","","","","","","",""
"call-function","15","151443","0.0-2.0-5.0","battery-v0.2","","","","","","","","","","","","","","","","","","","","","","","","","",""
"pit-instructions","16","160822","0.0-2.0-6.0","battery-v0.2","","[{""page_index"":0,""viewing_time"":5784},{""page_index"":1,""viewing_time"":3594}]","9378","","","","","","","","","","","","","","","","","","","","","","",""
"pit-trial","17","164304","0.0-2.0-7.0-0.0","battery-v0.2","","","614","&#9826;","elianto","#f73b6a7A","-1","32","0","-10","1473","1","0","3","5c8ec49f692c610001e14eca&order=3&STUDY_ID=61caf6d05e4609be7bf98488","999","","","","","","","","","",""
"pit-trial","18","169159","0.0-2.0-7.0-1.0","battery-v0.2","","","-1","&#9826;","elianto","#f73b6a7A","-1","-1","1","0","","0","0","3","5c8ec49f692c610001e14eca&order=3&STUDY_ID=61caf6d05e4609be7bf98488","999","","","","","","","","","",""
"pit-trial","19","174037","0.0-2.0-7.0-2.0","battery-v0.2","","","-1","&#9826;","elianto","#f73b6a7A","-1","-1","1","-10","","0","0","3","5c8ec49f692c610001e14eca&order=3&STUDY_ID=61caf6d05e4609be7bf98488","999","","","","","","","","","",""
"pit-trial","20","178909","0.0-2.0-7.0-3.0","battery-v0.2","","","-1","&#9826;","elianto","#f73b6a7A","-1","-1","1","0","","0","0","3","5c8ec49f692c610001e14eca&order=3&STUDY_ID=61caf6d05e4609be7bf98488","999","","","","","","","","","",""
"pit-trial","21","183765","0.0-2.0-7.0-4.0","battery-v0.2","","","-1","&#9826;","elianto","#f73b6a7A","-1","-1","1","0","","0","0","3","5c8ec49f692c610001e14eca&order=3&STUDY_ID=61caf6d05e4609be7bf98488","999","","","","","","","","","",""
"call-function","22","183766","0.0-2.0-8.0","battery-v0.2","","","","","","","","","","","","","","","","","","","","","","","","","",""
"pit-instructions","23","192907","0.0-2.0-9.0","battery-v0.2","","[{""page_index"":0,""viewing_time"":5884},{""page_index"":1,""viewing_time"":3256}]","9140","","","","","","","","","","","","","","","","","","","","","","",""
"pit-trial","24","196622","0.0-2.0-10.0-0.0","battery-v0.2","","","851","&#9789;","elianto","#f73b6a7A","32","32","1","0","1703","1","0","4","5c8ec49f692c610001e14eca&order=3&STUDY_ID=61caf6d05e4609be7bf98488","999","","","","","","","","","",""
"pit-trial","25","201486","0.0-2.0-10.0-1.0","battery-v0.2","","","-1","&#9789;","elianto","#f73b6a7A","32","-1","0","-10","","0","0","4","5c8ec49f692c610001e14eca&order=3&STUDY_ID=61caf6d05e4609be7bf98488","999","","","","","","","","","",""
"pit-trial","26","205009","0.0-2.0-10.0-2.0","battery-v0.2","","","660","&#9789;","elianto","#f73b6a7A","32","32","1","0","1517","1","0","4","5c8ec49f692c610001e14eca&order=3&STUDY_ID=61caf6d05e4609be7bf98488","999","","","","","","","","","",""
"pit-trial","27","208453","0.0-2.0-10.0-3.0","battery-v0.2","","","576","&#9789;","elianto","#f73b6a7A","32","32","1","0","1427","1","0","4","5c8ec49f692c610001e14eca&order=3&STUDY_ID=61caf6d05e4609be7bf98488","999","","","","","","","","","",""
"pit-trial","28","211850","0.0-2.0-10.0-4.0","battery-v0.2","","","533","&#9789;","elianto","#f73b6a7A","32","32","1","-10","1392","1","0","4","5c8ec49f692c610001e14eca&order=3&STUDY_ID=61caf6d05e4609be7bf98488","999","","","","","","","","","",""
"call-function","29","211853","0.0-2.0-11.0","battery-v0.2","","","","","","","","","","","","","","","","","","","","","","","","","",""
"pit-instructions","30","241707","0.0-2.0-12.0","battery-v0.2","","[{""page_index"":0,""viewing_time"":4254},{""page_index"":1,""viewing_time"":12620},{""page_index"":2,""viewing_time"":8707},{""page_index"":3,""viewing_time"":2988},{""page_index"":4,""viewing_time"":1284}]","29853","","","","","","","","","","","","","","","","","","","","","","",""
"pit-comprehension","31","247026","0.0-2.0-13.0-0.0","battery-v0.2","","","5317","","","","","","","","","","","","","","","SPACE","0","","","","","","",""
"pit-instructions","32","248143","0.0-2.0-13.0-1.0","battery-v0.2","","[{""page_index"":0,""viewing_time"":1100}]","1100","","","","","","","","","","","","","","","","","","","","","","",""
"pit-comprehension","33","255192","0.0-2.0-14.0-0.0","battery-v0.2","","","7044","","","","","","","","","","","","","","","10","0","","","","","","",""
"pit-instructions","34","256295","0.0-2.0-14.0-1.0","battery-v0.2","","[{""page_index"":0,""viewing_time"":1092}]","1092","","","","","","","","","","","","","","","","","","","","","","",""
"pit-comprehension","35","269530","0.0-2.0-15.0-0.0","battery-v0.2","","","13231","","","","","","","","","","","","","","","0","0","","","","","","",""
"pit-instructions","36","270525","0.0-2.0-15.0-1.0","battery-v0.2","","[{""page_index"":0,""viewing_time"":989}]","989","","","","","","","","","","","","","","","","","","","","","","",""
"pit-comprehension","37","302606","0.0-2.0-16.0-0.0","battery-v0.2","","","32078","","","","","","","","","","","","","","","True","0","","","","","","",""
"pit-instructions","38","303607","0.0-2.0-16.0-1.0","battery-v0.2","","[{""page_index"":0,""viewing_time"":996}]","996","","","","","","","","","","","","","","","","","","","","","","",""
"pit-comprehension","39","309362","0.0-2.0-17.0-0.0","battery-v0.2","","","5753","","","","","","","","","","","","","","","True","0","","","","","","",""
"pit-instructions","40","310146","0.0-2.0-17.0-1.0","battery-v0.2","","[{""page_index"":0,""viewing_time"":770}]","771","","","","","","","","","","","","","","","","","","","","","","",""
"pit-comprehension","41","317451","0.0-2.0-18.0-0.0","battery-v0.2","","","7302","","","","","","","","","","","","","","","True","0","","","","","","",""
"pit-instructions","42","318281","0.0-2.0-18.0-1.0","battery-v0.2","","[{""page_index"":0,""viewing_time"":817}]","817","","","","","","","","","","","","","","","","","","","","","","",""
"pit-instructions","43","329398","0.0-3.0","battery-v0.2","","[{""page_index"":0,""viewing_time"":4438},{""page_index"":1,""viewing_time"":4495},{""page_index"":2,""viewing_time"":2182}]","11116","","","","","","","","","","","","","","","","","","","","","","",""
"pit-trial","44","332873","0.0-4.0","battery-v0.2","","","615","&#9733;","elianto","#3366ff99","-1","32","0","0","1466","1","1","","","","","","","5c8ec49f692c610001e14eca&order=3&STUDY_ID=61caf6d05e4609be7bf98488","1","2","2","win","no-go","0"
"pit-trial","45","336986","0.0-5.0","battery-v0.2","","","1258","&#9728;","elianto","#f73b6a7A","-1","32","0","-10","2112","1","1","","","","","","","5c8ec49f692c610001e14eca&order=3&STUDY_ID=61caf6d05e4609be7bf98488","2","0","4","lose","no-go","0"
"pit-trial","46","341848","0.0-6.0","battery-v0.2","","","-1","&#9752;","elianto","#f73b6a7A","32","-1","0","-10","","0","1","","","","","","","5c8ec49f692c610001e14eca&order=3&STUDY_ID=61caf6d05e4609be7bf98488","3","3","3","lose","go","0"
"pit-trial","47","345633","0.0-7.0","battery-v0.2","","","925","&#9730;","elianto","#3366ff99","32","32","1","+10","1774","1","1","","","","","","","5c8ec49f692c610001e14eca&order=3&STUDY_ID=61caf6d05e4609be7bf98488","4","1","1","win","go","0"
"pit-trial","48","350505","0.0-8.0","battery-v0.2","","","-1","&#9733;","elianto","#3366ff99","-1","-1","1","0","","0","1","","","","","","","5c8ec49f692c610001e14eca&order=3&STUDY_ID=61caf6d05e4609be7bf98488","5","2","2","win","no-go","1"
"pit-trial","49","354177","0.0-9.0","battery-v0.2","","","805","&#9752;","elianto","#f73b6a7A","32","32","1","0","1669","1","1","","","","","","","5c8ec49f692c610001e14eca&order=3&STUDY_ID=61caf6d05e4609be7bf98488","6","3","3","lose","go","0"
"pit-trial","50","358333","0.0-10.0","battery-v0.2","","","1292","&#9728;","elianto","#f73b6a7A","-1","32","0","-10","2144","1","1","","","","","","","5c8ec49f692c610001e14eca&order=3&STUDY_ID=61caf6d05e4609be7bf98488","7","0","4","lose","no-go","0"
"pit-trial","51","362085","0.0-11.0","battery-v0.2","","","875","&#9730;","elianto","#3366ff99","32","32","1","+10","1740","1","1","","","","","","","5c8ec49f692c610001e14eca&order=3&STUDY_ID=61caf6d05e4609be7bf98488","8","1","1","win","go","0"
"pit-trial","52","365778","0.0-12.0","battery-v0.2","","","813","&#9752;","elianto","#f73b6a7A","32","32","1","0","1677","1","1","","","","","","","5c8ec49f692c610001e14eca&order=3&STUDY_ID=61caf6d05e4609be7bf98488","9","3","3","lose","go","0"
"pit-trial","53","370636","0.0-13.0","battery-v0.2","","","-1","&#9728;","elianto","#f73b6a7A","-1","-1","1","0","","0","1","","","","","","","5c8ec49f692c610001e14eca&order=3&STUDY_ID=61caf6d05e4609be7bf98488","10","0","4","lose","no-go","0"
"pit-trial","54","374275","0.0-14.0","battery-v0.2","","","770","&#9730;","elianto","#3366ff99","32","32","1","+10","1623","1","1","","","","","","","5c8ec49f692c610001e14eca&order=3&STUDY_ID=61caf6d05e4609be7bf98488","11","1","1","win","go","0"
"pit-trial","55","379138","0.0-15.0","battery-v0.2","","","-1","&#9733;","elianto","#3366ff99","-1","-1","1","0","","0","1","","","","","","","5c8ec49f692c610001e14eca&order=3&STUDY_ID=61caf6d05e4609be7bf98488","12","2","2","win","no-go","1"
"pit-trial","56","382931","0.0-16.0","battery-v0.2","","","916","&#9730;","elianto","#3366ff99","32","32","1","+10","1781","1","1","","","","","","","5c8ec49f692c610001e14eca&order=3&STUDY_ID=61caf6d05e4609be7bf98488","13","1","1","win","go","0"
"pit-trial","57","387804","0.0-17.0","battery-v0.2","","","-1","&#9728;","elianto","#f73b6a7A","-1","-1","1","0","","0","1","","","","","","","5c8ec49f692c610001e14eca&order=3&STUDY_ID=61caf6d05e4609be7bf98488","14","0","4","lose","no-go","0"
"pit-trial","58","391434","0.0-18.0","battery-v0.2","","","758","&#9752;","elianto","#f73b6a7A","32","32","1","0","1615","1","1","","","","","","","5c8ec49f692c610001e14eca&order=3&STUDY_ID=61caf6d05e4609be7bf98488","15","3","3","lose","go","0"
"pit-trial","59","395144","0.0-19.0","battery-v0.2","","","846","&#9733;","elianto","#3366ff99","-1","32","0","0","1702","1","1","","","","","","","5c8ec49f692c610001e14eca&order=3&STUDY_ID=61caf6d05e4609be7bf98488","16","2","2","win","no-go","0"
"pit-trial","60","400007","0.0-20.0","battery-v0.2","","","-1","&#9733;","elianto","#3366ff99","-1","-1","1","0","","0","1","","","","","","","5c8ec49f692c610001e14eca&order=3&STUDY_ID=61caf6d05e4609be7bf98488","17","2","2","win","no-go","1"
"pit-trial","61","404048","0.0-21.0","battery-v0.2","","","1171","&#9730;","elianto","#3366ff99","32","32","1","+10","2029","1","1","","","","","","","5c8ec49f692c610001e14eca&order=3&STUDY_ID=61caf6d05e4609be7bf98488","18","1","1","win","go","0"
"pit-trial","62","407742","0.0-22.0","battery-v0.2","","","831","&#9752;","elianto","#f73b6a7A","32","32","1","-10","1682","1","1","","","","","","","5c8ec49f692c610001e14eca&order=3&STUDY_ID=61caf6d05e4609be7bf98488","19","3","3","lose","go","1"
"pit-trial","63","412605","0.0-23.0","battery-v0.2","","","-1","&#9728;","elianto","#f73b6a7A","-1","-1","1","0","","0","1","","","","","","","5c8ec49f692c610001e14eca&order=3&STUDY_ID=61caf6d05e4609be7bf98488","20","0","4","lose","no-go","0"
"pit-instructions","64","418451","0.0-24.0","battery-v0.2","","[{""page_index"":0,""viewing_time"":3905},{""page_index"":1,""viewing_time"":1937}]","5842","","","","","","","","","","","","","","","","","","","","","","",""
"pit-trial","65","422190","0.0-25.0","battery-v0.2","","","872","g","elianto","#3366ff99","32","32","1","+10","1732","1","2","","","","","","","5c8ec49f692c610001e14eca&order=3&STUDY_ID=61caf6d05e4609be7bf98488","21","3","1","win","go","0"
"pit-trial","66","427065","0.0-26.0","battery-v0.2","","","-1","a","elianto","#f73b6a7A","-1","-1","1","0","","0","2","","","","","","","5c8ec49f692c610001e14eca&order=3&STUDY_ID=61caf6d05e4609be7bf98488","22","2","4","lose","no-go","0"
"pit-trial","67","431401","0.0-27.0","battery-v0.2","","","1466","u","elianto","#3366ff99","-1","32","0","+10","2325","1","2","","","","","","","5c8ec49f692c610001e14eca&order=3&STUDY_ID=61caf6d05e4609be7bf98488","23","0","2","win","no-go","1"
"pit-trial","68","435533","0.0-28.0","battery-v0.2","","","1269","l","elianto","#f73b6a7A","32","32","1","0","2120","1","2","","","","","","","5c8ec49f692c610001e14eca&order=3&STUDY_ID=61caf6d05e4609be7bf98488","24","1","3","lose","go","0"
"pit-trial","69","439342","0.0-29.0","battery-v0.2","","","933","l","elianto","#f73b6a7A","32","32","1","0","1796","1","2","","","","","","","5c8ec49f692c610001e14eca&order=3&STUDY_ID=61caf6d05e4609be7bf98488","25","1","3","lose","go","0"
"pit-trial","70","444210","0.0-30.0","battery-v0.2","","","-1","a","elianto","#f73b6a7A","-1","-1","1","0","","0","2","","","","","","","5c8ec49f692c610001e14eca&order=3&STUDY_ID=61caf6d05e4609be7bf98488","26","2","4","lose","no-go","0"
"pit-trial","71","447780","0.0-31.0","battery-v0.2","","","695","g","elianto","#3366ff99","32","32","1","+10","1555","1","2","","","","","","","5c8ec49f692c610001e14eca&order=3&STUDY_ID=61caf6d05e4609be7bf98488","27","3","1","win","go","0"
"pit-trial","72","451320","0.0-32.0","battery-v0.2","","","660","u","elianto","#3366ff99","-1","32","0","0","1520","1","2","","","","","","","5c8ec49f692c610001e14eca&order=3&STUDY_ID=61caf6d05e4609be7bf98488","28","0","2","win","no-go","0"
"pit-trial","73","456188","0.0-33.0","battery-v0.2","","","-1","u","elianto","#3366ff99","-1","-1","1","+10","","0","2","","","","","","","5c8ec49f692c610001e14eca&order=3&STUDY_ID=61caf6d05e4609be7bf98488","29","0","2","win","no-go","0"
"pit-trial","74","460024","0.0-34.0","battery-v0.2","","","956","g","elianto","#3366ff99","32","32","1","+10","1822","1","2","","","","","","","5c8ec49f692c610001e14eca&order=3&STUDY_ID=61caf6d05e4609be7bf98488","30","3","1","win","go","0"
"pit-trial","75","463977","0.0-35.0","battery-v0.2","","","1086","a","elianto","#f73b6a7A","-1","32","0","-10","1943","1","2","","","","","","","5c8ec49f692c610001e14eca&order=3&STUDY_ID=61caf6d05e4609be7bf98488","31","2","4","lose","no-go","0"
"pit-trial","76","468115","0.0-36.0","battery-v0.2","","","1271","l","elianto","#f73b6a7A","32","32","1","0","2129","1","2","","","","","","","5c8ec49f692c610001e14eca&order=3&STUDY_ID=61caf6d05e4609be7bf98488","32","1","3","lose","go","0"
"pit-trial","77","471997","0.0-37.0","battery-v0.2","","","1016","g","elianto","#3366ff99","32","32","1","+10","1873","1","2","","","","","","","5c8ec49f692c610001e14eca&order=3&STUDY_ID=61caf6d05e4609be7bf98488","33","3","1","win","go","0"
"pit-trial","78","476861","0.0-38.0","battery-v0.2","","","-1","a","elianto","#f73b6a7A","-1","-1","1","0","","0","2","","","","","","","5c8ec49f692c610001e14eca&order=3&STUDY_ID=61caf6d05e4609be7bf98488","34","2","4","lose","no-go","0"
"pit-trial","79","481740","0.0-39.0","battery-v0.2","","","-1","u","elianto","#3366ff99","-1","-1","1","+10","","0","2","","","","","","","5c8ec49f692c610001e14eca&order=3&STUDY_ID=61caf6d05e4609be7bf98488","35","0","2","win","no-go","0"
"pit-trial","80","485345","0.0-40.0","battery-v0.2","","","743","l","elianto","#f73b6a7A","32","32","1","0","1594","1","2","","","","","","","5c8ec49f692c610001e14eca&order=3&STUDY_ID=61caf6d05e4609be7bf98488","36","1","3","lose","go","0"
"pit-trial","81","490219","0.0-41.0","battery-v0.2","","","-1","u","elianto","#3366ff99","-1","-1","1","+10","","0","2","","","","","","","5c8ec49f692c610001e14eca&order=3&STUDY_ID=61caf6d05e4609be7bf98488","37","0","2","win","no-go","0"
"pit-trial","82","494071","0.0-42.0","battery-v0.2","","","993","l","elianto","#f73b6a7A","32","32","1","-10","1847","1","2","","","","","","","5c8ec49f692c610001e14eca&order=3&STUDY_ID=61caf6d05e4609be7bf98488","38","1","3","lose","go","1"
"pit-trial","83","498943","0.0-43.0","battery-v0.2","","","-1","a","elianto","#f73b6a7A","-1","-1","1","0","","0","2","","","","","","","5c8ec49f692c610001e14eca&order=3&STUDY_ID=61caf6d05e4609be7bf98488","39","2","4","lose","no-go","0"
"pit-trial","84","502467","0.0-44.0","battery-v0.2","","","651","g","elianto","#3366ff99","32","32","1","+10","1509","1","2","","","","","","","5c8ec49f692c610001e14eca&order=3&STUDY_ID=61caf6d05e4609be7bf98488","40","3","1","win","go","0"
"pit-trial","85","507346","0.0-45.0","battery-v0.2","","","-1","a","elianto","#f73b6a7A","-1","-1","1","0","","0","2","","","","","","","5c8ec49f692c610001e14eca&order=3&STUDY_ID=61caf6d05e4609be7bf98488","41","2","4","lose","no-go","0"
"pit-trial","86","510906","0.0-46.0","battery-v0.2","","","696","g","elianto","#3366ff99","32","32","1","+10","1559","1","2","","","","","","","5c8ec49f692c610001e14eca&order=3&STUDY_ID=61caf6d05e4609be7bf98488","42","3","1","win","go","0"
"pit-trial","87","514439","0.0-47.0","battery-v0.2","","","659","l","elianto","#f73b6a7A","32","32","1","0","1518","1","2","","","","","","","5c8ec49f692c610001e14eca&order=3&STUDY_ID=61caf6d05e4609be7bf98488","43","1","3","lose","go","0"
"pit-trial","88","519298","0.0-48.0","battery-v0.2","","","-1","u","elianto","#3366ff99","-1","-1","1","0","","0","2","","","","","","","5c8ec49f692c610001e14eca&order=3&STUDY_ID=61caf6d05e4609be7bf98488","44","0","2","win","no-go","1"
"pit-trial","89","524173","0.0-49.0","battery-v0.2","","","-1","a","elianto","#f73b6a7A","-1","-1","1","0","","0","2","","","","","","","5c8ec49f692c610001e14eca&order=3&STUDY_ID=61caf6d05e4609be7bf98488","45","2","4","lose","no-go","0"
"pit-trial","90","527914","0.0-50.0","battery-v0.2","","","867","l","elianto","#f73b6a7A","32","32","1","0","1724","1","2","","","","","","","5c8ec49f692c610001e14eca&order=3&STUDY_ID=61caf6d05e4609be7bf98488","46","1","3","lose","go","0"
"pit-trial","91","532784","0.0-51.0","battery-v0.2","","","-1","u","elianto","#3366ff99","-1","-1","1","+10","","0","2","","","","","","","5c8ec49f692c610001e14eca&order=3&STUDY_ID=61caf6d05e4609be7bf98488","47","0","2","win","no-go","0"
"pit-trial","92","536415","0.0-52.0","battery-v0.2","","","774","g","elianto","#3366ff99","32","32","1","+10","1627","1","2","","","","","","","5c8ec49f692c610001e14eca&order=3&STUDY_ID=61caf6d05e4609be7bf98488","48","3","1","win","go","0"
"pit-trial","93","540632","0.0-53.0","battery-v0.2","","","1336","g","elianto","#3366ff99","32","32","1","+10","2201","1","2","","","","","","","5c8ec49f692c610001e14eca&order=3&STUDY_ID=61caf6d05e4609be7bf98488","49","3","1","win","go","0"
"pit-trial","94","544356","0.0-54.0","battery-v0.2","","","853","l","elianto","#f73b6a7A","32","32","1","0","1716","1","2","","","","","","","5c8ec49f692c610001e14eca&order=3&STUDY_ID=61caf6d05e4609be7bf98488","50","1","3","lose","go","0"
"pit-trial","95","549219","0.0-55.0","battery-v0.2","","","-1","u","elianto","#3366ff99","-1","-1","1","+10","","0","2","","","","","","","5c8ec49f692c610001e14eca&order=3&STUDY_ID=61caf6d05e4609be7bf98488","51","0","2","win","no-go","0"
"pit-trial","96","554085","0.0-56.0","battery-v0.2","","","-1","a","elianto","#f73b6a7A","-1","-1","1","0","","0","2","","","","","","","5c8ec49f692c610001e14eca&order=3&STUDY_ID=61caf6d05e4609be7bf98488","52","2","4","lose","no-go","0"
"pit-trial","97","558957","0.0-57.0","battery-v0.2","","","-1","s","elianto","#f73b6a7A","-1","-1","1","0","","0","2","","","","","","","5c8ec49f692c610001e14eca&order=3&STUDY_ID=61caf6d05e4609be7bf98488","53","5","4","lose","no-go","0"
"pit-trial","98","563828","0.0-58.0","battery-v0.2","","","-1","a","elianto","#f73b6a7A","-1","-1","1","0","","0","2","","","","","","","5c8ec49f692c610001e14eca&order=3&STUDY_ID=61caf6d05e4609be7bf98488","54","2","4","lose","no-go","0"
"pit-trial","99","568280","0.0-59.0","battery-v0.2","","","1576","p","elianto","#f73b6a7A","32","32","1","0","2439","1","2","","","","","","","5c8ec49f692c610001e14eca&order=3&STUDY_ID=61caf6d05e4609be7bf98488","55","4","3","lose","go","0"
"pit-trial","100","572331","0.0-60.0","battery-v0.2","","","1172","l","elianto","#f73b6a7A","32","32","1","0","2035","1","2","","","","","","","5c8ec49f692c610001e14eca&order=3&STUDY_ID=61caf6d05e4609be7bf98488","56","1","3","lose","go","0"
"pit-trial","101","577107","0.0-61.0","battery-v0.2","","","1911","s","elianto","#f73b6a7A","-1","32","0","-10","2764","1","2","","","","","","","5c8ec49f692c610001e14eca&order=3&STUDY_ID=61caf6d05e4609be7bf98488","57","5","4","lose","no-go","0"
"pit-trial","102","581976","0.0-62.0","battery-v0.2","","","-1","a","elianto","#f73b6a7A","-1","-1","1","-10","","0","2","","","","","","","5c8ec49f692c610001e14eca&order=3&STUDY_ID=61caf6d05e4609be7bf98488","58","2","4","lose","no-go","1"
"pit-trial","103","586835","0.0-63.0","battery-v0.2","","","-1","p","elianto","#f73b6a7A","32","-1","0","-10","2941","1","2","","","","","","","5c8ec49f692c610001e14eca&order=3&STUDY_ID=61caf6d05e4609be7bf98488","59","4","3","lose","go","0"
"pit-trial","104","590519","0.0-64.0","battery-v0.2","","","823","l","elianto","#f73b6a7A","32","32","1","0","1679","1","2","","","","","","","5c8ec49f692c610001e14eca&order=3&STUDY_ID=61caf6d05e4609be7bf98488","60","1","3","lose","go","0"
"pit-trial","105","595386","0.0-65.0","battery-v0.2","","","-1","a","elianto","#f73b6a7A","-1","-1","1","0","","0","2","","","","","","","5c8ec49f692c610001e14eca&order=3&STUDY_ID=61caf6d05e4609be7bf98488","61","2","4","lose","no-go","0"
"pit-trial","106","600258","0.0-66.0","battery-v0.2","","","-1","s","elianto","#f73b6a7A","-1","-1","1","0","","0","2","","","","","","","5c8ec49f692c610001e14eca&order=3&STUDY_ID=61caf6d05e4609be7bf98488","62","5","4","lose","no-go","0"
"pit-trial","107","604260","0.0-67.0","battery-v0.2","","","1122","w","elianto","#3366ff99","-1","32","0","0","1985","1","2","","","","","","","5c8ec49f692c610001e14eca&order=3&STUDY_ID=61caf6d05e4609be7bf98488","63","6","2","win","no-go","0"
"pit-trial","108","609123","0.0-68.0","battery-v0.2","","","-1","p","elianto","#f73b6a7A","32","-1","0","-10","","0","2","","","","","","","5c8ec49f692c610001e14eca&order=3&STUDY_ID=61caf6d05e4609be7bf98488","64","4","3","lose","go","0"
"pit-trial","109","613991","0.0-69.0","battery-v0.2","","","-1","s","elianto","#f73b6a7A","-1","-1","1","0","","0","2","","","","","","","5c8ec49f692c610001e14eca&order=3&STUDY_ID=61caf6d05e4609be7bf98488","65","5","4","lose","no-go","0"
"pit-trial","110","617933","0.0-70.0","battery-v0.2","","","1072","p","elianto","#f73b6a7A","32","32","1","0","1931","1","2","","","","","","","5c8ec49f692c610001e14eca&order=3&STUDY_ID=61caf6d05e4609be7bf98488","66","4","3","lose","go","0"
"pit-trial","111","622797","0.0-71.0","battery-v0.2","","","-1","a","elianto","#f73b6a7A","-1","-1","1","-10","","0","2","","","","","","","5c8ec49f692c610001e14eca&order=3&STUDY_ID=61caf6d05e4609be7bf98488","67","2","4","lose","no-go","1"
"pit-trial","112","627661","0.0-72.0","battery-v0.2","","","-1","w","elianto","#3366ff99","-1","-1","1","+10","","0","2","","","","","","","5c8ec49f692c610001e14eca&order=3&STUDY_ID=61caf6d05e4609be7bf98488","68","6","2","win","no-go","0"
"pit-trial","113","631993","0.0-73.0","battery-v0.2","","","1474","e","elianto","#3366ff99","32","32","1","+10","2330","1","2","","","","","","","5c8ec49f692c610001e14eca&order=3&STUDY_ID=61caf6d05e4609be7bf98488","69","7","1","win","go","0"
"pit-trial","114","635720","0.0-74.0","battery-v0.2","","","857","p","elianto","#f73b6a7A","32","32","1","0","1718","1","2","","","","","","","5c8ec49f692c610001e14eca&order=3&STUDY_ID=61caf6d05e4609be7bf98488","70","4","3","lose","go","0"
"pit-trial","115","640587","0.0-75.0","battery-v0.2","","","-1","s","elianto","#f73b6a7A","-1","-1","1","-10","","0","2","","","","","","","5c8ec49f692c610001e14eca&order=3&STUDY_ID=61caf6d05e4609be7bf98488","71","5","4","lose","no-go","1"
"pit-trial","116","645454","0.0-76.0","battery-v0.2","","","-1","w","elianto","#3366ff99","-1","-1","1","+10","","0","2","","","","","","","5c8ec49f692c610001e14eca&order=3&STUDY_ID=61caf6d05e4609be7bf98488","72","6","2","win","no-go","0"
"pit-trial","117","649310","0.0-77.0","battery-v0.2","","","983","s","elianto","#f73b6a7A","-1","32","0","-10","1843","1","2","","","","","","","5c8ec49f692c610001e14eca&order=3&STUDY_ID=61caf6d05e4609be7bf98488","73","5","4","lose","no-go","0"
"pit-trial","118","653548","0.0-78.0","battery-v0.2","","","1370","p","elianto","#f73b6a7A","32","32","1","0","2230","1","2","","","","","","","5c8ec49f692c610001e14eca&order=3&STUDY_ID=61caf6d05e4609be7bf98488","74","4","3","lose","go","0"
"pit-trial","119","658404","0.0-79.0","battery-v0.2","","","-1","w","elianto","#3366ff99","-1","-1","1","0","","0","2","","","","","","","5c8ec49f692c610001e14eca&order=3&STUDY_ID=61caf6d05e4609be7bf98488","75","6","2","win","no-go","1"
"pit-trial","120","662812","0.0-80.0","battery-v0.2","","","1535","e","elianto","#3366ff99","32","32","1","+10","2395","1","2","","","","","","","5c8ec49f692c610001e14eca&order=3&STUDY_ID=61caf6d05e4609be7bf98488","76","7","1","win","go","0"
"pit-trial","121","666402","0.0-81.0","battery-v0.2","","","722","e","elianto","#3366ff99","32","32","1","+10","1586","1","2","","","","","","","5c8ec49f692c610001e14eca&order=3&STUDY_ID=61caf6d05e4609be7bf98488","77","7","1","win","go","0"
"pit-trial","122","670596","0.0-82.0","battery-v0.2","","","1332","s","elianto","#f73b6a7A","-1","32","0","-10","2186","1","2","","","","","","","5c8ec49f692c610001e14eca&order=3&STUDY_ID=61caf6d05e4609be7bf98488","78","5","4","lose","no-go","0"
"pit-trial","123","674264","0.0-83.0","battery-v0.2","","","802","p","elianto","#f73b6a7A","32","32","1","0","1662","1","2","","","","","","","5c8ec49f692c610001e14eca&order=3&STUDY_ID=61caf6d05e4609be7bf98488","79","4","3","lose","go","0"
"pit-trial","124","677892","0.0-84.0","battery-v0.2","","","758","w","elianto","#3366ff99","-1","32","0","0","1621","1","2","","","","","","","5c8ec49f692c610001e14eca&order=3&STUDY_ID=61caf6d05e4609be7bf98488","80","6","2","win","no-go","0"
"pit-trial","125","681505","0.0-85.0","battery-v0.2","","","741","e","elianto","#3366ff99","32","32","1","0","1600","1","2","","","","","","","5c8ec49f692c610001e14eca&order=3&STUDY_ID=61caf6d05e4609be7bf98488","81","7","1","win","go","1"
"pit-trial","126","685435","0.0-86.0","battery-v0.2","","","1058","p","elianto","#f73b6a7A","32","32","1","-10","1914","1","2","","","","","","","5c8ec49f692c610001e14eca&order=3&STUDY_ID=61caf6d05e4609be7bf98488","82","4","3","lose","go","1"
"pit-trial","127","690310","0.0-87.0","battery-v0.2","","","-1","w","elianto","#3366ff99","-1","-1","1","+10","","0","2","","","","","","","5c8ec49f692c610001e14eca&order=3&STUDY_ID=61caf6d05e4609be7bf98488","83","6","2","win","no-go","0"
"pit-trial","128","695185","0.0-88.0","battery-v0.2","","","-1","s","elianto","#f73b6a7A","-1","-1","1","0","","0","2","","","","","","","5c8ec49f692c610001e14eca&order=3&STUDY_ID=61caf6d05e4609be7bf98488","84","5","4","lose","no-go","0"
"pit-trial","129","698849","0.0-89.0","battery-v0.2","","","798","p","elianto","#f73b6a7A","32","32","1","0","1653","1","2","","","","","","","5c8ec49f692c610001e14eca&order=3&STUDY_ID=61caf6d05e4609be7bf98488","85","4","3","lose","go","0"
"pit-trial","130","703718","0.0-90.0","battery-v0.2","","","-1","w","elianto","#3366ff99","-1","-1","1","+10","","0","2","","","","","","","5c8ec49f692c610001e14eca&order=3&STUDY_ID=61caf6d05e4609be7bf98488","86","6","2","win","no-go","0"
"pit-trial","131","707646","0.0-91.0","battery-v0.2","","","1058","e","elianto","#3366ff99","32","32","1","0","1914","1","2","","","","","","","5c8ec49f692c610001e14eca&order=3&STUDY_ID=61caf6d05e4609be7bf98488","87","7","1","win","go","1"
"pit-trial","132","712514","0.0-92.0","battery-v0.2","","","-1","s","elianto","#f73b6a7A","-1","-1","1","0","","0","2","","","","","","","5c8ec49f692c610001e14eca&order=3&STUDY_ID=61caf6d05e4609be7bf98488","88","5","4","lose","no-go","0"
"pit-trial","133","717393","0.0-93.0","battery-v0.2","","","-1","w","elianto","#3366ff99","-1","-1","1","+10","","0","2","","","","","","","5c8ec49f692c610001e14eca&order=3&STUDY_ID=61caf6d05e4609be7bf98488","89","6","2","win","no-go","0"
"pit-trial","134","721561","0.0-94.0","battery-v0.2","","","1310","e","elianto","#3366ff99","32","32","1","+10","2160","1","2","","","","","","","5c8ec49f692c610001e14eca&order=3&STUDY_ID=61caf6d05e4609be7bf98488","90","7","1","win","go","0"
"pit-trial","135","725484","0.0-95.0","battery-v0.2","","","1053","p","elianto","#f73b6a7A","32","32","1","0","1916","1","2","","","","","","","5c8ec49f692c610001e14eca&order=3&STUDY_ID=61caf6d05e4609be7bf98488","91","4","3","lose","go","0"
"pit-trial","136","730360","0.0-96.0","battery-v0.2","","","-1","s","elianto","#f73b6a7A","-1","-1","1","0","","0","2","","","","","","","5c8ec49f692c610001e14eca&order=3&STUDY_ID=61caf6d05e4609be7bf98488","92","5","4","lose","no-go","0"
"pit-trial","137","734701","0.0-97.0","battery-v0.2","","","1479","k","elianto","#3366ff99","32","32","1","+10","2336","1","2","","","","","","","5c8ec49f692c610001e14eca&order=3&STUDY_ID=61caf6d05e4609be7bf98488","93","8","1","win","go","0"
"pit-trial","138","739576","0.0-98.0","battery-v0.2","","","-1","w","elianto","#3366ff99","-1","-1","1","0","","0","2","","","","","","","5c8ec49f692c610001e14eca&order=3&STUDY_ID=61caf6d05e4609be7bf98488","94","6","2","win","no-go","1"
"pit-trial","139","743249","0.0-99.0","battery-v0.2","","","805","e","elianto","#3366ff99","32","32","1","+10","1664","1","2","","","","","","","5c8ec49f692c610001e14eca&order=3&STUDY_ID=61caf6d05e4609be7bf98488","95","7","1","win","go","0"
"pit-trial","140","747113","0.0-100.0","battery-v0.2","","","999","p","elianto","#f73b6a7A","32","32","1","-10","1853","1","2","","","","","","","5c8ec49f692c610001e14eca&order=3&STUDY_ID=61caf6d05e4609be7bf98488","96","4","3","lose","go","1"
"pit-trial","141","750711","0.0-101.0","battery-v0.2","","","735","e","elianto","#3366ff99","32","32","1","+10","1593","1","2","","","","","","","5c8ec49f692c610001e14eca&order=3&STUDY_ID=61caf6d05e4609be7bf98488","97","7","1","win","go","0"
"pit-trial","142","754382","0.0-102.0","battery-v0.2","","","800","p","elianto","#f73b6a7A","32","32","1","0","1656","1","2","","","","","","","5c8ec49f692c610001e14eca&order=3&STUDY_ID=61caf6d05e4609be7bf98488","98","4","3","lose","go","0"
"pit-trial","143","758139","0.0-103.0","battery-v0.2","","","885","k","elianto","#3366ff99","32","32","1","+10","1746","1","2","","","","","","","5c8ec49f692c610001e14eca&order=3&STUDY_ID=61caf6d05e4609be7bf98488","99","8","1","win","go","0"
"pit-trial","144","763000","0.0-104.0","battery-v0.2","","","-1","w","elianto","#3366ff99","-1","-1","1","0","","0","2","","","","","","","5c8ec49f692c610001e14eca&order=3&STUDY_ID=61caf6d05e4609be7bf98488","100","6","2","win","no-go","1"
"pit-trial","145","766625","0.0-105.0","battery-v0.2","","","747","k","elianto","#3366ff99","32","32","1","0","1611","1","2","","","","","","","5c8ec49f692c610001e14eca&order=3&STUDY_ID=61caf6d05e4609be7bf98488","101","8","1","win","go","1"
"pit-trial","146","771500","0.0-106.0","battery-v0.2","","","-1","d","elianto","#3366ff99","-1","-1","1","+10","","0","2","","","","","","","5c8ec49f692c610001e14eca&order=3&STUDY_ID=61caf6d05e4609be7bf98488","102","9","2","win","no-go","0"
"pit-trial","147","775168","0.0-107.0","battery-v0.2","","","792","e","elianto","#3366ff99","32","32","1","+10","1655","1","2","","","","","","","5c8ec49f692c610001e14eca&order=3&STUDY_ID=61caf6d05e4609be7bf98488","103","7","1","win","go","0"
"pit-trial","148","780025","0.0-108.0","battery-v0.2","","","-1","w","elianto","#3366ff99","-1","-1","1","+10","","0","2","","","","","","","5c8ec49f692c610001e14eca&order=3&STUDY_ID=61caf6d05e4609be7bf98488","104","6","2","win","no-go","0"
"pit-trial","149","783927","0.0-109.0","battery-v0.2","","","1045","k","elianto","#3366ff99","32","32","1","+10","1897","1","2","","","","","","","5c8ec49f692c610001e14eca&order=3&STUDY_ID=61caf6d05e4609be7bf98488","105","8","1","win","go","0"
"pit-trial","150","788797","0.0-110.0","battery-v0.2","","","-1","w","elianto","#3366ff99","-1","-1","1","+10","","0","2","","","","","","","5c8ec49f692c610001e14eca&order=3&STUDY_ID=61caf6d05e4609be7bf98488","106","6","2","win","no-go","0"
"pit-trial","151","792621","0.0-111.0","battery-v0.2","","","952","d","elianto","#3366ff99","-1","32","0","0","1812","1","2","","","","","","","5c8ec49f692c610001e14eca&order=3&STUDY_ID=61caf6d05e4609be7bf98488","107","9","2","win","no-go","0"
"pit-trial","152","796575","0.0-112.0","battery-v0.2","","","1081","e","elianto","#3366ff99","32","32","1","+10","1941","1","2","","","","","","","5c8ec49f692c610001e14eca&order=3&STUDY_ID=61caf6d05e4609be7bf98488","108","7","1","win","go","0"
"pit-trial","153","800683","0.0-113.0","battery-v0.2","","","1245","k","elianto","#3366ff99","32","32","1","+10","2106","1","2","","","","","","","5c8ec49f692c610001e14eca&order=3&STUDY_ID=61caf6d05e4609be7bf98488","109","8","1","win","go","0"
"pit-trial","154","805547","0.0-114.0","battery-v0.2","","","-1","v","elianto","#f73b6a7A","-1","-1","1","0","","0","2","","","","","","","5c8ec49f692c610001e14eca&order=3&STUDY_ID=61caf6d05e4609be7bf98488","110","11","4","lose","no-go","0"
"pit-trial","155","809940","0.0-115.0","battery-v0.2","","","1527","j","elianto","#f73b6a7A","32","32","1","0","2384","1","2","","","","","","","5c8ec49f692c610001e14eca&order=3&STUDY_ID=61caf6d05e4609be7bf98488","111","10","3","lose","go","0"
"pit-trial","156","814808","0.0-116.0","battery-v0.2","","","-1","d","elianto","#3366ff99","-1","-1","1","+10","","0","2","","","","","","","5c8ec49f692c610001e14eca&order=3&STUDY_ID=61caf6d05e4609be7bf98488","112","9","2","win","no-go","0"
"pit-trial","157","819674","0.0-117.0","battery-v0.2","","","-1","d","elianto","#3366ff99","-1","-1","1","+10","","0","2","","","","","","","5c8ec49f692c610001e14eca&order=3&STUDY_ID=61caf6d05e4609be7bf98488","113","9","2","win","no-go","0"
"pit-trial","158","824243","0.0-118.0","battery-v0.2","","","1710","j","elianto","#f73b6a7A","32","32","1","0","2563","1","2","","","","","","","5c8ec49f692c610001e14eca&order=3&STUDY_ID=61caf6d05e4609be7bf98488","114","10","3","lose","go","0"
"pit-trial","159","828760","0.0-119.0","battery-v0.2","","","1652","k","elianto","#3366ff99","32","32","1","+10","2511","1","2","","","","","","","5c8ec49f692c610001e14eca&order=3&STUDY_ID=61caf6d05e4609be7bf98488","115","8","1","win","go","0"
"pit-trial","160","833637","0.0-120.0","battery-v0.2","","","-1","v","elianto","#f73b6a7A","-1","-1","1","0","","0","2","","","","","","","5c8ec49f692c610001e14eca&order=3&STUDY_ID=61caf6d05e4609be7bf98488","116","11","4","lose","no-go","0"
"pit-trial","161","838508","0.0-121.0","battery-v0.2","","","-1","d","elianto","#3366ff99","-1","-1","1","+10","","0","2","","","","","","","5c8ec49f692c610001e14eca&order=3&STUDY_ID=61caf6d05e4609be7bf98488","117","9","2","win","no-go","0"
"pit-trial","162","843298","0.0-122.0","battery-v0.2","","","1932","v","elianto","#f73b6a7A","-1","32","0","-10","2785","1","2","","","","","","","5c8ec49f692c610001e14eca&order=3&STUDY_ID=61caf6d05e4609be7bf98488","118","11","4","lose","no-go","0"
"pit-trial","163","847762","0.0-123.0","battery-v0.2","","","1610","j","elianto","#f73b6a7A","32","32","1","0","2460","1","2","","","","","","","5c8ec49f692c610001e14eca&order=3&STUDY_ID=61caf6d05e4609be7bf98488","119","10","3","lose","go","0"
"pit-trial","164","851678","0.0-124.0","battery-v0.2","","","1056","k","elianto","#3366ff99","32","32","1","+10","1913","1","2","","","","","","","5c8ec49f692c610001e14eca&order=3&STUDY_ID=61caf6d05e4609be7bf98488","120","8","1","win","go","0"
"pit-trial","165","856097","0.0-125.0","battery-v0.2","","","1554","j","elianto","#f73b6a7A","32","32","1","-10","2407","1","2","","","","","","","5c8ec49f692c610001e14eca&order=3&STUDY_ID=61caf6d05e4609be7bf98488","121","10","3","lose","go","1"
"pit-trial","166","860951","0.0-126.0","battery-v0.2","","","-1","v","elianto","#f73b6a7A","-1","-1","1","-10","","0","2","","","","","","","5c8ec49f692c610001e14eca&order=3&STUDY_ID=61caf6d05e4609be7bf98488","122","11","4","lose","no-go","1"
"pit-trial","167","865809","0.0-127.0","battery-v0.2","","","-1","d","elianto","#3366ff99","-1","-1","1","+10","","0","2","","","","","","","5c8ec49f692c610001e14eca&order=3&STUDY_ID=61caf6d05e4609be7bf98488","123","9","2","win","no-go","0"
"pit-trial","168","869515","0.0-128.0","battery-v0.2","","","832","k","elianto","#3366ff99","32","32","1","0","1692","1","2","","","","","","","5c8ec49f692c610001e14eca&order=3&STUDY_ID=61caf6d05e4609be7bf98488","124","8","1","win","go","1"
"pit-trial","169","874374","0.0-129.0","battery-v0.2","","","-1","d","elianto","#3366ff99","-1","-1","1","+10","","0","2","","","","","","","5c8ec49f692c610001e14eca&order=3&STUDY_ID=61caf6d05e4609be7bf98488","125","9","2","win","no-go","0"
"pit-trial","170","878392","0.0-130.0","battery-v0.2","","","1148","k","elianto","#3366ff99","32","32","1","+10","2012","1","2","","","","","","","5c8ec49f692c610001e14eca&order=3&STUDY_ID=61caf6d05e4609be7bf98488","126","8","1","win","go","0"
"pit-trial","171","883270","0.0-131.0","battery-v0.2","","","-1","v","elianto","#f73b6a7A","-1","-1","1","0","","0","2","","","","","","","5c8ec49f692c610001e14eca&order=3&STUDY_ID=61caf6d05e4609be7bf98488","127","11","4","lose","no-go","0"
"pit-trial","172","887116","0.0-132.0","battery-v0.2","","","988","j","elianto","#f73b6a7A","32","32","1","0","1845","1","2","","","","","","","5c8ec49f692c610001e14eca&order=3&STUDY_ID=61caf6d05e4609be7bf98488","128","10","3","lose","go","0"
"pit-trial","173","891993","0.0-133.0","battery-v0.2","","","-1","v","elianto","#f73b6a7A","-1","-1","1","0","","0","2","","","","","","","5c8ec49f692c610001e14eca&order=3&STUDY_ID=61caf6d05e4609be7bf98488","129","11","4","lose","no-go","0"
"pit-trial","174","895785","0.0-134.0","battery-v0.2","","","924","k","elianto","#3366ff99","32","32","1","+10","1778","1","2","","","","","","","5c8ec49f692c610001e14eca&order=3&STUDY_ID=61caf6d05e4609be7bf98488","130","8","1","win","go","0"
"pit-trial","175","900416","0.0-135.0","battery-v0.2","","","1766","j","elianto","#f73b6a7A","32","32","1","0","2621","1","2","","","","","","","5c8ec49f692c610001e14eca&order=3&STUDY_ID=61caf6d05e4609be7bf98488","131","10","3","lose","go","0"
"pit-trial","176","905283","0.0-136.0","battery-v0.2","","","-1","d","elianto","#3366ff99","-1","-1","1","+10","","0","2","","","","","","","5c8ec49f692c610001e14eca&order=3&STUDY_ID=61caf6d05e4609be7bf98488","132","9","2","win","no-go","0"
"pit-trial","177","909022","0.0-137.0","battery-v0.2","","","878","k","elianto","#3366ff99","32","32","1","+10","1736","1","2","","","","","","","5c8ec49f692c610001e14eca&order=3&STUDY_ID=61caf6d05e4609be7bf98488","133","8","1","win","go","0"
"pit-trial","178","913247","0.0-138.0","battery-v0.2","","","1359","j","elianto","#f73b6a7A","32","32","1","0","2217","1","2","","","","","","","5c8ec49f692c610001e14eca&order=3&STUDY_ID=61caf6d05e4609be7bf98488","134","10","3","lose","go","0"
"pit-trial","179","918122","0.0-139.0","battery-v0.2","","","-1","v","elianto","#f73b6a7A","-1","-1","1","0","","0","2","","","","","","","5c8ec49f692c610001e14eca&order=3&STUDY_ID=61caf6d05e4609be7bf98488","135","11","4","lose","no-go","0"
"pit-trial","180","922990","0.0-140.0","battery-v0.2","","","-1","d","elianto","#3366ff99","-1","-1","1","+10","","0","2","","","","","","","5c8ec49f692c610001e14eca&order=3&STUDY_ID=61caf6d05e4609be7bf98488","136","9","2","win","no-go","0"
"pit-trial","181","927333","0.0-141.0","battery-v0.2","","","1478","j","elianto","#f73b6a7A","32","32","1","0","2332","1","2","","","","","","","5c8ec49f692c610001e14eca&order=3&STUDY_ID=61caf6d05e4609be7bf98488","137","10","3","lose","go","0"
"pit-trial","182","930984","0.0-142.0","battery-v0.2","","","789","k","elianto","#3366ff99","32","32","1","+10","1642","1","2","","","","","","","5c8ec49f692c610001e14eca&order=3&STUDY_ID=61caf6d05e4609be7bf98488","138","8","1","win","go","0"
"pit-trial","183","935849","0.0-143.0","battery-v0.2","","","-1","v","elianto","#f73b6a7A","-1","-1","1","0","","0","2","","","","","","","5c8ec49f692c610001e14eca&order=3&STUDY_ID=61caf6d05e4609be7bf98488","139","11","4","lose","no-go","0"
"pit-trial","184","940718","0.0-144.0","battery-v0.2","","","-1","d","elianto","#3366ff99","-1","-1","1","0","","0","2","","","","","","","5c8ec49f692c610001e14eca&order=3&STUDY_ID=61caf6d05e4609be7bf98488","140","9","2","win","no-go","1"
"pit-instructions","185","961176","0.0-145.0","battery-v0.2","","[{""page_index"":0,""viewing_time"":14664},{""page_index"":1,""viewing_time"":5792}]","20456","","","","","","","","","","","","","","","","","","","","","","",""
"pit-trial","186","964939","0.0-146.0","battery-v0.2","","","885","n","elianto","#3366ff99","-1","32","0","0","1743","1","3","","","","","","","5c8ec49f692c610001e14eca&order=3&STUDY_ID=61caf6d05e4609be7bf98488","141","1","2","win","no-go","0"
"pit-trial","187","968662","0.0-147.0","battery-v0.2","","","857","f","elianto","#3366ff99","32","32","1","+10","1716","1","3","","","","","","","5c8ec49f692c610001e14eca&order=3&STUDY_ID=61caf6d05e4609be7bf98488","142","2","1","win","go","0"
"pit-trial","188","973538","0.0-148.0","battery-v0.2","","","-1","x","elianto","#f73b6a7A","32","-1","0","-10","","0","3","","","","","","","5c8ec49f692c610001e14eca&order=3&STUDY_ID=61caf6d05e4609be7bf98488","143","3","3","lose","go","0"
"pit-trial","189","978121","0.0-149.0","battery-v0.2","","","1715","q","elianto","#3366ff99","-1","32","0","+10","2572","1","3","","","","","","","5c8ec49f692c610001e14eca&order=3&STUDY_ID=61caf6d05e4609be7bf98488","144","0","2","win","no-go","1"
"pit-trial","190","981935","0.0-150.0","battery-v0.2","","","957","q","elianto","#3366ff99","-1","32","0","0","1810","1","3","","","","","","","5c8ec49f692c610001e14eca&order=3&STUDY_ID=61caf6d05e4609be7bf98488","145","0","2","win","no-go","0"
"pit-trial","191","985819","0.0-151.0","battery-v0.2","","","1015","f","elianto","#3366ff99","32","32","1","+10","1876","1","3","","","","","","","5c8ec49f692c610001e14eca&order=3&STUDY_ID=61caf6d05e4609be7bf98488","146","2","1","win","go","0"
"pit-trial","192","990679","0.0-152.0","battery-v0.2","","","-1","n","elianto","#3366ff99","-1","-1","1","+10","","0","3","","","","","","","5c8ec49f692c610001e14eca&order=3&STUDY_ID=61caf6d05e4609be7bf98488","147","1","2","win","no-go","0"
"pit-trial","193","994745","0.0-153.0","battery-v0.2","","","1193","x","elianto","#f73b6a7A","32","32","1","0","2048","1","3","","","","","","","5c8ec49f692c610001e14eca&order=3&STUDY_ID=61caf6d05e4609be7bf98488","148","3","3","lose","go","0"
"pit-trial","194","999598","0.0-154.0","battery-v0.2","","","-1","n","elianto","#3366ff99","-1","-1","1","+10","","0","3","","","","","","","5c8ec49f692c610001e14eca&order=3&STUDY_ID=61caf6d05e4609be7bf98488","149","1","2","win","no-go","0"
"pit-trial","195","1003665","0.0-155.0","battery-v0.2","","","1205","q","elianto","#3366ff99","-1","32","0","0","2060","1","3","","","","","","","5c8ec49f692c610001e14eca&order=3&STUDY_ID=61caf6d05e4609be7bf98488","150","0","2","win","no-go","0"
"pit-trial","196","1007508","0.0-156.0","battery-v0.2","","","973","x","elianto","#f73b6a7A","32","32","1","-10","1833","1","3","","","","","","","5c8ec49f692c610001e14eca&order=3&STUDY_ID=61caf6d05e4609be7bf98488","151","3","3","lose","go","1"
"pit-trial","197","1011194","0.0-157.0","battery-v0.2","","","812","f","elianto","#3366ff99","32","32","1","0","1674","1","3","","","","","","","5c8ec49f692c610001e14eca&order=3&STUDY_ID=61caf6d05e4609be7bf98488","152","2","1","win","go","1"
"pit-trial","198","1014972","0.0-158.0","battery-v0.2","","","906","x","elianto","#f73b6a7A","32","32","1","0","1764","1","3","","","","","","","5c8ec49f692c610001e14eca&order=3&STUDY_ID=61caf6d05e4609be7bf98488","153","3","3","lose","go","0"
"pit-trial","199","1019839","0.0-159.0","battery-v0.2","","","-1","q","elianto","#3366ff99","-1","-1","1","0","","0","3","","","","","","","5c8ec49f692c610001e14eca&order=3&STUDY_ID=61caf6d05e4609be7bf98488","154","0","2","win","no-go","1"
"pit-trial","200","1023454","0.0-160.0","battery-v0.2","","","749","f","elianto","#3366ff99","32","32","1","+10","1611","1","3","","","","","","","5c8ec49f692c610001e14eca&order=3&STUDY_ID=61caf6d05e4609be7bf98488","155","2","1","win","go","0"
"pit-trial","201","1028330","0.0-161.0","battery-v0.2","","","-1","n","elianto","#3366ff99","-1","-1","1","+10","","0","3","","","","","","","5c8ec49f692c610001e14eca&order=3&STUDY_ID=61caf6d05e4609be7bf98488","156","1","2","win","no-go","0"
"pit-trial","202","1033201","0.0-162.0","battery-v0.2","","","-1","q","elianto","#3366ff99","-1","-1","1","0","","0","3","","","","","","","5c8ec49f692c610001e14eca&order=3&STUDY_ID=61caf6d05e4609be7bf98488","157","0","2","win","no-go","1"
"pit-trial","203","1038077","0.0-163.0","battery-v0.2","","","-1","n","elianto","#3366ff99","-1","-1","1","0","","0","3","","","","","","","5c8ec49f692c610001e14eca&order=3&STUDY_ID=61caf6d05e4609be7bf98488","158","1","2","win","no-go","1"
"pit-trial","204","1041809","0.0-164.0","battery-v0.2","","","866","x","elianto","#f73b6a7A","32","32","1","-10","1729","1","3","","","","","","","5c8ec49f692c610001e14eca&order=3&STUDY_ID=61caf6d05e4609be7bf98488","159","3","3","lose","go","1"
"pit-trial","205","1045268","0.0-165.0","battery-v0.2","","","594","f","elianto","#3366ff99","32","32","1","+10","1451","1","3","","","","","","","5c8ec49f692c610001e14eca&order=3&STUDY_ID=61caf6d05e4609be7bf98488","160","2","1","win","go","0"
"pit-trial","206","1050124","0.0-166.0","battery-v0.2","","","-1","n","elianto","#3366ff99","-1","-1","1","+10","","0","3","","","","","","","5c8ec49f692c610001e14eca&order=3&STUDY_ID=61caf6d05e4609be7bf98488","161","1","2","win","no-go","0"
"pit-trial","207","1054156","0.0-167.0","battery-v0.2","","","1167","q","elianto","#3366ff99","-1","32","0","+10","2019","1","3","","","","","","","5c8ec49f692c610001e14eca&order=3&STUDY_ID=61caf6d05e4609be7bf98488","162","0","2","win","no-go","1"
"pit-trial","208","1057800","0.0-168.0","battery-v0.2","","","773","x","elianto","#f73b6a7A","32","32","1","0","1637","1","3","","","","","","","5c8ec49f692c610001e14eca&order=3&STUDY_ID=61caf6d05e4609be7bf98488","163","3","3","lose","go","0"
"pit-trial","209","1061328","0.0-169.0","battery-v0.2","","","659","f","elianto","#3366ff99","32","32","1","0","1520","1","3","","","","","","","5c8ec49f692c610001e14eca&order=3&STUDY_ID=61caf6d05e4609be7bf98488","164","2","1","win","go","1"
"pit-trial","210","1065081","0.0-170.0","battery-v0.2","","","895","q","elianto","#3366ff99","-1","32","0","0","1749","1","3","","","","","","","5c8ec49f692c610001e14eca&order=3&STUDY_ID=61caf6d05e4609be7bf98488","165","0","2","win","no-go","0"
"pit-trial","211","1068715","0.0-171.0","battery-v0.2","","","764","x","elianto","#f73b6a7A","32","32","1","0","1622","1","3","","","","","","","5c8ec49f692c610001e14eca&order=3&STUDY_ID=61caf6d05e4609be7bf98488","166","3","3","lose","go","0"
"pit-trial","212","1072178","0.0-172.0","battery-v0.2","","","593","f","elianto","#3366ff99","32","32","1","+10","1458","1","3","","","","","","","5c8ec49f692c610001e14eca&order=3&STUDY_ID=61caf6d05e4609be7bf98488","167","2","1","win","go","0"
"pit-trial","213","1077033","0.0-173.0","battery-v0.2","","","-1","n","elianto","#3366ff99","-1","-1","1","+10","","0","3","","","","","","","5c8ec49f692c610001e14eca&order=3&STUDY_ID=61caf6d05e4609be7bf98488","168","1","2","win","no-go","0"
"pit-trial","214","1080661","0.0-174.0","battery-v0.2","","","759","f","elianto","#3366ff99","32","32","1","+10","1618","1","3","","","","","","","5c8ec49f692c610001e14eca&order=3&STUDY_ID=61caf6d05e4609be7bf98488","169","2","1","win","go","0"
"pit-trial","215","1084315","0.0-175.0","battery-v0.2","","","788","x","elianto","#f73b6a7A","32","32","1","0","1647","1","3","","","","","","","5c8ec49f692c610001e14eca&order=3&STUDY_ID=61caf6d05e4609be7bf98488","170","3","3","lose","go","0"
"pit-trial","216","1088327","0.0-176.0","battery-v0.2","","","1143","q","elianto","#3366ff99","-1","32","0","0","1999","1","3","","","","","","","5c8ec49f692c610001e14eca&order=3&STUDY_ID=61caf6d05e4609be7bf98488","171","0","2","win","no-go","0"
"pit-trial","217","1093186","0.0-177.0","battery-v0.2","","","-1","n","elianto","#3366ff99","-1","-1","1","+10","","0","3","","","","","","","5c8ec49f692c610001e14eca&order=3&STUDY_ID=61caf6d05e4609be7bf98488","172","1","2","win","no-go","0"
"pit-trial","218","1098052","0.0-178.0","battery-v0.2","","","-1","t","elianto","#f73b6a7A","-1","-1","1","0","","0","3","","","","","","","5c8ec49f692c610001e14eca&order=3&STUDY_ID=61caf6d05e4609be7bf98488","173","4","4","lose","no-go","0"
"pit-trial","219","1102925","0.0-179.0","battery-v0.2","","","-1","q","elianto","#3366ff99","-1","-1","1","+10","","0","3","","","","","","","5c8ec49f692c610001e14eca&order=3&STUDY_ID=61caf6d05e4609be7bf98488","174","0","2","win","no-go","0"
"pit-trial","220","1106387","0.0-180.0","battery-v0.2","","","606","f","elianto","#3366ff99","32","32","1","0","1460","1","3","","","","","","","5c8ec49f692c610001e14eca&order=3&STUDY_ID=61caf6d05e4609be7bf98488","175","2","1","win","go","1"
"pit-trial","221","1110543","0.0-181.0","battery-v0.2","","","1288","b","elianto","#f73b6a7A","32","32","1","0","2145","1","3","","","","","","","5c8ec49f692c610001e14eca&order=3&STUDY_ID=61caf6d05e4609be7bf98488","176","5","3","lose","go","0"
"pit-trial","222","1114306","0.0-182.0","battery-v0.2","","","902","b","elianto","#f73b6a7A","32","32","1","-10","1757","1","3","","","","","","","5c8ec49f692c610001e14eca&order=3&STUDY_ID=61caf6d05e4609be7bf98488","177","5","3","lose","go","1"
"pit-trial","223","1117955","0.0-183.0","battery-v0.2","","","788","f","elianto","#3366ff99","32","32","1","+10","1645","1","3","","","","","","","5c8ec49f692c610001e14eca&order=3&STUDY_ID=61caf6d05e4609be7bf98488","178","2","1","win","go","0"
"pit-trial","224","1122828","0.0-184.0","battery-v0.2","","","-1","t","elianto","#f73b6a7A","-1","-1","1","0","","0","3","","","","","","","5c8ec49f692c610001e14eca&order=3&STUDY_ID=61caf6d05e4609be7bf98488","179","4","4","lose","no-go","0"
"pit-trial","225","1127707","0.0-185.0","battery-v0.2","","","-1","q","elianto","#3366ff99","-1","-1","1","+10","","0","3","","","","","","","5c8ec49f692c610001e14eca&order=3&STUDY_ID=61caf6d05e4609be7bf98488","180","0","2","win","no-go","0"
"pit-trial","226","1131257","0.0-186.0","battery-v0.2","","","687","f","elianto","#3366ff99","32","32","1","+10","1541","1","3","","","","","","","5c8ec49f692c610001e14eca&order=3&STUDY_ID=61caf6d05e4609be7bf98488","181","2","1","win","go","0"
"pit-trial","227","1136131","0.0-187.0","battery-v0.2","","","-1","t","elianto","#f73b6a7A","-1","-1","1","0","","0","3","","","","","","","5c8ec49f692c610001e14eca&order=3&STUDY_ID=61caf6d05e4609be7bf98488","182","4","4","lose","no-go","0"
"pit-trial","228","1140440","0.0-188.0","battery-v0.2","","","1449","c","elianto","#3366ff99","-1","32","0","0","2305","1","3","","","","","","","5c8ec49f692c610001e14eca&order=3&STUDY_ID=61caf6d05e4609be7bf98488","183","6","2","win","no-go","0"
"pit-trial","229","1144605","0.0-189.0","battery-v0.2","","","1290","b","elianto","#f73b6a7A","32","32","1","-10","2146","1","3","","","","","","","5c8ec49f692c610001e14eca&order=3&STUDY_ID=61caf6d05e4609be7bf98488","184","5","3","lose","go","1"
"pit-trial","230","1149478","0.0-190.0","battery-v0.2","","","-1","t","elianto","#f73b6a7A","-1","-1","1","0","","0","3","","","","","","","5c8ec49f692c610001e14eca&order=3&STUDY_ID=61caf6d05e4609be7bf98488","185","4","4","lose","no-go","0"
"pit-trial","231","1153066","0.0-191.0","battery-v0.2","","","721","f","elianto","#3366ff99","32","32","1","+10","1574","1","3","","","","","","","5c8ec49f692c610001e14eca&order=3&STUDY_ID=61caf6d05e4609be7bf98488","186","2","1","win","go","0"
"pit-trial","232","1156967","0.0-192.0","battery-v0.2","","","1033","b","elianto","#f73b6a7A","32","32","1","0","1894","1","3","","","","","","","5c8ec49f692c610001e14eca&order=3&STUDY_ID=61caf6d05e4609be7bf98488","187","5","3","lose","go","0"
"pit-trial","233","1161841","0.0-193.0","battery-v0.2","","","-1","c","elianto","#3366ff99","-1","-1","1","0","","0","3","","","","","","","5c8ec49f692c610001e14eca&order=3&STUDY_ID=61caf6d05e4609be7bf98488","188","6","2","win","no-go","1"
"pit-trial","234","1165613","0.0-194.0","battery-v0.2","","","903","b","elianto","#f73b6a7A","32","32","1","0","1759","1","3","","","","","","","5c8ec49f692c610001e14eca&order=3&STUDY_ID=61caf6d05e4609be7bf98488","189","5","3","lose","go","0"
"pit-trial","235","1169591","0.0-195.0","battery-v0.2","","","1102","c","elianto","#3366ff99","-1","32","0","0","1962","1","3","","","","","","","5c8ec49f692c610001e14eca&order=3&STUDY_ID=61caf6d05e4609be7bf98488","190","6","2","win","no-go","0"
"pit-trial","236","1174460","0.0-196.0","battery-v0.2","","","-1","t","elianto","#f73b6a7A","-1","-1","1","0","","0","3","","","","","","","5c8ec49f692c610001e14eca&order=3&STUDY_ID=61caf6d05e4609be7bf98488","191","4","4","lose","no-go","0"
"pit-trial","237","1179336","0.0-197.0","battery-v0.2","","","-1","z","elianto","#f73b6a7A","-1","-1","1","0","","0","3","","","","","","","5c8ec49f692c610001e14eca&order=3&STUDY_ID=61caf6d05e4609be7bf98488","192","7","4","lose","no-go","0"
"pit-trial","238","1183175","0.0-198.0","battery-v0.2","","","972","b","elianto","#f73b6a7A","32","32","1","0","1832","1","3","","","","","","","5c8ec49f692c610001e14eca&order=3&STUDY_ID=61caf6d05e4609be7bf98488","193","5","3","lose","go","0"
"pit-trial","239","1188036","0.0-199.0","battery-v0.2","","","-1","z","elianto","#f73b6a7A","-1","-1","1","0","","0","3","","","","","","","5c8ec49f692c610001e14eca&order=3&STUDY_ID=61caf6d05e4609be7bf98488","194","7","4","lose","no-go","0"
"pit-trial","240","1192907","0.0-200.0","battery-v0.2","","","-1","t","elianto","#f73b6a7A","-1","-1","1","-10","","0","3","","","","","","","5c8ec49f692c610001e14eca&order=3&STUDY_ID=61caf6d05e4609be7bf98488","195","4","4","lose","no-go","1"
"pit-trial","241","1197773","0.0-201.0","battery-v0.2","","","-1","c","elianto","#3366ff99","-1","-1","1","+10","","0","3","","","","","","","5c8ec49f692c610001e14eca&order=3&STUDY_ID=61caf6d05e4609be7bf98488","196","6","2","win","no-go","0"
"pit-trial","242","1202639","0.0-202.0","battery-v0.2","","","-1","t","elianto","#f73b6a7A","-1","-1","1","-10","","0","3","","","","","","","5c8ec49f692c610001e14eca&order=3&STUDY_ID=61caf6d05e4609be7bf98488","197","4","4","lose","no-go","1"
"pit-trial","243","1207510","0.0-203.0","battery-v0.2","","","-1","c","elianto","#3366ff99","-1","-1","1","+10","","0","3","","","","","","","5c8ec49f692c610001e14eca&order=3&STUDY_ID=61caf6d05e4609be7bf98488","198","6","2","win","no-go","0"
"pit-trial","244","1212381","0.0-204.0","battery-v0.2","","","-1","z","elianto","#f73b6a7A","-1","-1","1","0","","0","3","","","","","","","5c8ec49f692c610001e14eca&order=3&STUDY_ID=61caf6d05e4609be7bf98488","199","7","4","lose","no-go","0"
"pit-trial","245","1216198","0.0-205.0","battery-v0.2","","","945","b","elianto","#f73b6a7A","32","32","1","0","1807","1","3","","","","","","","5c8ec49f692c610001e14eca&order=3&STUDY_ID=61caf6d05e4609be7bf98488","200","5","3","lose","go","0"
"pit-trial","246","1219912","0.0-206.0","battery-v0.2","","","851","b","elianto","#f73b6a7A","32","32","1","0","1701","1","3","","","","","","","5c8ec49f692c610001e14eca&order=3&STUDY_ID=61caf6d05e4609be7bf98488","201","5","3","lose","go","0"
"pit-trial","247","1224776","0.0-207.0","battery-v0.2","","","-1","c","elianto","#3366ff99","-1","-1","1","+10","","0","3","","","","","","","5c8ec49f692c610001e14eca&order=3&STUDY_ID=61caf6d05e4609be7bf98488","202","6","2","win","no-go","0"
"pit-trial","248","1229639","0.0-208.0","battery-v0.2","","","-1","z","elianto","#f73b6a7A","-1","-1","1","0","","0","3","","","","","","","5c8ec49f692c610001e14eca&order=3&STUDY_ID=61caf6d05e4609be7bf98488","203","7","4","lose","no-go","0"
"pit-trial","249","1234514","0.0-209.0","battery-v0.2","","","-1","t","elianto","#f73b6a7A","-1","-1","1","0","","0","3","","","","","","","5c8ec49f692c610001e14eca&order=3&STUDY_ID=61caf6d05e4609be7bf98488","204","4","4","lose","no-go","0"
"pit-trial","250","1238298","0.0-210.0","battery-v0.2","","","920","b","elianto","#f73b6a7A","32","32","1","0","1778","1","3","","","","","","","5c8ec49f692c610001e14eca&order=3&STUDY_ID=61caf6d05e4609be7bf98488","205","5","3","lose","go","0"
"pit-trial","251","1243171","0.0-211.0","battery-v0.2","","","-1","c","elianto","#3366ff99","-1","-1","1","+10","","0","3","","","","","","","5c8ec49f692c610001e14eca&order=3&STUDY_ID=61caf6d05e4609be7bf98488","206","6","2","win","no-go","0"
"pit-trial","252","1248038","0.0-212.0","battery-v0.2","","","-1","z","elianto","#f73b6a7A","-1","-1","1","0","","0","3","","","","","","","5c8ec49f692c610001e14eca&order=3&STUDY_ID=61caf6d05e4609be7bf98488","207","7","4","lose","no-go","0"
"pit-trial","253","1252910","0.0-213.0","battery-v0.2","","","-1","t","elianto","#f73b6a7A","-1","-1","1","-10","","0","3","","","","","","","5c8ec49f692c610001e14eca&order=3&STUDY_ID=61caf6d05e4609be7bf98488","208","4","4","lose","no-go","1"
"pit-trial","254","1257774","0.0-214.0","battery-v0.2","","","-1","c","elianto","#3366ff99","-1","-1","1","+10","","0","3","","","","","","","5c8ec49f692c610001e14eca&order=3&STUDY_ID=61caf6d05e4609be7bf98488","209","6","2","win","no-go","0"
"pit-trial","255","1262651","0.0-215.0","battery-v0.2","","","-1","z","elianto","#f73b6a7A","-1","-1","1","0","","0","3","","","","","","","5c8ec49f692c610001e14eca&order=3&STUDY_ID=61caf6d05e4609be7bf98488","210","7","4","lose","no-go","0"
"pit-trial","256","1267222","0.0-216.0","battery-v0.2","","","1707","b","elianto","#f73b6a7A","32","32","1","0","2558","1","3","","","","","","","5c8ec49f692c610001e14eca&order=3&STUDY_ID=61caf6d05e4609be7bf98488","211","5","3","lose","go","0"
"pit-trial","257","1272088","0.0-217.0","battery-v0.2","","","-1","t","elianto","#f73b6a7A","-1","-1","1","-10","","0","3","","","","","","","5c8ec49f692c610001e14eca&order=3&STUDY_ID=61caf6d05e4609be7bf98488","212","4","4","lose","no-go","1"
"pit-trial","258","1276964","0.0-218.0","battery-v0.2","","","-1","h","elianto","#f73b6a7A","-1","-1","1","0","","0","3","","","","","","","5c8ec49f692c610001e14eca&order=3&STUDY_ID=61caf6d05e4609be7bf98488","213","8","4","lose","no-go","0"
"pit-trial","259","1281842","0.0-219.0","battery-v0.2","","","-1","c","elianto","#3366ff99","-1","-1","1","+10","","0","3","","","","","","","5c8ec49f692c610001e14eca&order=3&STUDY_ID=61caf6d05e4609be7bf98488","214","6","2","win","no-go","0"
"pit-trial","260","1285654","0.0-220.0","battery-v0.2","","","935","b","elianto","#f73b6a7A","32","32","1","-10","1799","1","3","","","","","","","5c8ec49f692c610001e14eca&order=3&STUDY_ID=61caf6d05e4609be7bf98488","215","5","3","lose","go","1"
"pit-trial","261","1290514","0.0-221.0","battery-v0.2","","","-1","z","elianto","#f73b6a7A","-1","-1","1","-10","","0","3","","","","","","","5c8ec49f692c610001e14eca&order=3&STUDY_ID=61caf6d05e4609be7bf98488","216","7","4","lose","no-go","1"
"pit-trial","262","1295375","0.0-222.0","battery-v0.2","","","-1","c","elianto","#3366ff99","-1","-1","1","+10","","0","3","","","","","","","5c8ec49f692c610001e14eca&order=3&STUDY_ID=61caf6d05e4609be7bf98488","217","6","2","win","no-go","0"
"pit-trial","263","1300232","0.0-223.0","battery-v0.2","","","-1","z","elianto","#f73b6a7A","-1","-1","1","-10","","0","3","","","","","","","5c8ec49f692c610001e14eca&order=3&STUDY_ID=61caf6d05e4609be7bf98488","218","7","4","lose","no-go","1"
"pit-trial","264","1303957","0.0-224.0","battery-v0.2","","","854","b","elianto","#f73b6a7A","32","32","1","0","1717","1","3","","","","","","","5c8ec49f692c610001e14eca&order=3&STUDY_ID=61caf6d05e4609be7bf98488","219","5","3","lose","go","0"
"pit-trial","265","1308827","0.0-225.0","battery-v0.2","","","-1","h","elianto","#f73b6a7A","-1","-1","1","0","","0","3","","","","","","","5c8ec49f692c610001e14eca&order=3&STUDY_ID=61caf6d05e4609be7bf98488","220","8","4","lose","no-go","0"
"pit-trial","266","1313693","0.0-226.0","battery-v0.2","","","-1","h","elianto","#f73b6a7A","-1","-1","1","0","","0","3","","","","","","","5c8ec49f692c610001e14eca&order=3&STUDY_ID=61caf6d05e4609be7bf98488","221","8","4","lose","no-go","0"
"pit-trial","267","1317803","0.0-227.0","battery-v0.2","","","1247","y","elianto","#3366ff99","32","32","1","+10","2106","1","3","","","","","","","5c8ec49f692c610001e14eca&order=3&STUDY_ID=61caf6d05e4609be7bf98488","222","9","1","win","go","0"
"pit-trial","268","1322680","0.0-228.0","battery-v0.2","","","-1","c","elianto","#3366ff99","-1","-1","1","+10","","0","3","","","","","","","5c8ec49f692c610001e14eca&order=3&STUDY_ID=61caf6d05e4609be7bf98488","223","6","2","win","no-go","0"
"pit-trial","269","1327544","0.0-229.0","battery-v0.2","","","-1","r","elianto","#f73b6a7A","32","-1","0","-10","","0","3","","","","","","","5c8ec49f692c610001e14eca&order=3&STUDY_ID=61caf6d05e4609be7bf98488","224","10","3","lose","go","0"
"pit-trial","270","1331594","0.0-230.0","battery-v0.2","","","1178","r","elianto","#f73b6a7A","32","32","1","-10","2040","1","3","","","","","","","5c8ec49f692c610001e14eca&order=3&STUDY_ID=61caf6d05e4609be7bf98488","225","10","3","lose","go","1"
"pit-trial","271","1335162","0.0-231.0","battery-v0.2","","","705","y","elianto","#3366ff99","32","32","1","+10","1566","1","3","","","","","","","5c8ec49f692c610001e14eca&order=3&STUDY_ID=61caf6d05e4609be7bf98488","226","9","1","win","go","0"
"pit-trial","272","1340032","0.0-232.0","battery-v0.2","","","-1","c","elianto","#3366ff99","-1","-1","1","+10","","0","3","","","","","","","5c8ec49f692c610001e14eca&order=3&STUDY_ID=61caf6d05e4609be7bf98488","227","6","2","win","no-go","0"
"pit-trial","273","1344899","0.0-233.0","battery-v0.2","","","-1","h","elianto","#f73b6a7A","-1","-1","1","0","","0","3","","","","","","","5c8ec49f692c610001e14eca&order=3&STUDY_ID=61caf6d05e4609be7bf98488","228","8","4","lose","no-go","0"
"pit-trial","274","1349772","0.0-234.0","battery-v0.2","","","-1","h","elianto","#f73b6a7A","-1","-1","1","0","","0","3","","","","","","","5c8ec49f692c610001e14eca&order=3&STUDY_ID=61caf6d05e4609be7bf98488","229","8","4","lose","no-go","0"
"pit-trial","275","1354636","0.0-235.0","battery-v0.2","","","-1","r","elianto","#f73b6a7A","32","-1","0","0","","0","3","","","","","","","5c8ec49f692c610001e14eca&order=3&STUDY_ID=61caf6d05e4609be7bf98488","230","10","3","lose","go","1"
"pit-trial","276","1358256","0.0-236.0","battery-v0.2","","","760","y","elianto","#3366ff99","32","32","1","+10","1612","1","3","","","","","","","5c8ec49f692c610001e14eca&order=3&STUDY_ID=61caf6d05e4609be7bf98488","231","9","1","win","go","0"
"pit-trial","277","1362575","0.0-237.0","battery-v0.2","","","1443","m","elianto","#3366ff99","32","32","1","+10","2306","1","3","","","","","","","5c8ec49f692c610001e14eca&order=3&STUDY_ID=61caf6d05e4609be7bf98488","232","11","1","win","go","0"
"pit-trial","278","1367437","0.0-238.0","battery-v0.2","","","-1","r","elianto","#f73b6a7A","32","-1","0","-10","","0","3","","","","","","","5c8ec49f692c610001e14eca&order=3&STUDY_ID=61caf6d05e4609be7bf98488","233","10","3","lose","go","0"
"pit-trial","279","1371274","0.0-239.0","battery-v0.2","","","971","m","elianto","#3366ff99","32","32","1","+10","1833","1","3","","","","","","","5c8ec49f692c610001e14eca&order=3&STUDY_ID=61caf6d05e4609be7bf98488","234","11","1","win","go","0"
"pit-trial","280","1374720","0.0-240.0","battery-v0.2","","","574","y","elianto","#3366ff99","32","32","1","+10","1433","1","3","","","","","","","5c8ec49f692c610001e14eca&order=3&STUDY_ID=61caf6d05e4609be7bf98488","235","9","1","win","go","0"
"pit-trial","281","1379596","0.0-241.0","battery-v0.2","","","-1","h","elianto","#f73b6a7A","-1","-1","1","-10","","0","3","","","","","","","5c8ec49f692c610001e14eca&order=3&STUDY_ID=61caf6d05e4609be7bf98488","236","8","4","lose","no-go","1"
"pit-trial","282","1383084","0.0-242.0","battery-v0.2","","","622","m","elianto","#3366ff99","32","32","1","+10","1480","1","3","","","","","","","5c8ec49f692c610001e14eca&order=3&STUDY_ID=61caf6d05e4609be7bf98488","237","11","1","win","go","0"
"pit-trial","283","1387947","0.0-243.0","battery-v0.2","","","-1","h","elianto","#f73b6a7A","-1","-1","1","0","","0","3","","","","","","","5c8ec49f692c610001e14eca&order=3&STUDY_ID=61caf6d05e4609be7bf98488","238","8","4","lose","no-go","0"
"pit-trial","284","1391474","0.0-244.0","battery-v0.2","","","662","y","elianto","#3366ff99","32","32","1","+10","1516","1","3","","","","","","","5c8ec49f692c610001e14eca&order=3&STUDY_ID=61caf6d05e4609be7bf98488","239","9","1","win","go","0"
"pit-trial","285","1396339","0.0-245.0","battery-v0.2","","","-1","r","elianto","#f73b6a7A","32","-1","0","-10","","0","3","","","","","","","5c8ec49f692c610001e14eca&order=3&STUDY_ID=61caf6d05e4609be7bf98488","240","10","3","lose","go","0"
"pit-trial","286","1401210","0.0-246.0","battery-v0.2","","","-1","h","elianto","#f73b6a7A","-1","-1","1","0","","0","3","","","","","","","5c8ec49f692c610001e14eca&order=3&STUDY_ID=61caf6d05e4609be7bf98488","241","8","4","lose","no-go","0"
"pit-trial","287","1404712","0.0-247.0","battery-v0.2","","","626","y","elianto","#3366ff99","32","32","1","0","1486","1","3","","","","","","","5c8ec49f692c610001e14eca&order=3&STUDY_ID=61caf6d05e4609be7bf98488","242","9","1","win","go","1"
"pit-trial","288","1408087","0.0-248.0","battery-v0.2","","","507","m","elianto","#3366ff99","32","32","1","+10","1368","1","3","","","","","","","5c8ec49f692c610001e14eca&order=3&STUDY_ID=61caf6d05e4609be7bf98488","243","11","1","win","go","0"
"pit-trial","289","1412096","0.0-249.0","battery-v0.2","","","1143","r","elianto","#f73b6a7A","32","32","1","0","1994","1","3","","","","","","","5c8ec49f692c610001e14eca&order=3&STUDY_ID=61caf6d05e4609be7bf98488","244","10","3","lose","go","0"
"pit-trial","290","1415553","0.0-250.0","battery-v0.2","","","597","y","elianto","#3366ff99","32","32","1","+10","1450","1","3","","","","","","","5c8ec49f692c610001e14eca&order=3&STUDY_ID=61caf6d05e4609be7bf98488","245","9","1","win","go","0"
"pit-trial","291","1419010","0.0-251.0","battery-v0.2","","","583","m","elianto","#3366ff99","32","32","1","+10","1446","1","3","","","","","","","5c8ec49f692c610001e14eca&order=3&STUDY_ID=61caf6d05e4609be7bf98488","246","11","1","win","go","0"
"pit-trial","292","1423019","0.0-252.0","battery-v0.2","","","1148","r","elianto","#f73b6a7A","32","32","1","0","2005","1","3","","","","","","","5c8ec49f692c610001e14eca&order=3&STUDY_ID=61caf6d05e4609be7bf98488","247","10","3","lose","go","0"
"pit-trial","293","1427888","0.0-253.0","battery-v0.2","","","-1","h","elianto","#f73b6a7A","-1","-1","1","-10","","0","3","","","","","","","5c8ec49f692c610001e14eca&order=3&STUDY_ID=61caf6d05e4609be7bf98488","248","8","4","lose","no-go","1"
"pit-trial","294","1431403","0.0-254.0","battery-v0.2","","","636","y","elianto","#3366ff99","32","32","1","+10","1499","1","3","","","","","","","5c8ec49f692c610001e14eca&order=3&STUDY_ID=61caf6d05e4609be7bf98488","249","9","1","win","go","0"
"pit-trial","295","1436264","0.0-255.0","battery-v0.2","","","-1","h","elianto","#f73b6a7A","-1","-1","1","-10","","0","3","","","","","","","5c8ec49f692c610001e14eca&order=3&STUDY_ID=61caf6d05e4609be7bf98488","250","8","4","lose","no-go","1"
"pit-trial","296","1440331","0.0-256.0","battery-v0.2","","","1193","r","elianto","#f73b6a7A","32","32","1","0","2056","1","3","","","","","","","5c8ec49f692c610001e14eca&order=3&STUDY_ID=61caf6d05e4609be7bf98488","251","10","3","lose","go","0"
"pit-trial","297","1443810","0.0-257.0","battery-v0.2","","","605","m","elianto","#3366ff99","32","32","1","+10","1466","1","3","","","","","","","5c8ec49f692c610001e14eca&order=3&STUDY_ID=61caf6d05e4609be7bf98488","252","11","1","win","go","0"
"pit-trial","298","1447712","0.0-258.0","battery-v0.2","","","1030","r","elianto","#f73b6a7A","32","32","1","0","1894","1","3","","","","","","","5c8ec49f692c610001e14eca&order=3&STUDY_ID=61caf6d05e4609be7bf98488","253","10","3","lose","go","0"
"pit-trial","299","1451218","0.0-259.0","battery-v0.2","","","635","m","elianto","#3366ff99","32","32","1","+10","1491","1","3","","","","","","","5c8ec49f692c610001e14eca&order=3&STUDY_ID=61caf6d05e4609be7bf98488","254","11","1","win","go","0"
"pit-trial","300","1454687","0.0-260.0","battery-v0.2","","","600","y","elianto","#3366ff99","32","32","1","0","1458","1","3","","","","","","","5c8ec49f692c610001e14eca&order=3&STUDY_ID=61caf6d05e4609be7bf98488","255","9","1","win","go","1"
"pit-trial","301","1459555","0.0-261.0","battery-v0.2","","","-1","h","elianto","#f73b6a7A","-1","-1","1","-10","","0","3","","","","","","","5c8ec49f692c610001e14eca&order=3&STUDY_ID=61caf6d05e4609be7bf98488","256","8","4","lose","no-go","1"
"pit-trial","302","1464012","0.0-262.0","battery-v0.2","","","1589","h","elianto","#f73b6a7A","-1","32","0","-10","2442","1","3","","","","","","","5c8ec49f692c610001e14eca&order=3&STUDY_ID=61caf6d05e4609be7bf98488","257","8","4","lose","no-go","0"
"pit-trial","303","1467408","0.0-263.0","battery-v0.2","","","521","y","elianto","#3366ff99","32","32","1","+10","1381","1","3","","","","","","","5c8ec49f692c610001e14eca&order=3&STUDY_ID=61caf6d05e4609be7bf98488","258","9","1","win","go","0"
"pit-trial","304","1471196","0.0-264.0","battery-v0.2","","","912","r","elianto","#f73b6a7A","32","32","1","0","1776","1","3","","","","","","","5c8ec49f692c610001e14eca&order=3&STUDY_ID=61caf6d05e4609be7bf98488","259","10","3","lose","go","0"
"pit-trial","305","1474601","0.0-265.0","battery-v0.2","","","543","m","elianto","#3366ff99","32","32","1","+10","1397","1","3","","","","","","","5c8ec49f692c610001e14eca&order=3&STUDY_ID=61caf6d05e4609be7bf98488","260","11","1","win","go","0"
