"trial_type","trial_index","time_elapsed","internal_node_id","task_version","view_history","rt","rune","rune_set","hex","correct","choice","accuracy","outcome","keys","total_keys","block","practice","value","responses","num_errors","sub","trial","stimulus","robot","valence","action","sham"
"pavlovia","0","63","0.0-0.0","battery-v0.2","","","","","","","","","","","","","","","","","","","","","","",""
"pit-instructions","1","7742","0.0-1.0-0.0","battery-v0.2","[{""page_index"":0,""viewing_time"":1768.5449999989942},{""page_index"":1,""viewing_time"":677.414999998291},{""page_index"":2,""viewing_time"":661.8299999972805},{""page_index"":3,""viewing_time"":685.2550000039628},{""page_index"":4,""viewing_time"":637.5049999915063},{""page_index"":5,""viewing_time"":846.3000000047032},{""page_index"":6,""viewing_time"":1387.7899999934016},{""page_index"":7,""viewing_time"":185.43000001227483},{""page_index"":8,""viewing_time"":411.3599999982398},{""page_index"":9,""viewing_time"":412.03500000119675}]","7674.585000000661","","","","","","","","","","","","","","","","","","","","",""
"pit-trial","2","10871","0.0-1.0-1.0-0.0","battery-v0.2","","419.450000001234","1","elianto","#3366ff99","32","32","1","+10","1919.7350000031292","1","0","1","","","","","","","","","",""
"pit-trial","3","14004","0.0-1.0-1.1-0.1","battery-v0.2","","421.7400000052294","1","elianto","#3366ff99","32","32","1","+10","1921.8699999910314","1","0","1","","","","","","","","","",""
"pit-trial","4","16978","0.0-1.0-1.2-0.2","battery-v0.2","","263.8050000095973","1","elianto","#3366ff99","32","32","1","+10","1763.8500000030035","1","0","1","","","","","","","","","",""
"pit-trial","5","19861","0.0-1.0-1.3-0.3","battery-v0.2","","175.84999999962747","1","elianto","#3366ff99","32","32","1","+10","1676.3099999952829","1","0","1","","","","","","","","","",""
"call-function","6","19866","0.0-1.0-2.0","battery-v0.2","","","","","","","","","","","","","","","","","","","","","","",""
"pit-instructions","7","20778","0.0-1.0-3.0","battery-v0.2","[{""page_index"":0,""viewing_time"":725.59000000183},{""page_index"":1,""viewing_time"":186.30000000121072}]","912.2999999963213","","","","","","","","","","","","","","","","","","","","",""
"pit-trial","8","24792","0.0-1.0-4.0-0.0","battery-v0.2","","-1","2","elianto","#3366ff99","-1","-1","1","+10","","0","0","2","","","","","","","","","",""
"pit-trial","9","28801","0.0-1.0-4.1-0.1","battery-v0.2","","-1","2","elianto","#3366ff99","-1","-1","1","+10","","0","0","2","","","","","","","","","",""
"pit-trial","10","32816","0.0-1.0-4.2-0.2","battery-v0.2","","-1","2","elianto","#3366ff99","-1","-1","1","+10","","0","0","2","","","","","","","","","",""
"pit-trial","11","36826","0.0-1.0-4.3-0.3","battery-v0.2","","-1","2","elianto","#3366ff99","-1","-1","1","+10","","0","0","2","","","","","","","","","",""
"call-function","12","36830","0.0-1.0-5.0","battery-v0.2","","","","","","","","","","","","","","","","","","","","","","",""
"pit-instructions","13","38176","0.0-1.0-6.0","battery-v0.2","[{""page_index"":0,""viewing_time"":1159.6350000036182},{""page_index"":1,""viewing_time"":185.1899999892339}]","1345.209999999497","","","","","","","","","","","","","","","","","","","","",""
"pit-trial","14","42189","0.0-1.0-7.0-0.0","battery-v0.2","","-1","3","elianto","#f73b6a7A","-1","-1","1","-1","","0","0","3","","","","","","","","","",""
"pit-trial","15","46201","0.0-1.0-7.1-0.1","battery-v0.2","","-1","3","elianto","#f73b6a7A","-1","-1","1","-1","","0","0","3","","","","","","","","","",""
"pit-trial","16","50217","0.0-1.0-7.2-0.2","battery-v0.2","","-1","3","elianto","#f73b6a7A","-1","-1","1","-1","","0","0","3","","","","","","","","","",""
"pit-trial","17","54229","0.0-1.0-7.3-0.3","battery-v0.2","","-1","3","elianto","#f73b6a7A","-1","-1","1","-1","","0","0","3","","","","","","","","","",""
"call-function","18","54233","0.0-1.0-8.0","battery-v0.2","","","","","","","","","","","","","","","","","","","","","","",""
"pit-instructions","19","124690","0.0-1.0-9.0","battery-v0.2","[{""page_index"":0,""viewing_time"":69986.30999999295},{""page_index"":1,""viewing_time"":467.90499999769963}]","70454.61999998952","","","","","","","","","","","","","","","","","","","","",""
"pit-trial","20","128481","0.0-1.0-10.0-0.0","battery-v0.2","","1080.0750000053085","4","elianto","#f73b6a7A","32","32","1","-1","2581.0850000125356","1","0","4","","","","","","","","","",""
"pit-trial","21","131390","0.0-1.0-10.1-0.1","battery-v0.2","","197.96999999380205","4","elianto","#f73b6a7A","32","32","1","-1","1698.4499999962281","1","0","4","","","","","","","","","",""
"pit-trial","22","134370","0.0-1.0-10.2-0.2","battery-v0.2","","271.89000000362284","4","elianto","#f73b6a7A","32","32","1","-1","1772.5199999986216","1","0","4","","","","","","","","","",""
"pit-trial","23","138039","0.0-1.0-10.3-0.3","battery-v0.2","","963.1150000059279","4","elianto","#f73b6a7A","32","32","1","-1","2463.4400000068126","1","0","4","","","","","","","","","",""
"call-function","24","138043","0.0-1.0-11.0","battery-v0.2","","","","","","","","","","","","","","","","","","","","","","",""
"pit-instructions","25","144848","0.0-1.0-12.0","battery-v0.2","[{""page_index"":0,""viewing_time"":1941.4399999950547},{""page_index"":1,""viewing_time"":790.0950000039302},{""page_index"":2,""viewing_time"":1016.3449999963632},{""page_index"":3,""viewing_time"":750.1749999937601},{""page_index"":4,""viewing_time"":911.2000000022817},{""page_index"":5,""viewing_time"":1395.1300000044284}]","6804.764999993495","","","","","","","","","","","","","","","","","","","","",""
"pit-comprehension","26","241257","0.0-1.0-13.0","battery-v0.2","","96399.36999999918","","","","","","","","","","","","","Press SPACE,+10,-1,True,True","0","","","","","","",""
"pit-instructions","27","244739","0.0-2.0","battery-v0.2","[{""page_index"":0,""viewing_time"":1660.3000000031898},{""page_index"":1,""viewing_time"":1814.7500000050059}]","3475.4400000092573","","","","","","","","","","","","","","","","","","","","",""
"pit-trial","28","248099","0.0-3.0","battery-v0.2","","652.1450000000186","T","bacs2","#3366ff99","-1","32","0","+10","2153.0749999947147","1","1","","","","","t1","1","1","2","win","no-go","1"
"pit-trial","29","251182","0.0-4.0","battery-v0.2","","373.37500001012813","Q","bacs2","#3366ff99","32","32","1","+10","1873.5799999994924","1","1","","","","","t1","2","2","1","win","go","0"
"pit-trial","30","255191","0.0-5.0","battery-v0.2","","-1","H","bacs2","#f73b6a7A","32","-1","0","-1","","0","1","","","","","t1","3","3","3","lose","go","1"
"pit-trial","31","258457","0.0-6.0","battery-v0.2","","558.9800000016112","Y","bacs2","#3366ff99","-1","32","0","+10","2059.1399999975692","1","1","","","","","t1","4","0","2","win","no-go","1"
"pit-trial","32","261667","0.0-7.0","battery-v0.2","","501.2750000023516","Y","bacs2","#3366ff99","-1","32","0","+1","2001.734999998007","1","1","","","","","t1","5","0","2","win","no-go","0"
"pit-trial","33","265680","0.0-8.0","battery-v0.2","","-1","T","bacs2","#3366ff99","-1","-1","1","+10","","0","1","","","","","t1","6","1","2","win","no-go","0"
"pit-trial","34","269691","0.0-9.0","battery-v0.2","","-1","Q","bacs2","#3366ff99","32","-1","0","+1","","0","1","","","","","t1","7","2","1","win","go","0"
"pit-trial","35","273707","0.0-10.0","battery-v0.2","","-1","H","bacs2","#f73b6a7A","32","-1","0","-10","","0","1","","","","","t1","8","3","3","lose","go","0"
"pit-trial","36","277719","0.0-11.0","battery-v0.2","","-1","H","bacs2","#f73b6a7A","32","-1","0","-10","","0","1","","","","","t1","9","3","3","lose","go","0"
"pit-trial","37","280727","0.0-12.0","battery-v0.2","","297.69500000111293","T","bacs2","#3366ff99","-1","32","0","+1","1797.9249999916647","1","1","","","","","t1","10","1","2","win","no-go","0"
"pit-instructions","38","286588","0.0-13.0","battery-v0.2","[{""page_index"":0,""viewing_time"":4541.354999993928},{""page_index"":1,""viewing_time"":1314.5499999955064}]","5856.289999996079","","","","","","","","","","","","","","","","","","","","",""
"pit-trial","39","289533","0.0-14.0","battery-v0.2","","235.76999999932013","Y","bacs2","#3366ff99","-1","32","0","+1","1735.8549999917159","1","1","","","","","t1","11","0","2","win","no-go","0"
"pit-trial","40","292602","0.0-15.0","battery-v0.2","","356.88000000664033","Q","bacs2","#3366ff99","32","32","1","+1","1859.3050000054063","1","1","","","","","t1","12","2","1","win","go","1"
"pit-trial","41","295909","0.0-16.0","battery-v0.2","","597.7949999942211","Y","bacs2","#3366ff99","-1","32","0","+10","2099.1999999969266","1","1","","","","","t1","13","0","2","win","no-go","1"
"pit-trial","42","299039","0.0-17.0","battery-v0.2","","419.4350000034319","H","bacs2","#f73b6a7A","32","32","1","-1","1919.6049999882234","1","1","","","","","t1","14","3","3","lose","go","0"
"pit-trial","43","302037","0.0-18.0","battery-v0.2","","286.42499999841675","T","bacs2","#3366ff99","-1","32","0","+1","1787.224999992759","1","1","","","","","t1","15","1","2","win","no-go","0"
"pit-trial","44","305129","0.0-19.0","battery-v0.2","","379.9600000056671","Q","bacs2","#3366ff99","32","32","1","+1","1880.1899999962188","1","1","","","","","t1","16","2","1","win","go","1"
"pit-trial","45","308171","0.0-20.0","battery-v0.2","","332.02499999606516","T","bacs2","#3366ff99","-1","32","0","+1","1833.1000000034692","1","1","","","","","t1","17","1","2","win","no-go","0"
"pit-trial","46","311751","0.0-21.0","battery-v0.2","","869.6000000054482","H","bacs2","#f73b6a7A","32","32","1","-1","2369.9300000007497","1","1","","","","","t1","18","3","3","lose","go","0"
"pit-trial","47","315765","0.0-22.0","battery-v0.2","","-1","Q","bacs2","#3366ff99","32","-1","0","+1","","0","1","","","","","t1","19","2","1","win","go","0"
"pit-trial","48","319782","0.0-23.0","battery-v0.2","","-1","Y","bacs2","#3366ff99","-1","-1","1","+1","","0","1","","","","","t1","20","0","2","win","no-go","1"
"pit-instructions","49","321047","0.0-24.0","battery-v0.2","[{""page_index"":0,""viewing_time"":1260.1099999883445}]","1260.5399999883957","","","","","","","","","","","","","","","","","","","","",""
