"trial_type","trial_index","time_elapsed","internal_node_id","task_version","subject_id","interactions","blur_events","focus_events","fullscreenenter_events","fullscreenexit_events","success","view_history","rt","responses","num_errors","age","subject","participantId","rune","rune_set","hex","correct","choice","accuracy","outcome","keys","total_keys","block","practice","value","sub","trial","stimulus","robot","valence","action","sham","browser_interactions"
"pavlovia","0","34","0.0-0.0","battery-v0.2","","""event"",""trial"",""time""
""blur"",""1"",""1800""
""focus"",""1"",""5659""
""fullscreenenter"",""1"",""6176""
","""event"",""trial"",""time""
""blur"",""1"",""1800""
","""event"",""trial"",""time""
""focus"",""1"",""5659""
","""event"",""trial"",""time""
""fullscreenenter"",""1"",""6176""
","
","","","","","","","","","","","","","","","","","","","","","","","","","","","",""
"fullscreen","1","7155","0.0-1.0","battery-v0.2","","""event"",""trial"",""time""
""blur"",""1"",""1800""
""focus"",""1"",""5659""
""fullscreenenter"",""1"",""6176""
","""event"",""trial"",""time""
""blur"",""1"",""1800""
","""event"",""trial"",""time""
""focus"",""1"",""5659""
","""event"",""trial"",""time""
""fullscreenenter"",""1"",""6176""
","
","true","","","","","","","","","","","","","","","","","","","","","","","","","","",""
"pit-instructions","2","12911","0.0-2.0-0.0","battery-v0.2","","""event"",""trial"",""time""
""blur"",""1"",""1800""
""focus"",""1"",""5659""
""fullscreenenter"",""1"",""6176""
","""event"",""trial"",""time""
""blur"",""1"",""1800""
","""event"",""trial"",""time""
""focus"",""1"",""5659""
","""event"",""trial"",""time""
""fullscreenenter"",""1"",""6176""
","
","","[{""page_index"":0,""viewing_time"":5751.700000047684}]","5752.200000047684","","","","","","","","","","","","","","","","","","","","","","","","",""
"pit-comprehension","3","16037","0.0-2.0-1.0-0.0","battery-v0.2","","""event"",""trial"",""time""
""blur"",""1"",""1800""
""focus"",""1"",""5659""
""fullscreenenter"",""1"",""6176""
","""event"",""trial"",""time""
""blur"",""1"",""1800""
","""event"",""trial"",""time""
""focus"",""1"",""5659""
","""event"",""trial"",""time""
""fullscreenenter"",""1"",""6176""
","
","","","3121.399999976158","[""shark""]","0","14","1070","136","","","","","","","","","","","","","","","","","","","",""
"pit-instructions","4","17329","0.0-2.0-1.0-1.0","battery-v0.2","","""event"",""trial"",""time""
""blur"",""1"",""1800""
""focus"",""1"",""5659""
""fullscreenenter"",""1"",""6176""
","""event"",""trial"",""time""
""blur"",""1"",""1800""
","""event"",""trial"",""time""
""focus"",""1"",""5659""
","""event"",""trial"",""time""
""fullscreenenter"",""1"",""6176""
","
","","[{""page_index"":0,""viewing_time"":1273.2999999523163}]","1273.699999988079","","","","","","","","","","","","","","","","","","","","","","","","",""
"pit-comprehension","5","21587","0.0-2.0-2.0-0.0","battery-v0.2","","""event"",""trial"",""time""
""blur"",""1"",""1800""
""focus"",""1"",""5659""
""fullscreenenter"",""1"",""6176""
","""event"",""trial"",""time""
""blur"",""1"",""1800""
","""event"",""trial"",""time""
""focus"",""1"",""5659""
","""event"",""trial"",""time""
""fullscreenenter"",""1"",""6176""
","
","","","4254.799999952316","[""tiger""]","0","14","1070","136","","","","","","","","","","","","","","","","","","","",""
"pit-instructions","6","22206","0.0-2.0-2.0-1.0","battery-v0.2","","""event"",""trial"",""time""
""blur"",""1"",""1800""
""focus"",""1"",""5659""
""fullscreenenter"",""1"",""6176""
","""event"",""trial"",""time""
""blur"",""1"",""1800""
","""event"",""trial"",""time""
""focus"",""1"",""5659""
","""event"",""trial"",""time""
""fullscreenenter"",""1"",""6176""
","
","","[{""page_index"":0,""viewing_time"":613.8000000119209}]","614.1999999880791","","","","","","","","","","","","","","","","","","","","","","","","",""
"pit-instructions","7","116976","0.0-2.0-3.0","battery-v0.2","","""event"",""trial"",""time""
""blur"",""1"",""1800""
""focus"",""1"",""5659""
""fullscreenenter"",""1"",""6176""
","""event"",""trial"",""time""
""blur"",""1"",""1800""
","""event"",""trial"",""time""
""focus"",""1"",""5659""
","""event"",""trial"",""time""
""fullscreenenter"",""1"",""6176""
","
","","[{""page_index"":0,""viewing_time"":9398.899999976158},{""page_index"":1,""viewing_time"":5060.200000047684},{""page_index"":2,""viewing_time"":7322.899999976158},{""page_index"":3,""viewing_time"":5525.100000023842},{""page_index"":4,""viewing_time"":5731.799999952316},{""page_index"":5,""viewing_time"":6074.200000047684},{""page_index"":6,""viewing_time"":8011.899999976158},{""page_index"":7,""viewing_time"":6342},{""page_index"":8,""viewing_time"":6335.699999988079},{""page_index"":9,""viewing_time"":8401.199999988079},{""page_index"":10,""viewing_time"":7636.100000023842},{""page_index"":11,""viewing_time"":7310.100000023842},{""page_index"":12,""viewing_time"":6711.899999976158},{""page_index"":13,""viewing_time"":4903.899999976158}]","94766.39999997616","","","","","","","","","","","","","","","","","","","","","","","","",""
"pit-trial","8","120401","0.0-2.0-4.0-0.0","battery-v0.2","","""event"",""trial"",""time""
""blur"",""1"",""1800""
""focus"",""1"",""5659""
""fullscreenenter"",""1"",""6176""
","""event"",""trial"",""time""
""blur"",""1"",""1800""
","""event"",""trial"",""time""
""focus"",""1"",""5659""
","""event"",""trial"",""time""
""fullscreenenter"",""1"",""6176""
","
","","","560.4000000357628","","","14","1070","136","&#9784;","elianto","#FFFFF080"," "," ","1","&#10004","[1410.6000000238419]","1","0","0","","","","","","","","",""
"pit-trial","9","123860","0.0-2.0-4.1-0.1","battery-v0.2","","""event"",""trial"",""time""
""blur"",""1"",""1800""
""focus"",""1"",""5659""
""fullscreenenter"",""1"",""6176""
","""event"",""trial"",""time""
""blur"",""1"",""1800""
","""event"",""trial"",""time""
""focus"",""1"",""5659""
","""event"",""trial"",""time""
""fullscreenenter"",""1"",""6176""
","
","","","595.0999999642372","","","14","1070","136","&#9784;","elianto","#FFFFF080"," "," ","1","&#10004","[1447.5]","1","0","0","","","","","","","","",""
"pit-trial","10","127319","0.0-2.0-4.2-0.2","battery-v0.2","","""event"",""trial"",""time""
""blur"",""1"",""1800""
""focus"",""1"",""5659""
""fullscreenenter"",""1"",""6176""
","""event"",""trial"",""time""
""blur"",""1"",""1800""
","""event"",""trial"",""time""
""focus"",""1"",""5659""
","""event"",""trial"",""time""
""fullscreenenter"",""1"",""6176""
","
","","","596.5999999642372","","","14","1070","136","&#9784;","elianto","#FFFFF080"," "," ","1","&#10004","[1447.5999999642372]","1","0","0","","","","","","","","",""
"pit-trial","11","131027","0.0-2.0-4.3-0.3","battery-v0.2","","""event"",""trial"",""time""
""blur"",""1"",""1800""
""focus"",""1"",""5659""
""fullscreenenter"",""1"",""6176""
","""event"",""trial"",""time""
""blur"",""1"",""1800""
","""event"",""trial"",""time""
""focus"",""1"",""5659""
","""event"",""trial"",""time""
""fullscreenenter"",""1"",""6176""
","
","","","850.6000000238419","","","14","1070","136","&#9784;","elianto","#FFFFF080"," "," ","1","&#10004","[1702]","1","0","0","","","","","","","","",""
"pit-trial","12","134584","0.0-2.0-4.4-0.4","battery-v0.2","","""event"",""trial"",""time""
""blur"",""1"",""1800""
""focus"",""1"",""5659""
""fullscreenenter"",""1"",""6176""
","""event"",""trial"",""time""
""blur"",""1"",""1800""
","""event"",""trial"",""time""
""focus"",""1"",""5659""
","""event"",""trial"",""time""
""fullscreenenter"",""1"",""6176""
","
","","","704.6999999880791","","","14","1070","136","&#9784;","elianto","#FFFFF080"," "," ","1","&#10004","[1555]","1","0","0","","","","","","","","",""
"pit-instructions","13","158378","0.0-2.0-5.0","battery-v0.2","","""event"",""trial"",""time""
""blur"",""1"",""1800""
""focus"",""1"",""5659""
""fullscreenenter"",""1"",""6176""
","""event"",""trial"",""time""
""blur"",""1"",""1800""
","""event"",""trial"",""time""
""focus"",""1"",""5659""
","""event"",""trial"",""time""
""fullscreenenter"",""1"",""6176""
","
","","[{""page_index"":0,""viewing_time"":5515.100000023842},{""page_index"":1,""viewing_time"":6519},{""page_index"":2,""viewing_time"":6334.699999988079},{""page_index"":3,""viewing_time"":5421.399999976158}]","23790.899999976158","","","","","","","","","","","","","","","","","","","","","","","","",""
"pit-trial","14","163245","0.0-2.0-6.0-0.0","battery-v0.2","","""event"",""trial"",""time""
""blur"",""1"",""1800""
""focus"",""1"",""5659""
""fullscreenenter"",""1"",""6176""
","""event"",""trial"",""time""
""blur"",""1"",""1800""
","""event"",""trial"",""time""
""focus"",""1"",""5659""
","""event"",""trial"",""time""
""fullscreenenter"",""1"",""6176""
","
","","","-1","","","14","1070","136","&#9854;","elianto","#FFFFF080","-1","-1","1","&#10004","[]","0","0","1","","","","","","","","",""
"pit-trial","15","168114","0.0-2.0-6.1-0.1","battery-v0.2","","""event"",""trial"",""time""
""blur"",""1"",""1800""
""focus"",""1"",""5659""
""fullscreenenter"",""1"",""6176""
","""event"",""trial"",""time""
""blur"",""1"",""1800""
","""event"",""trial"",""time""
""focus"",""1"",""5659""
","""event"",""trial"",""time""
""fullscreenenter"",""1"",""6176""
","
","","","-1","","","14","1070","136","&#9854;","elianto","#FFFFF080","-1","-1","1","&#10004","[]","0","0","1","","","","","","","","",""
"pit-trial","16","172989","0.0-2.0-6.2-0.2","battery-v0.2","","""event"",""trial"",""time""
""blur"",""1"",""1800""
""focus"",""1"",""5659""
""fullscreenenter"",""1"",""6176""
","""event"",""trial"",""time""
""blur"",""1"",""1800""
","""event"",""trial"",""time""
""focus"",""1"",""5659""
","""event"",""trial"",""time""
""fullscreenenter"",""1"",""6176""
","
","","","-1","","","14","1070","136","&#9854;","elianto","#FFFFF080","-1","-1","1","&#10004","[]","0","0","1","","","","","","","","",""
"pit-trial","17","177859","0.0-2.0-6.3-0.3","battery-v0.2","","""event"",""trial"",""time""
""blur"",""1"",""1800""
""focus"",""1"",""5659""
""fullscreenenter"",""1"",""6176""
","""event"",""trial"",""time""
""blur"",""1"",""1800""
","""event"",""trial"",""time""
""focus"",""1"",""5659""
","""event"",""trial"",""time""
""fullscreenenter"",""1"",""6176""
","
","","","-1","","","14","1070","136","&#9854;","elianto","#FFFFF080","-1","-1","1","&#10004","[]","0","0","1","","","","","","","","",""
"pit-trial","18","182732","0.0-2.0-6.4-0.4","battery-v0.2","","""event"",""trial"",""time""
""blur"",""1"",""1800""
""focus"",""1"",""5659""
""fullscreenenter"",""1"",""6176""
","""event"",""trial"",""time""
""blur"",""1"",""1800""
","""event"",""trial"",""time""
""focus"",""1"",""5659""
","""event"",""trial"",""time""
""fullscreenenter"",""1"",""6176""
","
","","","-1","","","14","1070","136","&#9854;","elianto","#FFFFF080","-1","-1","1","&#10004","[]","0","0","1","","","","","","","","",""
"pit-instructions","19","309589","0.0-2.0-7.0","battery-v0.2","","""event"",""trial"",""time""
""blur"",""1"",""1800""
""focus"",""1"",""5659""
""fullscreenenter"",""1"",""6176""
","""event"",""trial"",""time""
""blur"",""1"",""1800""
","""event"",""trial"",""time""
""focus"",""1"",""5659""
","""event"",""trial"",""time""
""fullscreenenter"",""1"",""6176""
","
","","[{""page_index"":0,""viewing_time"":6021.799999952316},{""page_index"":1,""viewing_time"":7369},{""page_index"":2,""viewing_time"":6459.300000011921},{""page_index"":3,""viewing_time"":6464.199999988079},{""page_index"":4,""viewing_time"":6247},{""page_index"":5,""viewing_time"":6219.300000011921},{""page_index"":6,""viewing_time"":5111.900000035763},{""page_index"":7,""viewing_time"":8398.5},{""page_index"":8,""viewing_time"":7547.5},{""page_index"":9,""viewing_time"":7427.599999964237},{""page_index"":10,""viewing_time"":8740.600000023842},{""page_index"":11,""viewing_time"":5355.099999964237},{""page_index"":12,""viewing_time"":8277.900000035763},{""page_index"":13,""viewing_time"":7346.800000011921},{""page_index"":14,""viewing_time"":8542.199999988079},{""page_index"":15,""viewing_time"":7623.899999976158},{""page_index"":16,""viewing_time"":6541.199999988079},{""page_index"":17,""viewing_time"":7160}]","126854.19999998808","","","","","","","","","","","","","","","","","","","","","","","","",""
"pit-trial","20","313081","0.0-2.0-8.0-0.0","battery-v0.2","","""event"",""trial"",""time""
""blur"",""1"",""1800""
""focus"",""1"",""5659""
""fullscreenenter"",""1"",""6176""
","""event"",""trial"",""time""
""blur"",""1"",""1800""
","""event"",""trial"",""time""
""focus"",""1"",""5659""
","""event"",""trial"",""time""
""fullscreenenter"",""1"",""6176""
","
","","","637.4000000357628","","","14","1070","136","&#9776;","elianto","#3366ff99"," "," ","1","+10","[1487.2000000476837]","1","0","1","","","","","","","","",""
"pit-trial","21","316309","0.0-2.0-8.0-1.0","battery-v0.2","","""event"",""trial"",""time""
""blur"",""1"",""1800""
""focus"",""1"",""5659""
""fullscreenenter"",""1"",""6176""
","""event"",""trial"",""time""
""blur"",""1"",""1800""
","""event"",""trial"",""time""
""focus"",""1"",""5659""
","""event"",""trial"",""time""
""fullscreenenter"",""1"",""6176""
","
","","","373.69999998807907","","","14","1070","136","&#9776;","elianto","#3366ff99"," "," ","1","+10","[1223.7999999523163]","1","0","1","","","","","","","","",""
"pit-trial","22","319352","0.0-2.0-8.0-2.0","battery-v0.2","","""event"",""trial"",""time""
""blur"",""1"",""1800""
""focus"",""1"",""5659""
""fullscreenenter"",""1"",""6176""
","""event"",""trial"",""time""
""blur"",""1"",""1800""
","""event"",""trial"",""time""
""focus"",""1"",""5659""
","""event"",""trial"",""time""
""fullscreenenter"",""1"",""6176""
","
","","","182.70000004768372","","","14","1070","136","&#9776;","elianto","#3366ff99"," "," ","1","+10","[1034.4000000357628]","1","0","1","","","","","","","","",""
"pit-trial","23","322488","0.0-2.0-8.0-3.0","battery-v0.2","","""event"",""trial"",""time""
""blur"",""1"",""1800""
""focus"",""1"",""5659""
""fullscreenenter"",""1"",""6176""
","""event"",""trial"",""time""
""blur"",""1"",""1800""
","""event"",""trial"",""time""
""focus"",""1"",""5659""
","""event"",""trial"",""time""
""fullscreenenter"",""1"",""6176""
","
","","","272.69999998807907","","","14","1070","136","&#9776;","elianto","#3366ff99"," "," ","1","0","[1123.800000011921]","1","0","1","","","","","","","","",""
"pit-trial","24","325929","0.0-2.0-8.0-4.0","battery-v0.2","","""event"",""trial"",""time""
""blur"",""1"",""1800""
""focus"",""1"",""5659""
""fullscreenenter"",""1"",""6176""
","""event"",""trial"",""time""
""blur"",""1"",""1800""
","""event"",""trial"",""time""
""focus"",""1"",""5659""
","""event"",""trial"",""time""
""fullscreenenter"",""1"",""6176""
","
","","","586.5","","","14","1070","136","&#9776;","elianto","#3366ff99"," "," ","1","+10","[1437.2999999523163]","1","0","1","","","","","","","","",""
"call-function","25","325932","0.0-2.0-9.0","battery-v0.2","","""event"",""trial"",""time""
""blur"",""1"",""1800""
""focus"",""1"",""5659""
""fullscreenenter"",""1"",""6176""
","""event"",""trial"",""time""
""blur"",""1"",""1800""
","""event"",""trial"",""time""
""focus"",""1"",""5659""
","""event"",""trial"",""time""
""fullscreenenter"",""1"",""6176""
","
","","","","","","","","","","","","","","","","","","","","","","","","","","","",""
"pit-instructions","26","366806","0.0-2.0-10.0","battery-v0.2","","""event"",""trial"",""time""
""blur"",""1"",""1800""
""focus"",""1"",""5659""
""fullscreenenter"",""1"",""6176""
","""event"",""trial"",""time""
""blur"",""1"",""1800""
","""event"",""trial"",""time""
""focus"",""1"",""5659""
","""event"",""trial"",""time""
""fullscreenenter"",""1"",""6176""
","
","","[{""page_index"":0,""viewing_time"":5734},{""page_index"":1,""viewing_time"":7118.300000011921},{""page_index"":2,""viewing_time"":10585.800000011921},{""page_index"":3,""viewing_time"":9983.099999964237},{""page_index"":4,""viewing_time"":7451}]","40873","","","","","","","","","","","","","","","","","","","","","","","","",""
"pit-trial","27","371679","0.0-2.0-11.0-0.0","battery-v0.2","","""event"",""trial"",""time""
""blur"",""1"",""1800""
""focus"",""1"",""5659""
""fullscreenenter"",""1"",""6176""
","""event"",""trial"",""time""
""blur"",""1"",""1800""
","""event"",""trial"",""time""
""focus"",""1"",""5659""
","""event"",""trial"",""time""
""fullscreenenter"",""1"",""6176""
","
","","","-1","","","14","1070","136","&#9761;","elianto","#3366ff99","-1","-1","1","+10","[]","0","0","2","","","","","","","","",""
"pit-trial","28","376550","0.0-2.0-11.0-1.0","battery-v0.2","","""event"",""trial"",""time""
""blur"",""1"",""1800""
""focus"",""1"",""5659""
""fullscreenenter"",""1"",""6176""
","""event"",""trial"",""time""
""blur"",""1"",""1800""
","""event"",""trial"",""time""
""focus"",""1"",""5659""
","""event"",""trial"",""time""
""fullscreenenter"",""1"",""6176""
","
","","","-1","","","14","1070","136","&#9761;","elianto","#3366ff99","-1","-1","1","+10","[]","0","0","2","","","","","","","","",""
"pit-trial","29","381414","0.0-2.0-11.0-2.0","battery-v0.2","","""event"",""trial"",""time""
""blur"",""1"",""1800""
""focus"",""1"",""5659""
""fullscreenenter"",""1"",""6176""
","""event"",""trial"",""time""
""blur"",""1"",""1800""
","""event"",""trial"",""time""
""focus"",""1"",""5659""
","""event"",""trial"",""time""
""fullscreenenter"",""1"",""6176""
","
","","","-1","","","14","1070","136","&#9761;","elianto","#3366ff99","-1","-1","1","+10","[]","0","0","2","","","","","","","","",""
"pit-trial","30","386277","0.0-2.0-11.0-3.0","battery-v0.2","","""event"",""trial"",""time""
""blur"",""1"",""1800""
""focus"",""1"",""5659""
""fullscreenenter"",""1"",""6176""
","""event"",""trial"",""time""
""blur"",""1"",""1800""
","""event"",""trial"",""time""
""focus"",""1"",""5659""
","""event"",""trial"",""time""
""fullscreenenter"",""1"",""6176""
","
","","","-1","","","14","1070","136","&#9761;","elianto","#3366ff99","-1","-1","1","0","[]","0","0","2","","","","","","","","",""
"pit-trial","31","391150","0.0-2.0-11.0-4.0","battery-v0.2","","""event"",""trial"",""time""
""blur"",""1"",""1800""
""focus"",""1"",""5659""
""fullscreenenter"",""1"",""6176""
","""event"",""trial"",""time""
""blur"",""1"",""1800""
","""event"",""trial"",""time""
""focus"",""1"",""5659""
","""event"",""trial"",""time""
""fullscreenenter"",""1"",""6176""
","
","","","-1","","","14","1070","136","&#9761;","elianto","#3366ff99","-1","-1","1","+10","[]","0","0","2","","","","","","","","",""
"call-function","32","391152","0.0-2.0-12.0","battery-v0.2","","""event"",""trial"",""time""
""blur"",""1"",""1800""
""focus"",""1"",""5659""
""fullscreenenter"",""1"",""6176""
","""event"",""trial"",""time""
""blur"",""1"",""1800""
","""event"",""trial"",""time""
""focus"",""1"",""5659""
","""event"",""trial"",""time""
""fullscreenenter"",""1"",""6176""
","
","","","","","","","","","","","","","","","","","","","","","","","","","","","",""
"pit-instructions","33","425730","0.0-2.0-13.0","battery-v0.2","","""event"",""trial"",""time""
""blur"",""1"",""1800""
""focus"",""1"",""5659""
""fullscreenenter"",""1"",""6176""
","""event"",""trial"",""time""
""blur"",""1"",""1800""
","""event"",""trial"",""time""
""focus"",""1"",""5659""
","""event"",""trial"",""time""
""fullscreenenter"",""1"",""6176""
","
","","[{""page_index"":0,""viewing_time"":5006.899999976158},{""page_index"":1,""viewing_time"":7639.600000023842},{""page_index"":2,""viewing_time"":4121.899999976158},{""page_index"":3,""viewing_time"":11430.300000011921},{""page_index"":4,""viewing_time"":6378.100000023842}]","34577.10000002384","","","","","","","","","","","","","","","","","","","","","","","","",""
"pit-trial","34","429151","0.0-2.0-14.0-0.0","battery-v0.2","","""event"",""trial"",""time""
""blur"",""1"",""1800""
""focus"",""1"",""5659""
""fullscreenenter"",""1"",""6176""
","""event"",""trial"",""time""
""blur"",""1"",""1800""
","""event"",""trial"",""time""
""focus"",""1"",""5659""
","""event"",""trial"",""time""
""fullscreenenter"",""1"",""6176""
","
","","","555","","","14","1070","136","&#9826;","elianto","#f73b6a7A","-1"," ","0","-10","[1405.699999988079]","1","0","3","","","","","","","","",""
"pit-trial","35","434032","0.0-2.0-14.0-1.0","battery-v0.2","","""event"",""trial"",""time""
""blur"",""1"",""1800""
""focus"",""1"",""5659""
""fullscreenenter"",""1"",""6176""
","""event"",""trial"",""time""
""blur"",""1"",""1800""
","""event"",""trial"",""time""
""focus"",""1"",""5659""
","""event"",""trial"",""time""
""fullscreenenter"",""1"",""6176""
","
","","","-1","","","14","1070","136","&#9826;","elianto","#f73b6a7A","-1","-1","1","0","[]","0","0","3","","","","","","","","",""
"pit-trial","36","438895","0.0-2.0-14.0-2.0","battery-v0.2","","""event"",""trial"",""time""
""blur"",""1"",""1800""
""focus"",""1"",""5659""
""fullscreenenter"",""1"",""6176""
","""event"",""trial"",""time""
""blur"",""1"",""1800""
","""event"",""trial"",""time""
""focus"",""1"",""5659""
","""event"",""trial"",""time""
""fullscreenenter"",""1"",""6176""
","
","","","-1","","","14","1070","136","&#9826;","elianto","#f73b6a7A","-1","-1","1","0","[]","0","0","3","","","","","","","","",""
"pit-trial","37","443765","0.0-2.0-14.0-3.0","battery-v0.2","","""event"",""trial"",""time""
""blur"",""1"",""1800""
""focus"",""1"",""5659""
""fullscreenenter"",""1"",""6176""
","""event"",""trial"",""time""
""blur"",""1"",""1800""
","""event"",""trial"",""time""
""focus"",""1"",""5659""
","""event"",""trial"",""time""
""fullscreenenter"",""1"",""6176""
","
","","","-1","","","14","1070","136","&#9826;","elianto","#f73b6a7A","-1","-1","1","-10","[]","0","0","3","","","","","","","","",""
"pit-trial","38","448640","0.0-2.0-14.0-4.0","battery-v0.2","","""event"",""trial"",""time""
""blur"",""1"",""1800""
""focus"",""1"",""5659""
""fullscreenenter"",""1"",""6176""
","""event"",""trial"",""time""
""blur"",""1"",""1800""
","""event"",""trial"",""time""
""focus"",""1"",""5659""
","""event"",""trial"",""time""
""fullscreenenter"",""1"",""6176""
","
","","","-1","","","14","1070","136","&#9826;","elianto","#f73b6a7A","-1","-1","1","0","[]","0","0","3","","","","","","","","",""
"call-function","39","448642","0.0-2.0-15.0","battery-v0.2","","""event"",""trial"",""time""
""blur"",""1"",""1800""
""focus"",""1"",""5659""
""fullscreenenter"",""1"",""6176""
","""event"",""trial"",""time""
""blur"",""1"",""1800""
","""event"",""trial"",""time""
""focus"",""1"",""5659""
","""event"",""trial"",""time""
""fullscreenenter"",""1"",""6176""
","
","","","","","","","","","","","","","","","","","","","","","","","","","","","",""
"pit-instructions","40","488426","0.0-2.0-16.0","battery-v0.2","","""event"",""trial"",""time""
""blur"",""1"",""1800""
""focus"",""1"",""5659""
""fullscreenenter"",""1"",""6176""
","""event"",""trial"",""time""
""blur"",""1"",""1800""
","""event"",""trial"",""time""
""focus"",""1"",""5659""
","""event"",""trial"",""time""
""fullscreenenter"",""1"",""6176""
","
","","[{""page_index"":0,""viewing_time"":8346.800000011921},{""page_index"":1,""viewing_time"":10354.800000011921},{""page_index"":2,""viewing_time"":6884.300000011921},{""page_index"":3,""viewing_time"":8414.099999964237},{""page_index"":2,""viewing_time"":1065.4000000357628},{""page_index"":3,""viewing_time"":4717.099999964237}]","39783","","","","","","","","","","","","","","","","","","","","","","","","",""
"pit-trial","41","492200","0.0-2.0-17.0-0.0","battery-v0.2","","""event"",""trial"",""time""
""blur"",""1"",""1800""
""focus"",""1"",""5659""
""fullscreenenter"",""1"",""6176""
","""event"",""trial"",""time""
""blur"",""1"",""1800""
","""event"",""trial"",""time""
""focus"",""1"",""5659""
","""event"",""trial"",""time""
""fullscreenenter"",""1"",""6176""
","
","","","909","","","14","1070","136","&#9789;","elianto","#f73b6a7A"," "," ","1","0","[1760.3999999761581,3363.899999976158]","2","0","4","","","","","","","","",""
"pit-trial","42","495495","0.0-2.0-17.0-1.0","battery-v0.2","","""event"",""trial"",""time""
""blur"",""1"",""1800""
""focus"",""1"",""5659""
""fullscreenenter"",""1"",""6176""
","""event"",""trial"",""time""
""blur"",""1"",""1800""
","""event"",""trial"",""time""
""focus"",""1"",""5659""
","""event"",""trial"",""time""
""fullscreenenter"",""1"",""6176""
","
","","","430.80000001192093","","","14","1070","136","&#9789;","elianto","#f73b6a7A"," "," ","1","0","[1283.8999999761581]","1","0","4","","","","","","","","",""
"pit-trial","43","499227","0.0-2.0-17.0-2.0","battery-v0.2","","""event"",""trial"",""time""
""blur"",""1"",""1800""
""focus"",""1"",""5659""
""fullscreenenter"",""1"",""6176""
","""event"",""trial"",""time""
""blur"",""1"",""1800""
","""event"",""trial"",""time""
""focus"",""1"",""5659""
","""event"",""trial"",""time""
""fullscreenenter"",""1"",""6176""
","
","","","872.1999999880791","","","14","1070","136","&#9789;","elianto","#f73b6a7A"," "," ","1","0","[1722.8999999761581]","1","0","4","","","","","","","","",""
"pit-trial","44","502908","0.0-2.0-17.0-3.0","battery-v0.2","","""event"",""trial"",""time""
""blur"",""1"",""1800""
""focus"",""1"",""5659""
""fullscreenenter"",""1"",""6176""
","""event"",""trial"",""time""
""blur"",""1"",""1800""
","""event"",""trial"",""time""
""focus"",""1"",""5659""
","""event"",""trial"",""time""
""fullscreenenter"",""1"",""6176""
","
","","","824.6999999880791","","","14","1070","136","&#9789;","elianto","#f73b6a7A"," "," ","1","-10","[1675.699999988079]","1","0","4","","","","","","","","",""
"pit-trial","45","506817","0.0-2.0-17.0-4.0","battery-v0.2","","""event"",""trial"",""time""
""blur"",""1"",""1800""
""focus"",""1"",""5659""
""fullscreenenter"",""1"",""6176""
","""event"",""trial"",""time""
""blur"",""1"",""1800""
","""event"",""trial"",""time""
""focus"",""1"",""5659""
","""event"",""trial"",""time""
""fullscreenenter"",""1"",""6176""
","
","","","1051.4000000357628","","","14","1070","136","&#9789;","elianto","#f73b6a7A"," "," ","1","0","[1903.2000000476837]","1","0","4","","","","","","","","",""
"call-function","46","506819","0.0-2.0-18.0","battery-v0.2","","""event"",""trial"",""time""
""blur"",""1"",""1800""
""focus"",""1"",""5659""
""fullscreenenter"",""1"",""6176""
","""event"",""trial"",""time""
""blur"",""1"",""1800""
","""event"",""trial"",""time""
""focus"",""1"",""5659""
","""event"",""trial"",""time""
""fullscreenenter"",""1"",""6176""
","
","","","","","","","","","","","","","","","","","","","","","","","","","","","",""
"pit-instructions","47","583160","0.0-2.0-19.0","battery-v0.2","","""event"",""trial"",""time""
""blur"",""1"",""1800""
""focus"",""1"",""5659""
""fullscreenenter"",""1"",""6176""
","""event"",""trial"",""time""
""blur"",""1"",""1800""
","""event"",""trial"",""time""
""focus"",""1"",""5659""
","""event"",""trial"",""time""
""fullscreenenter"",""1"",""6176""
","
","","[{""page_index"":0,""viewing_time"":7440.400000035763},{""page_index"":1,""viewing_time"":9719.699999988079},{""page_index"":2,""viewing_time"":15135.5},{""page_index"":3,""viewing_time"":9001.800000011921},{""page_index"":4,""viewing_time"":6790},{""page_index"":5,""viewing_time"":8514.300000011921},{""page_index"":6,""viewing_time"":5571.5},{""page_index"":7,""viewing_time"":6171},{""page_index"":8,""viewing_time"":7996.699999988079}]","76341.40000003576","","","","","","","","","","","","","","","","","","","","","","","","",""
"pit-comprehension","48","587564","0.0-2.0-20.0-0.0","battery-v0.2","","""event"",""trial"",""time""
""blur"",""1"",""1800""
""focus"",""1"",""5659""
""fullscreenenter"",""1"",""6176""
","""event"",""trial"",""time""
""blur"",""1"",""1800""
","""event"",""trial"",""time""
""focus"",""1"",""5659""
","""event"",""trial"",""time""
""fullscreenenter"",""1"",""6176""
","
","","","4395.200000047684","[""SPACE""]","0","14","1070","136","","","","","","","","","","","","","","","","","","","",""
"pit-instructions","49","591335","0.0-2.0-20.0-1.0","battery-v0.2","","""event"",""trial"",""time""
""blur"",""1"",""1800""
""focus"",""1"",""5659""
""fullscreenenter"",""1"",""6176""
","""event"",""trial"",""time""
""blur"",""1"",""1800""
","""event"",""trial"",""time""
""focus"",""1"",""5659""
","""event"",""trial"",""time""
""fullscreenenter"",""1"",""6176""
","
","","[{""page_index"":0,""viewing_time"":3752.2999999523163}]","3752.699999988079","","","","","","","","","","","","","","","","","","","","","","","","",""
"pit-comprehension","50","598232","0.0-2.0-21.0-0.0","battery-v0.2","","""event"",""trial"",""time""
""blur"",""1"",""1800""
""focus"",""1"",""5659""
""fullscreenenter"",""1"",""6176""
","""event"",""trial"",""time""
""blur"",""1"",""1800""
","""event"",""trial"",""time""
""focus"",""1"",""5659""
","""event"",""trial"",""time""
""fullscreenenter"",""1"",""6176""
","
","","","6893.099999964237","[""10""]","0","14","1070","136","","","","","","","","","","","","","","","","","","","",""
"pit-instructions","51","603517","0.0-2.0-21.0-1.0","battery-v0.2","","""event"",""trial"",""time""
""blur"",""1"",""1800""
""focus"",""1"",""5659""
""fullscreenenter"",""1"",""6176""
","""event"",""trial"",""time""
""blur"",""1"",""1800""
","""event"",""trial"",""time""
""focus"",""1"",""5659""
","""event"",""trial"",""time""
""fullscreenenter"",""1"",""6176""
","
","","[{""page_index"":0,""viewing_time"":5268.400000035763}]","5269","","","","","","","","","","","","","","","","","","","","","","","","",""
"pit-comprehension","52","609911","0.0-2.0-22.0-0.0","battery-v0.2","","""event"",""trial"",""time""
""blur"",""1"",""1800""
""focus"",""1"",""5659""
""fullscreenenter"",""1"",""6176""
","""event"",""trial"",""time""
""blur"",""1"",""1800""
","""event"",""trial"",""time""
""focus"",""1"",""5659""
","""event"",""trial"",""time""
""fullscreenenter"",""1"",""6176""
","
","","","6386.699999988079","[""0""]","0","14","1070","136","","","","","","","","","","","","","","","","","","","",""
"pit-instructions","53","611636","0.0-2.0-22.0-1.0","battery-v0.2","","""event"",""trial"",""time""
""blur"",""1"",""1800""
""focus"",""1"",""5659""
""fullscreenenter"",""1"",""6176""
","""event"",""trial"",""time""
""blur"",""1"",""1800""
","""event"",""trial"",""time""
""focus"",""1"",""5659""
","""event"",""trial"",""time""
""fullscreenenter"",""1"",""6176""
","
","","[{""page_index"":0,""viewing_time"":1705.199999988079}]","1705.699999988079","","","","","","","","","","","","","","","","","","","","","","","","",""
"pit-comprehension","54","621621","0.0-2.0-23.0-0.0","battery-v0.2","","""event"",""trial"",""time""
""blur"",""1"",""1800""
""focus"",""1"",""5659""
""fullscreenenter"",""1"",""6176""
","""event"",""trial"",""time""
""blur"",""1"",""1800""
","""event"",""trial"",""time""
""focus"",""1"",""5659""
","""event"",""trial"",""time""
""fullscreenenter"",""1"",""6176""
","
","","","9982","[""True""]","0","14","1070","136","","","","","","","","","","","","","","","","","","","",""
"pit-instructions","55","623143","0.0-2.0-23.0-1.0","battery-v0.2","","""event"",""trial"",""time""
""blur"",""1"",""1800""
""focus"",""1"",""5659""
""fullscreenenter"",""1"",""6176""
","""event"",""trial"",""time""
""blur"",""1"",""1800""
","""event"",""trial"",""time""
""focus"",""1"",""5659""
","""event"",""trial"",""time""
""fullscreenenter"",""1"",""6176""
","
","","[{""page_index"":0,""viewing_time"":1500.5}]","1500.8999999761581","","","","","","","","","","","","","","","","","","","","","","","","",""
"pit-comprehension","56","630381","0.0-2.0-24.0-0.0","battery-v0.2","","""event"",""trial"",""time""
""blur"",""1"",""1800""
""focus"",""1"",""5659""
""fullscreenenter"",""1"",""6176""
","""event"",""trial"",""time""
""blur"",""1"",""1800""
","""event"",""trial"",""time""
""focus"",""1"",""5659""
","""event"",""trial"",""time""
""fullscreenenter"",""1"",""6176""
","
","","","7230.800000011921","[""True""]","0","14","1070","136","","","","","","","","","","","","","","","","","","","",""
"pit-instructions","57","633374","0.0-2.0-24.0-1.0","battery-v0.2","","""event"",""trial"",""time""
""blur"",""1"",""1800""
""focus"",""1"",""5659""
""fullscreenenter"",""1"",""6176""
","""event"",""trial"",""time""
""blur"",""1"",""1800""
","""event"",""trial"",""time""
""focus"",""1"",""5659""
","""event"",""trial"",""time""
""fullscreenenter"",""1"",""6176""
","
","","[{""page_index"":0,""viewing_time"":2972.099999964237}]","2972.5","","","","","","","","","","","","","","","","","","","","","","","","",""
"pit-comprehension","58","639800","0.0-2.0-25.0-0.0","battery-v0.2","","""event"",""trial"",""time""
""blur"",""1"",""1800""
""focus"",""1"",""5659""
""fullscreenenter"",""1"",""6176""
","""event"",""trial"",""time""
""blur"",""1"",""1800""
","""event"",""trial"",""time""
""focus"",""1"",""5659""
","""event"",""trial"",""time""
""fullscreenenter"",""1"",""6176""
","
","","","6422.899999976158","[""True""]","0","14","1070","136","","","","","","","","","","","","","","","","","","","",""
"pit-instructions","59","644456","0.0-2.0-25.0-1.0","battery-v0.2","","""event"",""trial"",""time""
""blur"",""1"",""1800""
""focus"",""1"",""5659""
""fullscreenenter"",""1"",""6176""
","""event"",""trial"",""time""
""blur"",""1"",""1800""
","""event"",""trial"",""time""
""focus"",""1"",""5659""
","""event"",""trial"",""time""
""fullscreenenter"",""1"",""6176""
","
","","[{""page_index"":0,""viewing_time"":4631.700000047684}]","4632.100000023842","","","","","","","","","","","","","","","","","","","","","","","","",""
"pit-comprehension","60","651127","0.0-2.0-26.0-0.0","battery-v0.2","","""event"",""trial"",""time""
""blur"",""1"",""1800""
""focus"",""1"",""5659""
""fullscreenenter"",""1"",""6176""
","""event"",""trial"",""time""
""blur"",""1"",""1800""
","""event"",""trial"",""time""
""focus"",""1"",""5659""
","""event"",""trial"",""time""
""fullscreenenter"",""1"",""6176""
","
","","","6667.400000035763","[""False""]","0","14","1070","136","","","","","","","","","","","","","","","","","","","",""
"pit-instructions","61","654970","0.0-2.0-26.0-1.0","battery-v0.2","","""event"",""trial"",""time""
""blur"",""1"",""1800""
""focus"",""1"",""5659""
""fullscreenenter"",""1"",""6176""
","""event"",""trial"",""time""
""blur"",""1"",""1800""
","""event"",""trial"",""time""
""focus"",""1"",""5659""
","""event"",""trial"",""time""
""fullscreenenter"",""1"",""6176""
","
","","[{""page_index"":0,""viewing_time"":3821.699999988079}]","3822.2999999523163","","","","","","","","","","","","","","","","","","","","","","","","",""
"pit-instructions","62","675450","0.0-3.0","battery-v0.2","","""event"",""trial"",""time""
""blur"",""1"",""1800""
""focus"",""1"",""5659""
""fullscreenenter"",""1"",""6176""
","""event"",""trial"",""time""
""blur"",""1"",""1800""
","""event"",""trial"",""time""
""focus"",""1"",""5659""
","""event"",""trial"",""time""
""fullscreenenter"",""1"",""6176""
","
","","[{""page_index"":0,""viewing_time"":8327.300000011921},{""page_index"":1,""viewing_time"":5403.600000023842},{""page_index"":2,""viewing_time"":6741.199999988079}]","20472.80000001192","","","","","","","","","","","","","","","","","","","","","","","","",""
"pit-trial","63","678891","0.0-4.0","battery-v0.2","","""event"",""trial"",""time""
""blur"",""1"",""1800""
""focus"",""1"",""5659""
""fullscreenenter"",""1"",""6176""
","""event"",""trial"",""time""
""blur"",""1"",""1800""
","""event"",""trial"",""time""
""focus"",""1"",""5659""
","""event"",""trial"",""time""
""fullscreenenter"",""1"",""6176""
","
","","","575.5999999642372","","","14","1070","136","&#9752;","elianto","#f73b6a7A"," "," ","1","0","[1427.2999999523163]","1","1","","","1070","1","3","3","lose","go","0","[]"
"pit-trial","64","682462","0.0-5.0","battery-v0.2","","""event"",""trial"",""time""
""blur"",""1"",""1800""
""focus"",""1"",""5659""
""fullscreenenter"",""1"",""6176""
","""event"",""trial"",""time""
""blur"",""1"",""1800""
","""event"",""trial"",""time""
""focus"",""1"",""5659""
","""event"",""trial"",""time""
""fullscreenenter"",""1"",""6176""
","
","","","713.0999999642372","","","14","1070","136","&#9730;","elianto","#3366ff99"," "," ","1","+10","[1563.199999988079]","1","1","","","1070","2","1","1","win","go","0","0"
"pit-trial","65","686258","0.0-6.0","battery-v0.2","","""event"",""trial"",""time""
""blur"",""1"",""1800""
""focus"",""1"",""5659""
""fullscreenenter"",""1"",""6176""
","""event"",""trial"",""time""
""blur"",""1"",""1800""
","""event"",""trial"",""time""
""focus"",""1"",""5659""
","""event"",""trial"",""time""
""fullscreenenter"",""1"",""6176""
","
","","","932.9000000357628","","","14","1070","136","&#9728;","elianto","#f73b6a7A","-1"," ","0","0","[1782.800000011921]","1","1","","","1070","3","0","4","lose","no-go","1","0"
"pit-trial","66","689911","0.0-7.0","battery-v0.2","","""event"",""trial"",""time""
""blur"",""1"",""1800""
""focus"",""1"",""5659""
""fullscreenenter"",""1"",""6176""
","""event"",""trial"",""time""
""blur"",""1"",""1800""
","""event"",""trial"",""time""
""focus"",""1"",""5659""
","""event"",""trial"",""time""
""fullscreenenter"",""1"",""6176""
","
","","","781.5999999642372","","","14","1070","136","&#9733;","elianto","#3366ff99","-1"," ","0","0","[1632.0999999642372]","1","1","","","1070","4","2","2","win","no-go","0","0"
"pit-trial","67","693608","0.0-8.0","battery-v0.2","","""event"",""trial"",""time""
""blur"",""1"",""1800""
""focus"",""1"",""5659""
""fullscreenenter"",""1"",""6176""
","""event"",""trial"",""time""
""blur"",""1"",""1800""
","""event"",""trial"",""time""
""focus"",""1"",""5659""
","""event"",""trial"",""time""
""fullscreenenter"",""1"",""6176""
","
","","","838.9000000357628","","","14","1070","136","&#9752;","elianto","#f73b6a7A"," "," ","1","-10","[1689.699999988079,3494.199999988079]","2","1","","","1070","5","3","3","lose","go","1","0"
"pit-trial","68","697147","0.0-9.0","battery-v0.2","","""event"",""trial"",""time""
""blur"",""1"",""1800""
""focus"",""1"",""5659""
""fullscreenenter"",""1"",""6176""
","""event"",""trial"",""time""
""blur"",""1"",""1800""
","""event"",""trial"",""time""
""focus"",""1"",""5659""
","""event"",""trial"",""time""
""fullscreenenter"",""1"",""6176""
","
","","","674.5999999642372","","","14","1070","136","&#9730;","elianto","#3366ff99"," "," ","1","+10","[1526.199999988079]","1","1","","","1070","6","1","1","win","go","0","0"
"pit-trial","69","702019","0.0-10.0","battery-v0.2","","""event"",""trial"",""time""
""blur"",""1"",""1800""
""focus"",""1"",""5659""
""fullscreenenter"",""1"",""6176""
","""event"",""trial"",""time""
""blur"",""1"",""1800""
","""event"",""trial"",""time""
""focus"",""1"",""5659""
","""event"",""trial"",""time""
""fullscreenenter"",""1"",""6176""
","
","","","-1","","","14","1070","136","&#9733;","elianto","#3366ff99","-1","-1","1","+10","[]","0","1","","","1070","7","2","2","win","no-go","0","0"
"pit-trial","70","705460","0.0-11.0","battery-v0.2","","""event"",""trial"",""time""
""blur"",""1"",""1800""
""focus"",""1"",""5659""
""fullscreenenter"",""1"",""6176""
","""event"",""trial"",""time""
""blur"",""1"",""1800""
","""event"",""trial"",""time""
""focus"",""1"",""5659""
","""event"",""trial"",""time""
""fullscreenenter"",""1"",""6176""
","
","","","581.8000000119209","","","14","1070","136","&#9728;","elianto","#f73b6a7A","-1"," ","0","-10","[1432.6000000238419]","1","1","","","1070","8","0","4","lose","no-go","0","0"
"pit-trial","71","710315","0.0-12.0","battery-v0.2","","""event"",""trial"",""time""
""blur"",""1"",""1800""
""focus"",""1"",""5659""
""fullscreenenter"",""1"",""6176""
","""event"",""trial"",""time""
""blur"",""1"",""1800""
","""event"",""trial"",""time""
""focus"",""1"",""5659""
","""event"",""trial"",""time""
""fullscreenenter"",""1"",""6176""
","
","","","-1","","","14","1070","136","&#9728;","elianto","#f73b6a7A","-1","-1","1","-10","[3740.800000011921]","1","1","","","1070","9","0","4","lose","no-go","1","0"
"pit-trial","72","714052","0.0-13.0","battery-v0.2","","""event"",""trial"",""time""
""blur"",""1"",""1800""
""focus"",""1"",""5659""
""fullscreenenter"",""1"",""6176""
","""event"",""trial"",""time""
""blur"",""1"",""1800""
","""event"",""trial"",""time""
""focus"",""1"",""5659""
","""event"",""trial"",""time""
""fullscreenenter"",""1"",""6176""
","
","","","883.5","","","14","1070","136","&#9752;","elianto","#f73b6a7A"," "," ","1","0","[1734]","1","1","","","1070","10","3","3","lose","go","0","0"
"pit-trial","73","717394","0.0-14.0","battery-v0.2","","""event"",""trial"",""time""
""blur"",""1"",""1800""
""focus"",""1"",""5659""
""fullscreenenter"",""1"",""6176""
","""event"",""trial"",""time""
""blur"",""1"",""1800""
","""event"",""trial"",""time""
""focus"",""1"",""5659""
","""event"",""trial"",""time""
""fullscreenenter"",""1"",""6176""
","
","","","486","","","14","1070","136","&#9730;","elianto","#3366ff99"," "," ","1","+10","[1337.7999999523163]","1","1","","","1070","11","1","1","win","go","0","0"
"pit-trial","74","720774","0.0-15.0","battery-v0.2","","""event"",""trial"",""time""
""blur"",""1"",""1800""
""focus"",""1"",""5659""
""fullscreenenter"",""1"",""6176""
","""event"",""trial"",""time""
""blur"",""1"",""1800""
","""event"",""trial"",""time""
""focus"",""1"",""5659""
","""event"",""trial"",""time""
""fullscreenenter"",""1"",""6176""
","
","","","526.5999999642372","","","14","1070","136","&#9733;","elianto","#3366ff99","-1"," ","0","0","[1376.7000000476837,2638.300000011921]","2","1","","","1070","12","2","2","win","no-go","0","0"
"pit-trial","75","725629","0.0-16.0","battery-v0.2","","""event"",""trial"",""time""
""blur"",""1"",""1800""
""focus"",""1"",""5659""
""fullscreenenter"",""1"",""6176""
","""event"",""trial"",""time""
""blur"",""1"",""1800""
","""event"",""trial"",""time""
""focus"",""1"",""5659""
","""event"",""trial"",""time""
""fullscreenenter"",""1"",""6176""
","
","","","-1","","","14","1070","136","&#9733;","elianto","#3366ff99","-1","-1","1","+10","[]","0","1","","","1070","13","2","2","win","no-go","0","0"
"pit-trial","76","729174","0.0-17.0","battery-v0.2","","""event"",""trial"",""time""
""blur"",""1"",""1800""
""focus"",""1"",""5659""
""fullscreenenter"",""1"",""6176""
","""event"",""trial"",""time""
""blur"",""1"",""1800""
","""event"",""trial"",""time""
""focus"",""1"",""5659""
","""event"",""trial"",""time""
""fullscreenenter"",""1"",""6176""
","
","","","691","","","14","1070","136","&#9730;","elianto","#3366ff99"," "," ","1","+10","[1541.5999999642372]","1","1","","","1070","14","1","1","win","go","0","0"
"pit-trial","77","732948","0.0-18.0","battery-v0.2","","""event"",""trial"",""time""
""blur"",""1"",""1800""
""focus"",""1"",""5659""
""fullscreenenter"",""1"",""6176""
","""event"",""trial"",""time""
""blur"",""1"",""1800""
","""event"",""trial"",""time""
""focus"",""1"",""5659""
","""event"",""trial"",""time""
""fullscreenenter"",""1"",""6176""
","
","","","921.5","","","14","1070","136","&#9752;","elianto","#f73b6a7A"," "," ","1","0","[1772.300000011921]","1","1","","","1070","15","3","3","lose","go","0","0"
"pit-trial","78","736847","0.0-19.0","battery-v0.2","","""event"",""trial"",""time""
""blur"",""1"",""1800""
""focus"",""1"",""5659""
""fullscreenenter"",""1"",""6176""
","""event"",""trial"",""time""
""blur"",""1"",""1800""
","""event"",""trial"",""time""
""focus"",""1"",""5659""
","""event"",""trial"",""time""
""fullscreenenter"",""1"",""6176""
","
","","","1045.0999999642372","","","14","1070","136","&#9728;","elianto","#f73b6a7A","-1"," ","0","-10","[1895.300000011921]","1","1","","","1070","16","0","4","lose","no-go","0","0"
"pit-trial","79","741700","0.0-20.0","battery-v0.2","","""event"",""trial"",""time""
""blur"",""1"",""1800""
""focus"",""1"",""5659""
""fullscreenenter"",""1"",""6176""
","""event"",""trial"",""time""
""blur"",""1"",""1800""
","""event"",""trial"",""time""
""focus"",""1"",""5659""
","""event"",""trial"",""time""
""fullscreenenter"",""1"",""6176""
","
","","","-1","","","14","1070","136","&#9728;","elianto","#f73b6a7A","-1","-1","1","0","[]","0","1","","","1070","17","0","4","lose","no-go","0","0"
"pit-trial","80","745455","0.0-21.0","battery-v0.2","","""event"",""trial"",""time""
""blur"",""1"",""1800""
""focus"",""1"",""5659""
""fullscreenenter"",""1"",""6176""
","""event"",""trial"",""time""
""blur"",""1"",""1800""
","""event"",""trial"",""time""
""focus"",""1"",""5659""
","""event"",""trial"",""time""
""fullscreenenter"",""1"",""6176""
","
","","","900.3999999761581","","","14","1070","136","&#9752;","elianto","#f73b6a7A"," "," ","1","0","[1751.4000000357628]","1","1","","","1070","18","3","3","lose","go","0","0"
"pit-trial","81","748793","0.0-22.0","battery-v0.2","","""event"",""trial"",""time""
""blur"",""1"",""1800""
""focus"",""1"",""5659""
""fullscreenenter"",""1"",""6176""
","""event"",""trial"",""time""
""blur"",""1"",""1800""
","""event"",""trial"",""time""
""focus"",""1"",""5659""
","""event"",""trial"",""time""
""fullscreenenter"",""1"",""6176""
","
","","","484","","","14","1070","136","&#9730;","elianto","#3366ff99"," "," ","1","+10","[1334.699999988079]","1","1","","","1070","19","1","1","win","go","0","0"
"pit-trial","82","753646","0.0-23.0","battery-v0.2","","""event"",""trial"",""time""
""blur"",""1"",""1800""
""focus"",""1"",""5659""
""fullscreenenter"",""1"",""6176""
","""event"",""trial"",""time""
""blur"",""1"",""1800""
","""event"",""trial"",""time""
""focus"",""1"",""5659""
","""event"",""trial"",""time""
""fullscreenenter"",""1"",""6176""
","
","","","-1","","","14","1070","136","&#9733;","elianto","#3366ff99","-1","-1","1","+10","[]","0","1","","","1070","20","2","2","win","no-go","0","0"
"pit-instructions","83","772741","0.0-24.0","battery-v0.2","","""event"",""trial"",""time""
""blur"",""1"",""1800""
""focus"",""1"",""5659""
""fullscreenenter"",""1"",""6176""
","""event"",""trial"",""time""
""blur"",""1"",""1800""
","""event"",""trial"",""time""
""focus"",""1"",""5659""
","""event"",""trial"",""time""
""fullscreenenter"",""1"",""6176""
","
","","[{""page_index"":0,""viewing_time"":6437.699999988079},{""page_index"":1,""viewing_time"":12654.5}]","19092.5","","","","","","","","","","","","","","","","","","","","","","","","",""
"pit-trial","84","776127","0.0-25.0","battery-v0.2","","""event"",""trial"",""time""
""blur"",""1"",""1800""
""focus"",""1"",""5659""
""fullscreenenter"",""1"",""6176""
","""event"",""trial"",""time""
""blur"",""1"",""1800""
","""event"",""trial"",""time""
""focus"",""1"",""5659""
","""event"",""trial"",""time""
""fullscreenenter"",""1"",""6176""
","
","","","516","","","14","1070","136","x","elianto","#f73b6a7A"," "," ","1","0","[1366.300000011921]","1","2","","","1070","21","3","3","lose","go","0","0"
"pit-trial","85","779534","0.0-26.0","battery-v0.2","","""event"",""trial"",""time""
""blur"",""1"",""1800""
""focus"",""1"",""5659""
""fullscreenenter"",""1"",""6176""
","""event"",""trial"",""time""
""blur"",""1"",""1800""
","""event"",""trial"",""time""
""focus"",""1"",""5659""
","""event"",""trial"",""time""
""fullscreenenter"",""1"",""6176""
","
","","","553.2999999523163","","","14","1070","136","q","elianto","#3366ff99","-1"," ","0","0","[1403.7999999523163]","1","2","","","1070","22","0","2","win","no-go","0","0"
"pit-trial","86","783155","0.0-27.0","battery-v0.2","","""event"",""trial"",""time""
""blur"",""1"",""1800""
""focus"",""1"",""5659""
""fullscreenenter"",""1"",""6176""
","""event"",""trial"",""time""
""blur"",""1"",""1800""
","""event"",""trial"",""time""
""focus"",""1"",""5659""
","""event"",""trial"",""time""
""fullscreenenter"",""1"",""6176""
","
","","","758.3999999761581","","","14","1070","136","f","elianto","#3366ff99"," "," ","1","+10","[1610.800000011921]","1","2","","","1070","23","2","1","win","go","0","0"
"pit-trial","87","787255","0.0-28.0","battery-v0.2","","""event"",""trial"",""time""
""blur"",""1"",""1800""
""focus"",""1"",""5659""
""fullscreenenter"",""1"",""6176""
","""event"",""trial"",""time""
""blur"",""1"",""1800""
","""event"",""trial"",""time""
""focus"",""1"",""5659""
","""event"",""trial"",""time""
""fullscreenenter"",""1"",""6176""
","
","","","1245.699999988079","","","14","1070","136","n","elianto","#3366ff99","-1"," ","0","0","[2095.699999988079]","1","2","","","1070","24","1","2","win","no-go","0","0"
"pit-trial","88","790938","0.0-29.0","battery-v0.2","","""event"",""trial"",""time""
""blur"",""1"",""1800""
""focus"",""1"",""5659""
""fullscreenenter"",""1"",""6176""
","""event"",""trial"",""time""
""blur"",""1"",""1800""
","""event"",""trial"",""time""
""focus"",""1"",""5659""
","""event"",""trial"",""time""
""fullscreenenter"",""1"",""6176""
","
","","","821.1999999880791","","","14","1070","136","x","elianto","#f73b6a7A"," "," ","1","0","[1671.699999988079]","1","2","","","1070","25","3","3","lose","go","0","0"
"pit-trial","89","795810","0.0-30.0","battery-v0.2","","""event"",""trial"",""time""
""blur"",""1"",""1800""
""focus"",""1"",""5659""
""fullscreenenter"",""1"",""6176""
","""event"",""trial"",""time""
""blur"",""1"",""1800""
","""event"",""trial"",""time""
""focus"",""1"",""5659""
","""event"",""trial"",""time""
""fullscreenenter"",""1"",""6176""
","
","","","-1","","","14","1070","136","q","elianto","#3366ff99","-1","-1","1","+10","[]","0","2","","","1070","26","0","2","win","no-go","0","0"
"pit-trial","90","799209","0.0-31.0","battery-v0.2","","""event"",""trial"",""time""
""blur"",""1"",""1800""
""focus"",""1"",""5659""
""fullscreenenter"",""1"",""6176""
","""event"",""trial"",""time""
""blur"",""1"",""1800""
","""event"",""trial"",""time""
""focus"",""1"",""5659""
","""event"",""trial"",""time""
""fullscreenenter"",""1"",""6176""
","
","","","545.8999999761581","","","14","1070","136","f","elianto","#3366ff99"," "," ","1","+10","[1396.7999999523163]","1","2","","","1070","27","2","1","win","go","0","0"
"pit-trial","91","804062","0.0-32.0","battery-v0.2","","""event"",""trial"",""time""
""blur"",""1"",""1800""
""focus"",""1"",""5659""
""fullscreenenter"",""1"",""6176""
","""event"",""trial"",""time""
""blur"",""1"",""1800""
","""event"",""trial"",""time""
""focus"",""1"",""5659""
","""event"",""trial"",""time""
""fullscreenenter"",""1"",""6176""
","
","","","-1","","","14","1070","136","n","elianto","#3366ff99","-1","-1","1","+10","[]","0","2","","","1070","28","1","2","win","no-go","0","0"
"pit-trial","92","807762","0.0-33.0","battery-v0.2","","""event"",""trial"",""time""
""blur"",""1"",""1800""
""focus"",""1"",""5659""
""fullscreenenter"",""1"",""6176""
","""event"",""trial"",""time""
""blur"",""1"",""1800""
","""event"",""trial"",""time""
""focus"",""1"",""5659""
","""event"",""trial"",""time""
""fullscreenenter"",""1"",""6176""
","
","","","847.1000000238419","","","14","1070","136","f","elianto","#3366ff99"," "," ","1","+10","[1697.300000011921]","1","2","","","1070","29","2","1","win","go","0","0"
"pit-trial","93","811100","0.0-34.0","battery-v0.2","","""event"",""trial"",""time""
""blur"",""1"",""1800""
""focus"",""1"",""5659""
""fullscreenenter"",""1"",""6176""
","""event"",""trial"",""time""
""blur"",""1"",""1800""
","""event"",""trial"",""time""
""focus"",""1"",""5659""
","""event"",""trial"",""time""
""fullscreenenter"",""1"",""6176""
","
","","","483.5999999642372","","","14","1070","136","x","elianto","#f73b6a7A"," "," ","1","0","[1334.5]","1","2","","","1070","30","3","3","lose","go","0","0"
"pit-trial","94","815953","0.0-35.0","battery-v0.2","","""event"",""trial"",""time""
""blur"",""1"",""1800""
""focus"",""1"",""5659""
""fullscreenenter"",""1"",""6176""
","""event"",""trial"",""time""
""blur"",""1"",""1800""
","""event"",""trial"",""time""
""focus"",""1"",""5659""
","""event"",""trial"",""time""
""fullscreenenter"",""1"",""6176""
","
","","","-1","","","14","1070","136","n","elianto","#3366ff99","-1","-1","1","+10","[]","0","2","","","1070","31","1","2","win","no-go","0","0"
"pit-trial","95","820810","0.0-36.0","battery-v0.2","","""event"",""trial"",""time""
""blur"",""1"",""1800""
""focus"",""1"",""5659""
""fullscreenenter"",""1"",""6176""
","""event"",""trial"",""time""
""blur"",""1"",""1800""
","""event"",""trial"",""time""
""focus"",""1"",""5659""
","""event"",""trial"",""time""
""fullscreenenter"",""1"",""6176""
","
","","","-1","","","14","1070","136","q","elianto","#3366ff99","-1","-1","1","+10","[]","0","2","","","1070","32","0","2","win","no-go","0","0"
"pit-trial","96","825664","0.0-37.0","battery-v0.2","","""event"",""trial"",""time""
""blur"",""1"",""1800""
""focus"",""1"",""5659""
""fullscreenenter"",""1"",""6176""
","""event"",""trial"",""time""
""blur"",""1"",""1800""
","""event"",""trial"",""time""
""focus"",""1"",""5659""
","""event"",""trial"",""time""
""fullscreenenter"",""1"",""6176""
","
","","","-1","","","14","1070","136","n","elianto","#3366ff99","-1","-1","1","0","[]","0","2","","","1070","33","1","2","win","no-go","1","0"
"pit-trial","97","829154","0.0-38.0","battery-v0.2","","""event"",""trial"",""time""
""blur"",""1"",""1800""
""focus"",""1"",""5659""
""fullscreenenter"",""1"",""6176""
","""event"",""trial"",""time""
""blur"",""1"",""1800""
","""event"",""trial"",""time""
""focus"",""1"",""5659""
","""event"",""trial"",""time""
""fullscreenenter"",""1"",""6176""
","
","","","635","","","14","1070","136","x","elianto","#f73b6a7A"," "," ","1","-10","[1486]","1","2","","","1070","34","3","3","lose","go","1","0"
"pit-trial","98","832621","0.0-39.0","battery-v0.2","","""event"",""trial"",""time""
""blur"",""1"",""1800""
""focus"",""1"",""5659""
""fullscreenenter"",""1"",""6176""
","""event"",""trial"",""time""
""blur"",""1"",""1800""
","""event"",""trial"",""time""
""focus"",""1"",""5659""
","""event"",""trial"",""time""
""fullscreenenter"",""1"",""6176""
","
","","","600.8999999761581","","","14","1070","136","f","elianto","#3366ff99"," "," ","1","0","[1451.5999999642372]","1","2","","","1070","35","2","1","win","go","1","0"
"pit-trial","99","837475","0.0-40.0","battery-v0.2","","""event"",""trial"",""time""
""blur"",""1"",""1800""
""focus"",""1"",""5659""
""fullscreenenter"",""1"",""6176""
","""event"",""trial"",""time""
""blur"",""1"",""1800""
","""event"",""trial"",""time""
""focus"",""1"",""5659""
","""event"",""trial"",""time""
""fullscreenenter"",""1"",""6176""
","
","","","-1","","","14","1070","136","q","elianto","#3366ff99","-1","-1","1","+10","[]","0","2","","","1070","36","0","2","win","no-go","0","0"
"pit-trial","100","842329","0.0-41.0","battery-v0.2","","""event"",""trial"",""time""
""blur"",""1"",""1800""
""focus"",""1"",""5659""
""fullscreenenter"",""1"",""6176""
","""event"",""trial"",""time""
""blur"",""1"",""1800""
","""event"",""trial"",""time""
""focus"",""1"",""5659""
","""event"",""trial"",""time""
""fullscreenenter"",""1"",""6176""
","
","","","-1","","","14","1070","136","n","elianto","#3366ff99","-1","-1","1","+10","[]","0","2","","","1070","37","1","2","win","no-go","0","0"
"pit-trial","101","847184","0.0-42.0","battery-v0.2","","""event"",""trial"",""time""
""blur"",""1"",""1800""
""focus"",""1"",""5659""
""fullscreenenter"",""1"",""6176""
","""event"",""trial"",""time""
""blur"",""1"",""1800""
","""event"",""trial"",""time""
""focus"",""1"",""5659""
","""event"",""trial"",""time""
""fullscreenenter"",""1"",""6176""
","
","","","-1","","","14","1070","136","q","elianto","#3366ff99","-1","-1","1","+10","[]","0","2","","","1070","38","0","2","win","no-go","0","0"
"pit-trial","102","850583","0.0-43.0","battery-v0.2","","""event"",""trial"",""time""
""blur"",""1"",""1800""
""focus"",""1"",""5659""
""fullscreenenter"",""1"",""6176""
","""event"",""trial"",""time""
""blur"",""1"",""1800""
","""event"",""trial"",""time""
""focus"",""1"",""5659""
","""event"",""trial"",""time""
""fullscreenenter"",""1"",""6176""
","
","","","544.8999999761581","","","14","1070","136","f","elianto","#3366ff99"," "," ","1","+10","[1395.0999999642372]","1","2","","","1070","39","2","1","win","go","0","0"
"pit-trial","103","854315","0.0-44.0","battery-v0.2","","""event"",""trial"",""time""
""blur"",""1"",""1800""
""focus"",""1"",""5659""
""fullscreenenter"",""1"",""6176""
","""event"",""trial"",""time""
""blur"",""1"",""1800""
","""event"",""trial"",""time""
""focus"",""1"",""5659""
","""event"",""trial"",""time""
""fullscreenenter"",""1"",""6176""
","
","","","878.5999999642372","","","14","1070","136","x","elianto","#f73b6a7A"," "," ","1","0","[1728.7000000476837]","1","2","","","1070","40","3","3","lose","go","0","0"
"pit-trial","104","858029","0.0-45.0","battery-v0.2","","""event"",""trial"",""time""
""blur"",""1"",""1800""
""focus"",""1"",""5659""
""fullscreenenter"",""1"",""6176""
","""event"",""trial"",""time""
""blur"",""1"",""1800""
","""event"",""trial"",""time""
""focus"",""1"",""5659""
","""event"",""trial"",""time""
""fullscreenenter"",""1"",""6176""
","
","","","860","","","14","1070","136","f","elianto","#3366ff99"," "," ","1","0","[1710.5999999642372]","1","2","","","1070","41","2","1","win","go","1","0"
"pit-trial","105","862883","0.0-46.0","battery-v0.2","","""event"",""trial"",""time""
""blur"",""1"",""1800""
""focus"",""1"",""5659""
""fullscreenenter"",""1"",""6176""
","""event"",""trial"",""time""
""blur"",""1"",""1800""
","""event"",""trial"",""time""
""focus"",""1"",""5659""
","""event"",""trial"",""time""
""fullscreenenter"",""1"",""6176""
","
","","","-1","","","14","1070","136","n","elianto","#3366ff99","-1","-1","1","+10","[]","0","2","","","1070","42","1","2","win","no-go","0","0"
"pit-trial","106","866305","0.0-47.0","battery-v0.2","","""event"",""trial"",""time""
""blur"",""1"",""1800""
""focus"",""1"",""5659""
""fullscreenenter"",""1"",""6176""
","""event"",""trial"",""time""
""blur"",""1"",""1800""
","""event"",""trial"",""time""
""focus"",""1"",""5659""
","""event"",""trial"",""time""
""fullscreenenter"",""1"",""6176""
","
","","","568.2999999523163","","","14","1070","136","x","elianto","#f73b6a7A"," "," ","1","0","[1418.8999999761581]","1","2","","","1070","43","3","3","lose","go","0","0"
"pit-trial","107","871158","0.0-48.0","battery-v0.2","","""event"",""trial"",""time""
""blur"",""1"",""1800""
""focus"",""1"",""5659""
""fullscreenenter"",""1"",""6176""
","""event"",""trial"",""time""
""blur"",""1"",""1800""
","""event"",""trial"",""time""
""focus"",""1"",""5659""
","""event"",""trial"",""time""
""fullscreenenter"",""1"",""6176""
","
","","","-1","","","14","1070","136","q","elianto","#3366ff99","-1","-1","1","+10","[]","0","2","","","1070","44","0","2","win","no-go","0","0"
"pit-trial","108","876013","0.0-49.0","battery-v0.2","","""event"",""trial"",""time""
""blur"",""1"",""1800""
""focus"",""1"",""5659""
""fullscreenenter"",""1"",""6176""
","""event"",""trial"",""time""
""blur"",""1"",""1800""
","""event"",""trial"",""time""
""focus"",""1"",""5659""
","""event"",""trial"",""time""
""fullscreenenter"",""1"",""6176""
","
","","","-1","","","14","1070","136","q","elianto","#3366ff99","-1","-1","1","0","[]","0","2","","","1070","45","0","2","win","no-go","1","0"
"pit-trial","109","880867","0.0-50.0","battery-v0.2","","""event"",""trial"",""time""
""blur"",""1"",""1800""
""focus"",""1"",""5659""
""fullscreenenter"",""1"",""6176""
","""event"",""trial"",""time""
""blur"",""1"",""1800""
","""event"",""trial"",""time""
""focus"",""1"",""5659""
","""event"",""trial"",""time""
""fullscreenenter"",""1"",""6176""
","
","","","-1","","","14","1070","136","n","elianto","#3366ff99","-1","-1","1","+10","[]","0","2","","","1070","46","1","2","win","no-go","0","0"
"pit-trial","110","884343","0.0-51.0","battery-v0.2","","""event"",""trial"",""time""
""blur"",""1"",""1800""
""focus"",""1"",""5659""
""fullscreenenter"",""1"",""6176""
","""event"",""trial"",""time""
""blur"",""1"",""1800""
","""event"",""trial"",""time""
""focus"",""1"",""5659""
","""event"",""trial"",""time""
""fullscreenenter"",""1"",""6176""
","
","","","622.1999999880791","","","14","1070","136","x","elianto","#f73b6a7A"," "," ","1","0","[1472.4000000357628]","1","2","","","1070","47","3","3","lose","go","0","0"
"pit-trial","111","887773","0.0-52.0","battery-v0.2","","""event"",""trial"",""time""
""blur"",""1"",""1800""
""focus"",""1"",""5659""
""fullscreenenter"",""1"",""6176""
","""event"",""trial"",""time""
""blur"",""1"",""1800""
","""event"",""trial"",""time""
""focus"",""1"",""5659""
","""event"",""trial"",""time""
""fullscreenenter"",""1"",""6176""
","
","","","576.5","","","14","1070","136","f","elianto","#3366ff99"," "," ","1","+10","[1427.199999988079]","1","2","","","1070","48","2","1","win","go","0","0"
"pit-trial","112","892627","0.0-53.0","battery-v0.2","","""event"",""trial"",""time""
""blur"",""1"",""1800""
""focus"",""1"",""5659""
""fullscreenenter"",""1"",""6176""
","""event"",""trial"",""time""
""blur"",""1"",""1800""
","""event"",""trial"",""time""
""focus"",""1"",""5659""
","""event"",""trial"",""time""
""fullscreenenter"",""1"",""6176""
","
","","","-1","","","14","1070","136","q","elianto","#3366ff99","-1","-1","1","0","[]","0","2","","","1070","49","0","2","win","no-go","1","0"
"pit-trial","113","896092","0.0-54.0","battery-v0.2","","""event"",""trial"",""time""
""blur"",""1"",""1800""
""focus"",""1"",""5659""
""fullscreenenter"",""1"",""6176""
","""event"",""trial"",""time""
""blur"",""1"",""1800""
","""event"",""trial"",""time""
""focus"",""1"",""5659""
","""event"",""trial"",""time""
""fullscreenenter"",""1"",""6176""
","
","","","610.8999999761581","","","14","1070","136","x","elianto","#f73b6a7A"," "," ","1","0","[1461.699999988079]","1","2","","","1070","50","3","3","lose","go","0","0"
"pit-trial","114","899546","0.0-55.0","battery-v0.2","","""event"",""trial"",""time""
""blur"",""1"",""1800""
""focus"",""1"",""5659""
""fullscreenenter"",""1"",""6176""
","""event"",""trial"",""time""
""blur"",""1"",""1800""
","""event"",""trial"",""time""
""focus"",""1"",""5659""
","""event"",""trial"",""time""
""fullscreenenter"",""1"",""6176""
","
","","","600.3000000119209","","","14","1070","136","f","elianto","#3366ff99"," "," ","1","+10","[1452.300000011921]","1","2","","","1070","51","2","1","win","go","0","0"
"pit-trial","115","904400","0.0-56.0","battery-v0.2","","""event"",""trial"",""time""
""blur"",""1"",""1800""
""focus"",""1"",""5659""
""fullscreenenter"",""1"",""6176""
","""event"",""trial"",""time""
""blur"",""1"",""1800""
","""event"",""trial"",""time""
""focus"",""1"",""5659""
","""event"",""trial"",""time""
""fullscreenenter"",""1"",""6176""
","
","","","-1","","","14","1070","136","n","elianto","#3366ff99","-1","-1","1","+10","[]","0","2","","","1070","52","1","2","win","no-go","0","0"
"pit-trial","116","909254","0.0-57.0","battery-v0.2","","""event"",""trial"",""time""
""blur"",""1"",""1800""
""focus"",""1"",""5659""
""fullscreenenter"",""1"",""6176""
","""event"",""trial"",""time""
""blur"",""1"",""1800""
","""event"",""trial"",""time""
""focus"",""1"",""5659""
","""event"",""trial"",""time""
""fullscreenenter"",""1"",""6176""
","
","","","-1","","","14","1070","136","q","elianto","#3366ff99","-1","-1","1","+10","[]","0","2","","","1070","53","0","2","win","no-go","0","0"
"pit-trial","117","912720","0.0-58.0","battery-v0.2","","""event"",""trial"",""time""
""blur"",""1"",""1800""
""focus"",""1"",""5659""
""fullscreenenter"",""1"",""6176""
","""event"",""trial"",""time""
""blur"",""1"",""1800""
","""event"",""trial"",""time""
""focus"",""1"",""5659""
","""event"",""trial"",""time""
""fullscreenenter"",""1"",""6176""
","
","","","612.1000000238419","","","14","1070","136","f","elianto","#3366ff99"," "," ","1","+10","[1463]","1","2","","","1070","54","2","1","win","go","0","0"
"pit-trial","118","917575","0.0-59.0","battery-v0.2","","""event"",""trial"",""time""
""blur"",""1"",""1800""
""focus"",""1"",""5659""
""fullscreenenter"",""1"",""6176""
","""event"",""trial"",""time""
""blur"",""1"",""1800""
","""event"",""trial"",""time""
""focus"",""1"",""5659""
","""event"",""trial"",""time""
""fullscreenenter"",""1"",""6176""
","
","","","-1","","","14","1070","136","b","elianto","#f73b6a7A"," ","-1","0","0","[]","0","2","","","1070","55","5","3","lose","go","1","0"
"pit-trial","119","922429","0.0-60.0","battery-v0.2","","""event"",""trial"",""time""
""blur"",""1"",""1800""
""focus"",""1"",""5659""
""fullscreenenter"",""1"",""6176""
","""event"",""trial"",""time""
""blur"",""1"",""1800""
","""event"",""trial"",""time""
""focus"",""1"",""5659""
","""event"",""trial"",""time""
""fullscreenenter"",""1"",""6176""
","
","","","-1","","","14","1070","136","t","elianto","#f73b6a7A","-1","-1","1","0","[]","0","2","","","1070","56","4","4","lose","no-go","0","0"
"pit-trial","120","927283","0.0-61.0","battery-v0.2","","""event"",""trial"",""time""
""blur"",""1"",""1800""
""focus"",""1"",""5659""
""fullscreenenter"",""1"",""6176""
","""event"",""trial"",""time""
""blur"",""1"",""1800""
","""event"",""trial"",""time""
""focus"",""1"",""5659""
","""event"",""trial"",""time""
""fullscreenenter"",""1"",""6176""
","
","","","-1","","","14","1070","136","t","elianto","#f73b6a7A","-1","-1","1","0","[]","0","2","","","1070","57","4","4","lose","no-go","0","0"
"pit-trial","121","931023","0.0-62.0","battery-v0.2","","""event"",""trial"",""time""
""blur"",""1"",""1800""
""focus"",""1"",""5659""
""fullscreenenter"",""1"",""6176""
","""event"",""trial"",""time""
""blur"",""1"",""1800""
","""event"",""trial"",""time""
""focus"",""1"",""5659""
","""event"",""trial"",""time""
""fullscreenenter"",""1"",""6176""
","
","","","886.1000000238419","","","14","1070","136","q","elianto","#3366ff99","-1"," ","0","+10","[1736.3999999761581]","1","2","","","1070","58","0","2","win","no-go","1","0"
"pit-trial","122","935877","0.0-63.0","battery-v0.2","","""event"",""trial"",""time""
""blur"",""1"",""1800""
""focus"",""1"",""5659""
""fullscreenenter"",""1"",""6176""
","""event"",""trial"",""time""
""blur"",""1"",""1800""
","""event"",""trial"",""time""
""focus"",""1"",""5659""
","""event"",""trial"",""time""
""fullscreenenter"",""1"",""6176""
","
","","","-1","","","14","1070","136","b","elianto","#f73b6a7A"," ","-1","0","-10","[]","0","2","","","1070","59","5","3","lose","go","0","0"
"pit-trial","123","939840","0.0-64.0","battery-v0.2","","""event"",""trial"",""time""
""blur"",""1"",""1800""
""focus"",""1"",""5659""
""fullscreenenter"",""1"",""6176""
","""event"",""trial"",""time""
""blur"",""1"",""1800""
","""event"",""trial"",""time""
""focus"",""1"",""5659""
","""event"",""trial"",""time""
""fullscreenenter"",""1"",""6176""
","
","","","1109.5","","","14","1070","136","f","elianto","#3366ff99"," "," ","1","+10","[1960.300000011921]","1","2","","","1070","60","2","1","win","go","0","0"
"pit-trial","124","944695","0.0-65.0","battery-v0.2","","""event"",""trial"",""time""
""blur"",""1"",""1800""
""focus"",""1"",""5659""
""fullscreenenter"",""1"",""6176""
","""event"",""trial"",""time""
""blur"",""1"",""1800""
","""event"",""trial"",""time""
""focus"",""1"",""5659""
","""event"",""trial"",""time""
""fullscreenenter"",""1"",""6176""
","
","","","-1","","","14","1070","136","t","elianto","#f73b6a7A","-1","-1","1","0","[]","0","2","","","1070","61","4","4","lose","no-go","0","0"
"pit-trial","125","949549","0.0-66.0","battery-v0.2","","""event"",""trial"",""time""
""blur"",""1"",""1800""
""focus"",""1"",""5659""
""fullscreenenter"",""1"",""6176""
","""event"",""trial"",""time""
""blur"",""1"",""1800""
","""event"",""trial"",""time""
""focus"",""1"",""5659""
","""event"",""trial"",""time""
""fullscreenenter"",""1"",""6176""
","
","","","-1","","","14","1070","136","b","elianto","#f73b6a7A"," ","-1","0","-10","[]","0","2","","","1070","62","5","3","lose","go","0","0"
"pit-trial","126","954403","0.0-67.0","battery-v0.2","","""event"",""trial"",""time""
""blur"",""1"",""1800""
""focus"",""1"",""5659""
""fullscreenenter"",""1"",""6176""
","""event"",""trial"",""time""
""blur"",""1"",""1800""
","""event"",""trial"",""time""
""focus"",""1"",""5659""
","""event"",""trial"",""time""
""fullscreenenter"",""1"",""6176""
","
","","","-1","","","14","1070","136","c","elianto","#3366ff99","-1","-1","1","0","[]","0","2","","","1070","63","6","2","win","no-go","1","0"
"pit-trial","127","958193","0.0-68.0","battery-v0.2","","""event"",""trial"",""time""
""blur"",""1"",""1800""
""focus"",""1"",""5659""
""fullscreenenter"",""1"",""6176""
","""event"",""trial"",""time""
""blur"",""1"",""1800""
","""event"",""trial"",""time""
""focus"",""1"",""5659""
","""event"",""trial"",""time""
""fullscreenenter"",""1"",""6176""
","
","","","936.1000000238419","","","14","1070","136","f","elianto","#3366ff99"," "," ","1","+10","[1787]","1","2","","","1070","64","2","1","win","go","0","0"
"pit-trial","128","962117","0.0-69.0","battery-v0.2","","""event"",""trial"",""time""
""blur"",""1"",""1800""
""focus"",""1"",""5659""
""fullscreenenter"",""1"",""6176""
","""event"",""trial"",""time""
""blur"",""1"",""1800""
","""event"",""trial"",""time""
""focus"",""1"",""5659""
","""event"",""trial"",""time""
""fullscreenenter"",""1"",""6176""
","
","","","1070.3999999761581","","","14","1070","136","b","elianto","#f73b6a7A"," "," ","1","0","[1920.8999999761581]","1","2","","","1070","65","5","3","lose","go","0","0"
"pit-trial","129","965862","0.0-70.0","battery-v0.2","","""event"",""trial"",""time""
""blur"",""1"",""1800""
""focus"",""1"",""5659""
""fullscreenenter"",""1"",""6176""
","""event"",""trial"",""time""
""blur"",""1"",""1800""
","""event"",""trial"",""time""
""focus"",""1"",""5659""
","""event"",""trial"",""time""
""fullscreenenter"",""1"",""6176""
","
","","","889.2000000476837","","","14","1070","136","c","elianto","#3366ff99","-1"," ","0","0","[1740.7000000476837]","1","2","","","1070","66","6","2","win","no-go","0","0"
"pit-trial","130","970717","0.0-71.0","battery-v0.2","","""event"",""trial"",""time""
""blur"",""1"",""1800""
""focus"",""1"",""5659""
""fullscreenenter"",""1"",""6176""
","""event"",""trial"",""time""
""blur"",""1"",""1800""
","""event"",""trial"",""time""
""focus"",""1"",""5659""
","""event"",""trial"",""time""
""fullscreenenter"",""1"",""6176""
","
","","","-1","","","14","1070","136","t","elianto","#f73b6a7A","-1","-1","1","0","[]","0","2","","","1070","67","4","4","lose","no-go","0","0"
"pit-trial","131","974530","0.0-72.0","battery-v0.2","","""event"",""trial"",""time""
""blur"",""1"",""1800""
""focus"",""1"",""5659""
""fullscreenenter"",""1"",""6176""
","""event"",""trial"",""time""
""blur"",""1"",""1800""
","""event"",""trial"",""time""
""focus"",""1"",""5659""
","""event"",""trial"",""time""
""fullscreenenter"",""1"",""6176""
","
","","","959.3000000119209","","","14","1070","136","f","elianto","#3366ff99"," "," ","1","+10","[1809.800000011921]","1","2","","","1070","68","2","1","win","go","0","0"
"pit-trial","132","978153","0.0-73.0","battery-v0.2","","""event"",""trial"",""time""
""blur"",""1"",""1800""
""focus"",""1"",""5659""
""fullscreenenter"",""1"",""6176""
","""event"",""trial"",""time""
""blur"",""1"",""1800""
","""event"",""trial"",""time""
""focus"",""1"",""5659""
","""event"",""trial"",""time""
""fullscreenenter"",""1"",""6176""
","
","","","770.3000000119209","","","14","1070","136","c","elianto","#3366ff99","-1"," ","0","0","[1621.300000011921]","1","2","","","1070","69","6","2","win","no-go","0","0"
"pit-trial","133","983007","0.0-74.0","battery-v0.2","","""event"",""trial"",""time""
""blur"",""1"",""1800""
""focus"",""1"",""5659""
""fullscreenenter"",""1"",""6176""
","""event"",""trial"",""time""
""blur"",""1"",""1800""
","""event"",""trial"",""time""
""focus"",""1"",""5659""
","""event"",""trial"",""time""
""fullscreenenter"",""1"",""6176""
","
","","","-1","","","14","1070","136","t","elianto","#f73b6a7A","-1","-1","1","0","[]","0","2","","","1070","70","4","4","lose","no-go","0","0"
"pit-trial","134","987179","0.0-75.0","battery-v0.2","","""event"",""trial"",""time""
""blur"",""1"",""1800""
""focus"",""1"",""5659""
""fullscreenenter"",""1"",""6176""
","""event"",""trial"",""time""
""blur"",""1"",""1800""
","""event"",""trial"",""time""
""focus"",""1"",""5659""
","""event"",""trial"",""time""
""fullscreenenter"",""1"",""6176""
","
","","","1317.1000000238419","","","14","1070","136","b","elianto","#f73b6a7A"," "," ","1","0","[2169.100000023842]","1","2","","","1070","71","5","3","lose","go","0","0"
"pit-trial","135","992034","0.0-76.0","battery-v0.2","","""event"",""trial"",""time""
""blur"",""1"",""1800""
""focus"",""1"",""5659""
""fullscreenenter"",""1"",""6176""
","""event"",""trial"",""time""
""blur"",""1"",""1800""
","""event"",""trial"",""time""
""focus"",""1"",""5659""
","""event"",""trial"",""time""
""fullscreenenter"",""1"",""6176""
","
","","","-1","","","14","1070","136","z","elianto","#f73b6a7A","-1","-1","1","0","[]","0","2","","","1070","72","7","4","lose","no-go","0","0"
"pit-trial","136","996889","0.0-77.0","battery-v0.2","","""event"",""trial"",""time""
""blur"",""1"",""1800""
""focus"",""1"",""5659""
""fullscreenenter"",""1"",""6176""
","""event"",""trial"",""time""
""blur"",""1"",""1800""
","""event"",""trial"",""time""
""focus"",""1"",""5659""
","""event"",""trial"",""time""
""fullscreenenter"",""1"",""6176""
","
","","","-1","","","14","1070","136","z","elianto","#f73b6a7A","-1","-1","1","-10","[]","0","2","","","1070","73","7","4","lose","no-go","1","0"
"pit-trial","137","1001754","0.0-78.0","battery-v0.2","","""event"",""trial"",""time""
""blur"",""1"",""1800""
""focus"",""1"",""5659""
""fullscreenenter"",""1"",""6176""
","""event"",""trial"",""time""
""blur"",""1"",""1800""
","""event"",""trial"",""time""
""focus"",""1"",""5659""
","""event"",""trial"",""time""
""fullscreenenter"",""1"",""6176""
","
","","","-1","","","14","1070","136","t","elianto","#f73b6a7A","-1","-1","1","0","[2923.399999976158]","1","2","","","1070","74","4","4","lose","no-go","0","0"
"pit-trial","138","1006620","0.0-79.0","battery-v0.2","","""event"",""trial"",""time""
""blur"",""1"",""1800""
""focus"",""1"",""5659""
""fullscreenenter"",""1"",""6176""
","""event"",""trial"",""time""
""blur"",""1"",""1800""
","""event"",""trial"",""time""
""focus"",""1"",""5659""
","""event"",""trial"",""time""
""fullscreenenter"",""1"",""6176""
","
","","","-1","","","14","1070","136","c","elianto","#3366ff99","-1","-1","1","+10","[]","0","2","","","1070","75","6","2","win","no-go","0","0"
"pit-trial","139","1010498","0.0-80.0","battery-v0.2","","""event"",""trial"",""time""
""blur"",""1"",""1800""
""focus"",""1"",""5659""
""fullscreenenter"",""1"",""6176""
","""event"",""trial"",""time""
""blur"",""1"",""1800""
","""event"",""trial"",""time""
""focus"",""1"",""5659""
","""event"",""trial"",""time""
""fullscreenenter"",""1"",""6176""
","
","","","1023.1000000238419","","","14","1070","136","b","elianto","#f73b6a7A"," "," ","1","-10","[1873.0999999642372]","1","2","","","1070","76","5","3","lose","go","1","0"
"pit-trial","140","1014818","0.0-81.0","battery-v0.2","","""event"",""trial"",""time""
""blur"",""1"",""1800""
""focus"",""1"",""5659""
""fullscreenenter"",""1"",""6176""
","""event"",""trial"",""time""
""blur"",""1"",""1800""
","""event"",""trial"",""time""
""focus"",""1"",""5659""
","""event"",""trial"",""time""
""fullscreenenter"",""1"",""6176""
","
","","","1465.800000011921","","","14","1070","136","b","elianto","#f73b6a7A"," "," ","1","0","[2316.199999988079]","1","2","","","1070","77","5","3","lose","go","0","0"
"pit-trial","141","1019672","0.0-82.0","battery-v0.2","","""event"",""trial"",""time""
""blur"",""1"",""1800""
""focus"",""1"",""5659""
""fullscreenenter"",""1"",""6176""
","""event"",""trial"",""time""
""blur"",""1"",""1800""
","""event"",""trial"",""time""
""focus"",""1"",""5659""
","""event"",""trial"",""time""
""fullscreenenter"",""1"",""6176""
","
","","","-1","","","14","1070","136","c","elianto","#3366ff99","-1","-1","1","+10","[3091.399999976158]","1","2","","","1070","78","6","2","win","no-go","0","0"
"pit-trial","142","1024526","0.0-83.0","battery-v0.2","","""event"",""trial"",""time""
""blur"",""1"",""1800""
""focus"",""1"",""5659""
""fullscreenenter"",""1"",""6176""
","""event"",""trial"",""time""
""blur"",""1"",""1800""
","""event"",""trial"",""time""
""focus"",""1"",""5659""
","""event"",""trial"",""time""
""fullscreenenter"",""1"",""6176""
","
","","","-1","","","14","1070","136","t","elianto","#f73b6a7A","-1","-1","1","0","[]","0","2","","","1070","79","4","4","lose","no-go","0","0"
"pit-trial","143","1029379","0.0-84.0","battery-v0.2","","""event"",""trial"",""time""
""blur"",""1"",""1800""
""focus"",""1"",""5659""
""fullscreenenter"",""1"",""6176""
","""event"",""trial"",""time""
""blur"",""1"",""1800""
","""event"",""trial"",""time""
""focus"",""1"",""5659""
","""event"",""trial"",""time""
""fullscreenenter"",""1"",""6176""
","
","","","-1","","","14","1070","136","z","elianto","#f73b6a7A","-1","-1","1","-10","[]","0","2","","","1070","80","7","4","lose","no-go","1","0"
"pit-trial","144","1034233","0.0-85.0","battery-v0.2","","""event"",""trial"",""time""
""blur"",""1"",""1800""
""focus"",""1"",""5659""
""fullscreenenter"",""1"",""6176""
","""event"",""trial"",""time""
""blur"",""1"",""1800""
","""event"",""trial"",""time""
""focus"",""1"",""5659""
","""event"",""trial"",""time""
""fullscreenenter"",""1"",""6176""
","
","","","-1","","","14","1070","136","c","elianto","#3366ff99","-1","-1","1","0","[]","0","2","","","1070","81","6","2","win","no-go","1","0"
"pit-trial","145","1038438","0.0-86.0","battery-v0.2","","""event"",""trial"",""time""
""blur"",""1"",""1800""
""focus"",""1"",""5659""
""fullscreenenter"",""1"",""6176""
","""event"",""trial"",""time""
""blur"",""1"",""1800""
","""event"",""trial"",""time""
""focus"",""1"",""5659""
","""event"",""trial"",""time""
""fullscreenenter"",""1"",""6176""
","
","","","1351.9000000357628","","","14","1070","136","b","elianto","#f73b6a7A"," "," ","1","0","[2202.400000035763]","1","2","","","1070","82","5","3","lose","go","0","0"
"pit-trial","146","1043292","0.0-87.0","battery-v0.2","","""event"",""trial"",""time""
""blur"",""1"",""1800""
""focus"",""1"",""5659""
""fullscreenenter"",""1"",""6176""
","""event"",""trial"",""time""
""blur"",""1"",""1800""
","""event"",""trial"",""time""
""focus"",""1"",""5659""
","""event"",""trial"",""time""
""fullscreenenter"",""1"",""6176""
","
","","","-1","","","14","1070","136","z","elianto","#f73b6a7A","-1","-1","1","0","[2935.300000011921]","1","2","","","1070","83","7","4","lose","no-go","0","0"
"pit-trial","147","1048146","0.0-88.0","battery-v0.2","","""event"",""trial"",""time""
""blur"",""1"",""1800""
""focus"",""1"",""5659""
""fullscreenenter"",""1"",""6176""
","""event"",""trial"",""time""
""blur"",""1"",""1800""
","""event"",""trial"",""time""
""focus"",""1"",""5659""
","""event"",""trial"",""time""
""fullscreenenter"",""1"",""6176""
","
","","","-1","","","14","1070","136","t","elianto","#f73b6a7A","-1","-1","1","-10","[]","0","2","","","1070","84","4","4","lose","no-go","1","0"
"pit-trial","148","1051553","0.0-89.0","battery-v0.2","","""event"",""trial"",""time""
""blur"",""1"",""1800""
""focus"",""1"",""5659""
""fullscreenenter"",""1"",""6176""
","""event"",""trial"",""time""
""blur"",""1"",""1800""
","""event"",""trial"",""time""
""focus"",""1"",""5659""
","""event"",""trial"",""time""
""fullscreenenter"",""1"",""6176""
","
","","","554","","","14","1070","136","z","elianto","#f73b6a7A","-1"," ","0","0","[1404.0999999642372,2551]","2","2","","","1070","85","7","4","lose","no-go","1","0"
"pit-trial","149","1055415","0.0-90.0","battery-v0.2","","""event"",""trial"",""time""
""blur"",""1"",""1800""
""focus"",""1"",""5659""
""fullscreenenter"",""1"",""6176""
","""event"",""trial"",""time""
""blur"",""1"",""1800""
","""event"",""trial"",""time""
""focus"",""1"",""5659""
","""event"",""trial"",""time""
""fullscreenenter"",""1"",""6176""
","
","","","1006.1999999880791","","","14","1070","136","c","elianto","#3366ff99","-1"," ","0","0","[1857]","1","2","","","1070","86","6","2","win","no-go","0","0"
"pit-trial","150","1059098","0.0-91.0","battery-v0.2","","""event"",""trial"",""time""
""blur"",""1"",""1800""
""focus"",""1"",""5659""
""fullscreenenter"",""1"",""6176""
","""event"",""trial"",""time""
""blur"",""1"",""1800""
","""event"",""trial"",""time""
""focus"",""1"",""5659""
","""event"",""trial"",""time""
""fullscreenenter"",""1"",""6176""
","
","","","829.3999999761581","","","14","1070","136","b","elianto","#f73b6a7A"," "," ","1","0","[1679.800000011921]","1","2","","","1070","87","5","3","lose","go","0","0"
"pit-trial","151","1063952","0.0-92.0","battery-v0.2","","""event"",""trial"",""time""
""blur"",""1"",""1800""
""focus"",""1"",""5659""
""fullscreenenter"",""1"",""6176""
","""event"",""trial"",""time""
""blur"",""1"",""1800""
","""event"",""trial"",""time""
""focus"",""1"",""5659""
","""event"",""trial"",""time""
""fullscreenenter"",""1"",""6176""
","
","","","-1","","","14","1070","136","t","elianto","#f73b6a7A","-1","-1","1","0","[]","0","2","","","1070","88","4","4","lose","no-go","0","0"
"pit-trial","152","1067646","0.0-93.0","battery-v0.2","","""event"",""trial"",""time""
""blur"",""1"",""1800""
""focus"",""1"",""5659""
""fullscreenenter"",""1"",""6176""
","""event"",""trial"",""time""
""blur"",""1"",""1800""
","""event"",""trial"",""time""
""focus"",""1"",""5659""
","""event"",""trial"",""time""
""fullscreenenter"",""1"",""6176""
","
","","","840.8000000119209","","","14","1070","136","z","elianto","#f73b6a7A","-1"," ","0","-10","[1691.300000011921]","1","2","","","1070","89","7","4","lose","no-go","0","0"
"pit-trial","153","1072499","0.0-94.0","battery-v0.2","","""event"",""trial"",""time""
""blur"",""1"",""1800""
""focus"",""1"",""5659""
""fullscreenenter"",""1"",""6176""
","""event"",""trial"",""time""
""blur"",""1"",""1800""
","""event"",""trial"",""time""
""focus"",""1"",""5659""
","""event"",""trial"",""time""
""fullscreenenter"",""1"",""6176""
","
","","","-1","","","14","1070","136","b","elianto","#f73b6a7A"," ","-1","0","-10","[]","0","2","","","1070","90","5","3","lose","go","0","0"
"pit-trial","154","1077352","0.0-95.0","battery-v0.2","","""event"",""trial"",""time""
""blur"",""1"",""1800""
""focus"",""1"",""5659""
""fullscreenenter"",""1"",""6176""
","""event"",""trial"",""time""
""blur"",""1"",""1800""
","""event"",""trial"",""time""
""focus"",""1"",""5659""
","""event"",""trial"",""time""
""fullscreenenter"",""1"",""6176""
","
","","","-1","","","14","1070","136","t","elianto","#f73b6a7A","-1","-1","1","-10","[]","0","2","","","1070","91","4","4","lose","no-go","1","0"
"pit-trial","155","1081406","0.0-96.0","battery-v0.2","","""event"",""trial"",""time""
""blur"",""1"",""1800""
""focus"",""1"",""5659""
""fullscreenenter"",""1"",""6176""
","""event"",""trial"",""time""
""blur"",""1"",""1800""
","""event"",""trial"",""time""
""focus"",""1"",""5659""
","""event"",""trial"",""time""
""fullscreenenter"",""1"",""6176""
","
","","","1201.5","","","14","1070","136","c","elianto","#3366ff99","-1"," ","0","0","[2051.900000035763]","1","2","","","1070","92","6","2","win","no-go","0","0"
"pit-trial","156","1085582","0.0-97.0","battery-v0.2","","""event"",""trial"",""time""
""blur"",""1"",""1800""
""focus"",""1"",""5659""
""fullscreenenter"",""1"",""6176""
","""event"",""trial"",""time""
""blur"",""1"",""1800""
","""event"",""trial"",""time""
""focus"",""1"",""5659""
","""event"",""trial"",""time""
""fullscreenenter"",""1"",""6176""
","
","","","1323","","","14","1070","136","b","elianto","#f73b6a7A"," "," ","1","-10","[2174.100000023842]","1","2","","","1070","93","5","3","lose","go","1","0"
"pit-trial","157","1089242","0.0-98.0","battery-v0.2","","""event"",""trial"",""time""
""blur"",""1"",""1800""
""focus"",""1"",""5659""
""fullscreenenter"",""1"",""6176""
","""event"",""trial"",""time""
""blur"",""1"",""1800""
","""event"",""trial"",""time""
""focus"",""1"",""5659""
","""event"",""trial"",""time""
""fullscreenenter"",""1"",""6176""
","
","","","805.9000000357628","","","14","1070","136","c","elianto","#3366ff99","-1"," ","0","0","[1656.9000000357628]","1","2","","","1070","94","6","2","win","no-go","0","0"
"pit-trial","158","1094096","0.0-99.0","battery-v0.2","","""event"",""trial"",""time""
""blur"",""1"",""1800""
""focus"",""1"",""5659""
""fullscreenenter"",""1"",""6176""
","""event"",""trial"",""time""
""blur"",""1"",""1800""
","""event"",""trial"",""time""
""focus"",""1"",""5659""
","""event"",""trial"",""time""
""fullscreenenter"",""1"",""6176""
","
","","","-1","","","14","1070","136","h","elianto","#f73b6a7A","-1","-1","1","0","[]","0","2","","","1070","95","8","4","lose","no-go","0","0"
"pit-trial","159","1097730","0.0-100.0","battery-v0.2","","""event"",""trial"",""time""
""blur"",""1"",""1800""
""focus"",""1"",""5659""
""fullscreenenter"",""1"",""6176""
","""event"",""trial"",""time""
""blur"",""1"",""1800""
","""event"",""trial"",""time""
""focus"",""1"",""5659""
","""event"",""trial"",""time""
""fullscreenenter"",""1"",""6176""
","
","","","780.6000000238419","","","14","1070","136","z","elianto","#f73b6a7A","-1"," ","0","-10","[1630.9000000357628]","1","2","","","1070","96","7","4","lose","no-go","0","0"
"pit-trial","160","1102112","0.0-101.0","battery-v0.2","","""event"",""trial"",""time""
""blur"",""1"",""1800""
""focus"",""1"",""5659""
""fullscreenenter"",""1"",""6176""
","""event"",""trial"",""time""
""blur"",""1"",""1800""
","""event"",""trial"",""time""
""focus"",""1"",""5659""
","""event"",""trial"",""time""
""fullscreenenter"",""1"",""6176""
","
","","","1530.199999988079","","","14","1070","136","b","elianto","#f73b6a7A"," "," ","1","0","[2380.099999964237]","1","2","","","1070","97","5","3","lose","go","0","0"
"pit-trial","161","1105690","0.0-102.0","battery-v0.2","","""event"",""trial"",""time""
""blur"",""1"",""1800""
""focus"",""1"",""5659""
""fullscreenenter"",""1"",""6176""
","""event"",""trial"",""time""
""blur"",""1"",""1800""
","""event"",""trial"",""time""
""focus"",""1"",""5659""
","""event"",""trial"",""time""
""fullscreenenter"",""1"",""6176""
","
","","","724.3000000119209","","","14","1070","136","z","elianto","#f73b6a7A","-1"," ","0","0","[1574.3999999761581]","1","2","","","1070","98","7","4","lose","no-go","1","0"
"pit-trial","162","1109168","0.0-103.0","battery-v0.2","","""event"",""trial"",""time""
""blur"",""1"",""1800""
""focus"",""1"",""5659""
""fullscreenenter"",""1"",""6176""
","""event"",""trial"",""time""
""blur"",""1"",""1800""
","""event"",""trial"",""time""
""focus"",""1"",""5659""
","""event"",""trial"",""time""
""fullscreenenter"",""1"",""6176""
","
","","","624.8000000119209","","","14","1070","136","h","elianto","#f73b6a7A","-1"," ","0","-10","[1475.3999999761581]","1","2","","","1070","99","8","4","lose","no-go","0","0"
"pit-trial","163","1113638","0.0-104.0","battery-v0.2","","""event"",""trial"",""time""
""blur"",""1"",""1800""
""focus"",""1"",""5659""
""fullscreenenter"",""1"",""6176""
","""event"",""trial"",""time""
""blur"",""1"",""1800""
","""event"",""trial"",""time""
""focus"",""1"",""5659""
","""event"",""trial"",""time""
""fullscreenenter"",""1"",""6176""
","
","","","1615.5","","","14","1070","136","c","elianto","#3366ff99","-1"," ","0","0","[2466.099999964237]","1","2","","","1070","100","6","2","win","no-go","0","0"
"pit-trial","164","1118493","0.0-105.0","battery-v0.2","","""event"",""trial"",""time""
""blur"",""1"",""1800""
""focus"",""1"",""5659""
""fullscreenenter"",""1"",""6176""
","""event"",""trial"",""time""
""blur"",""1"",""1800""
","""event"",""trial"",""time""
""focus"",""1"",""5659""
","""event"",""trial"",""time""
""fullscreenenter"",""1"",""6176""
","
","","","-1","","","14","1070","136","c","elianto","#3366ff99","-1","-1","1","+10","[]","0","2","","","1070","101","6","2","win","no-go","0","0"
"pit-trial","165","1122452","0.0-106.0","battery-v0.2","","""event"",""trial"",""time""
""blur"",""1"",""1800""
""focus"",""1"",""5659""
""fullscreenenter"",""1"",""6176""
","""event"",""trial"",""time""
""blur"",""1"",""1800""
","""event"",""trial"",""time""
""focus"",""1"",""5659""
","""event"",""trial"",""time""
""fullscreenenter"",""1"",""6176""
","
","","","1105","","","14","1070","136","r","elianto","#f73b6a7A"," "," ","1","0","[1956.1000000238419]","1","2","","","1070","102","10","3","lose","go","0","0"
"pit-trial","166","1127305","0.0-107.0","battery-v0.2","","""event"",""trial"",""time""
""blur"",""1"",""1800""
""focus"",""1"",""5659""
""fullscreenenter"",""1"",""6176""
","""event"",""trial"",""time""
""blur"",""1"",""1800""
","""event"",""trial"",""time""
""focus"",""1"",""5659""
","""event"",""trial"",""time""
""fullscreenenter"",""1"",""6176""
","
","","","-1","","","14","1070","136","h","elianto","#f73b6a7A","-1","-1","1","0","[]","0","2","","","1070","103","8","4","lose","no-go","0","0"
"pit-trial","167","1131344","0.0-108.0","battery-v0.2","","""event"",""trial"",""time""
""blur"",""1"",""1800""
""focus"",""1"",""5659""
""fullscreenenter"",""1"",""6176""
","""event"",""trial"",""time""
""blur"",""1"",""1800""
","""event"",""trial"",""time""
""focus"",""1"",""5659""
","""event"",""trial"",""time""
""fullscreenenter"",""1"",""6176""
","
","","","1184.5999999642372","","","14","1070","136","y","elianto","#3366ff99"," "," ","1","+10","[2035.2000000476837]","1","2","","","1070","104","9","1","win","go","0","0"
"pit-trial","168","1135152","0.0-109.0","battery-v0.2","","""event"",""trial"",""time""
""blur"",""1"",""1800""
""focus"",""1"",""5659""
""fullscreenenter"",""1"",""6176""
","""event"",""trial"",""time""
""blur"",""1"",""1800""
","""event"",""trial"",""time""
""focus"",""1"",""5659""
","""event"",""trial"",""time""
""fullscreenenter"",""1"",""6176""
","
","","","953.0999999642372","","","14","1070","136","c","elianto","#3366ff99","-1"," ","0","0","[1804.2000000476837]","1","2","","","1070","105","6","2","win","no-go","0","0"
"pit-trial","169","1139270","0.0-110.0","battery-v0.2","","""event"",""trial"",""time""
""blur"",""1"",""1800""
""focus"",""1"",""5659""
""fullscreenenter"",""1"",""6176""
","""event"",""trial"",""time""
""blur"",""1"",""1800""
","""event"",""trial"",""time""
""focus"",""1"",""5659""
","""event"",""trial"",""time""
""fullscreenenter"",""1"",""6176""
","
","","","1263.699999988079","","","14","1070","136","y","elianto","#3366ff99"," "," ","1","+10","[2114.400000035763]","1","2","","","1070","106","9","1","win","go","0","0"
"pit-trial","170","1143223","0.0-111.0","battery-v0.2","","""event"",""trial"",""time""
""blur"",""1"",""1800""
""focus"",""1"",""5659""
""fullscreenenter"",""1"",""6176""
","""event"",""trial"",""time""
""blur"",""1"",""1800""
","""event"",""trial"",""time""
""focus"",""1"",""5659""
","""event"",""trial"",""time""
""fullscreenenter"",""1"",""6176""
","
","","","1099.8999999761581","","","14","1070","136","r","elianto","#f73b6a7A"," "," ","1","0","[1950.5]","1","2","","","1070","107","10","3","lose","go","0","0"
"pit-trial","171","1148077","0.0-112.0","battery-v0.2","","""event"",""trial"",""time""
""blur"",""1"",""1800""
""focus"",""1"",""5659""
""fullscreenenter"",""1"",""6176""
","""event"",""trial"",""time""
""blur"",""1"",""1800""
","""event"",""trial"",""time""
""focus"",""1"",""5659""
","""event"",""trial"",""time""
""fullscreenenter"",""1"",""6176""
","
","","","-1","","","14","1070","136","h","elianto","#f73b6a7A","-1","-1","1","-10","[]","0","2","","","1070","108","8","4","lose","no-go","1","0"
"pit-trial","172","1152110","0.0-113.0","battery-v0.2","","""event"",""trial"",""time""
""blur"",""1"",""1800""
""focus"",""1"",""5659""
""fullscreenenter"",""1"",""6176""
","""event"",""trial"",""time""
""blur"",""1"",""1800""
","""event"",""trial"",""time""
""focus"",""1"",""5659""
","""event"",""trial"",""time""
""fullscreenenter"",""1"",""6176""
","
","","","1178.300000011921","","","14","1070","136","m","elianto","#3366ff99"," "," ","1","0","[2028.9000000357628]","1","2","","","1070","109","11","1","win","go","1","0"
"pit-trial","173","1156290","0.0-114.0","battery-v0.2","","""event"",""trial"",""time""
""blur"",""1"",""1800""
""focus"",""1"",""5659""
""fullscreenenter"",""1"",""6176""
","""event"",""trial"",""time""
""blur"",""1"",""1800""
","""event"",""trial"",""time""
""focus"",""1"",""5659""
","""event"",""trial"",""time""
""fullscreenenter"",""1"",""6176""
","
","","","1325.5999999642372","","","14","1070","136","h","elianto","#f73b6a7A","-1"," ","0","-10","[2176.199999988079]","1","2","","","1070","110","8","4","lose","no-go","0","0"
"pit-trial","174","1160879","0.0-115.0","battery-v0.2","","""event"",""trial"",""time""
""blur"",""1"",""1800""
""focus"",""1"",""5659""
""fullscreenenter"",""1"",""6176""
","""event"",""trial"",""time""
""blur"",""1"",""1800""
","""event"",""trial"",""time""
""focus"",""1"",""5659""
","""event"",""trial"",""time""
""fullscreenenter"",""1"",""6176""
","
","","","1734.0999999642372","","","14","1070","136","y","elianto","#3366ff99"," "," ","1","0","[2585.800000011921]","1","2","","","1070","111","9","1","win","go","1","0"
"pit-trial","175","1165733","0.0-116.0","battery-v0.2","","""event"",""trial"",""time""
""blur"",""1"",""1800""
""focus"",""1"",""5659""
""fullscreenenter"",""1"",""6176""
","""event"",""trial"",""time""
""blur"",""1"",""1800""
","""event"",""trial"",""time""
""focus"",""1"",""5659""
","""event"",""trial"",""time""
""fullscreenenter"",""1"",""6176""
","
","","","-1","","","14","1070","136","r","elianto","#f73b6a7A"," ","-1","0","-10","[]","0","2","","","1070","112","10","3","lose","go","0","0"
"pit-trial","176","1170047","0.0-117.0","battery-v0.2","","""event"",""trial"",""time""
""blur"",""1"",""1800""
""focus"",""1"",""5659""
""fullscreenenter"",""1"",""6176""
","""event"",""trial"",""time""
""blur"",""1"",""1800""
","""event"",""trial"",""time""
""focus"",""1"",""5659""
","""event"",""trial"",""time""
""fullscreenenter"",""1"",""6176""
","
","","","1459.6000000238419","","","14","1070","136","r","elianto","#f73b6a7A"," "," ","1","0","[2310.199999988079]","1","2","","","1070","113","10","3","lose","go","0","0"
"pit-trial","177","1173848","0.0-118.0","battery-v0.2","","""event"",""trial"",""time""
""blur"",""1"",""1800""
""focus"",""1"",""5659""
""fullscreenenter"",""1"",""6176""
","""event"",""trial"",""time""
""blur"",""1"",""1800""
","""event"",""trial"",""time""
""focus"",""1"",""5659""
","""event"",""trial"",""time""
""fullscreenenter"",""1"",""6176""
","
","","","948.3000000119209","","","14","1070","136","m","elianto","#3366ff99"," "," ","1","+10","[1798.6000000238419]","1","2","","","1070","114","11","1","win","go","0","0"
"pit-trial","178","1177614","0.0-119.0","battery-v0.2","","""event"",""trial"",""time""
""blur"",""1"",""1800""
""focus"",""1"",""5659""
""fullscreenenter"",""1"",""6176""
","""event"",""trial"",""time""
""blur"",""1"",""1800""
","""event"",""trial"",""time""
""focus"",""1"",""5659""
","""event"",""trial"",""time""
""fullscreenenter"",""1"",""6176""
","
","","","911.8999999761581","","","14","1070","136","y","elianto","#3366ff99"," "," ","1","0","[1762.8999999761581]","1","2","","","1070","115","9","1","win","go","1","0"
"pit-trial","179","1181538","0.0-120.0","battery-v0.2","","""event"",""trial"",""time""
""blur"",""1"",""1800""
""focus"",""1"",""5659""
""fullscreenenter"",""1"",""6176""
","""event"",""trial"",""time""
""blur"",""1"",""1800""
","""event"",""trial"",""time""
""focus"",""1"",""5659""
","""event"",""trial"",""time""
""fullscreenenter"",""1"",""6176""
","
","","","1070","","","14","1070","136","h","elianto","#f73b6a7A","-1"," ","0","0","[1921.0999999642372]","1","2","","","1070","116","8","4","lose","no-go","1","0"
"pit-trial","180","1185197","0.0-121.0","battery-v0.2","","""event"",""trial"",""time""
""blur"",""1"",""1800""
""focus"",""1"",""5659""
""fullscreenenter"",""1"",""6176""
","""event"",""trial"",""time""
""blur"",""1"",""1800""
","""event"",""trial"",""time""
""focus"",""1"",""5659""
","""event"",""trial"",""time""
""fullscreenenter"",""1"",""6176""
","
","","","805.8000000119209","","","14","1070","136","m","elianto","#3366ff99"," "," ","1","+10","[1656.3999999761581]","1","2","","","1070","117","11","1","win","go","0","0"
"pit-trial","181","1189206","0.0-122.0","battery-v0.2","","""event"",""trial"",""time""
""blur"",""1"",""1800""
""focus"",""1"",""5659""
""fullscreenenter"",""1"",""6176""
","""event"",""trial"",""time""
""blur"",""1"",""1800""
","""event"",""trial"",""time""
""focus"",""1"",""5659""
","""event"",""trial"",""time""
""fullscreenenter"",""1"",""6176""
","
","","","1155.7000000476837","","","14","1070","136","y","elianto","#3366ff99"," "," ","1","+10","[2006.5]","1","2","","","1070","118","9","1","win","go","0","0"
"pit-trial","182","1192924","0.0-123.0","battery-v0.2","","""event"",""trial"",""time""
""blur"",""1"",""1800""
""focus"",""1"",""5659""
""fullscreenenter"",""1"",""6176""
","""event"",""trial"",""time""
""blur"",""1"",""1800""
","""event"",""trial"",""time""
""focus"",""1"",""5659""
","""event"",""trial"",""time""
""fullscreenenter"",""1"",""6176""
","
","","","866.7999999523163","","","14","1070","136","r","elianto","#f73b6a7A"," "," ","1","0","[1717]","1","2","","","1070","119","10","3","lose","go","0","0"
"pit-trial","183","1197112","0.0-124.0","battery-v0.2","","""event"",""trial"",""time""
""blur"",""1"",""1800""
""focus"",""1"",""5659""
""fullscreenenter"",""1"",""6176""
","""event"",""trial"",""time""
""blur"",""1"",""1800""
","""event"",""trial"",""time""
""focus"",""1"",""5659""
","""event"",""trial"",""time""
""fullscreenenter"",""1"",""6176""
","
","","","1333.8999999761581","","","14","1070","136","h","elianto","#f73b6a7A","-1"," ","0","-10","[2184.599999964237]","1","2","","","1070","120","8","4","lose","no-go","0","0"
"pit-trial","184","1201308","0.0-125.0","battery-v0.2","","""event"",""trial"",""time""
""blur"",""1"",""1800""
""focus"",""1"",""5659""
""fullscreenenter"",""1"",""6176""
","""event"",""trial"",""time""
""blur"",""1"",""1800""
","""event"",""trial"",""time""
""focus"",""1"",""5659""
","""event"",""trial"",""time""
""fullscreenenter"",""1"",""6176""
","
