"trial_type","trial_index","time_elapsed","internal_node_id","task_version","subject_id","interactions","blur_events","focus_events","fullscreenenter_events","fullscreenexit_events","success","view_history","rt","responses","num_errors","age","subject","participantId","rune","rune_set","hex","correct","choice","accuracy","outcome","keys","total_keys","block","practice","value","sub","trial","stimulus","robot","valence","action","sham","browser_interactions"
"pavlovia","0","454","0.0-0.0","battery-v0.2","","""event"",""trial"",""time""
""fullscreenenter"",""1"",""2958""
","
","
","""event"",""trial"",""time""
""fullscreenenter"",""1"",""2958""
","
","","","","","","","","","","","","","","","","","","","","","","","","","","","",""
"fullscreen","1","3880","0.0-1.0","battery-v0.2","","""event"",""trial"",""time""
""fullscreenenter"",""1"",""2958""
","
","
","""event"",""trial"",""time""
""fullscreenenter"",""1"",""2958""
","
","true","","","","","","","","","","","","","","","","","","","","","","","","","","",""
"pit-instructions","2","8520","0.0-2.0-0.0","battery-v0.2","","""event"",""trial"",""time""
""fullscreenenter"",""1"",""2958""
","
","
","""event"",""trial"",""time""
""fullscreenenter"",""1"",""2958""
","
","","[{""page_index"":0,""viewing_time"":4628}]","4629.89999961853","","","","","","","","","","","","","","","","","","","","","","","","",""
"pit-comprehension","3","13937","0.0-2.0-1.0-0.0","battery-v0.2","","""event"",""trial"",""time""
""fullscreenenter"",""1"",""2958""
","
","
","""event"",""trial"",""time""
""fullscreenenter"",""1"",""2958""
","
","","","5408.5","[""shark""]","0","10","1237","1022","","","","","","","","","","","","","","","","","","","",""
"pit-instructions","4","126033","0.0-2.0-1.0-1.0","battery-v0.2","","""event"",""trial"",""time""
""fullscreenenter"",""1"",""2958""
","
","
","""event"",""trial"",""time""
""fullscreenenter"",""1"",""2958""
","
","","[{""page_index"":0,""viewing_time"":111967.60000038147}]","111968.9000005722","","","","","","","","","","","","","","","","","","","","","","","","",""
"pit-comprehension","5","133268","0.0-2.0-2.0-0.0","battery-v0.2","","""event"",""trial"",""time""
""fullscreenenter"",""1"",""2958""
","
","
","""event"",""trial"",""time""
""fullscreenenter"",""1"",""2958""
","
","","","7213.800000190735","[""tiger""]","0","10","1237","1022","","","","","","","","","","","","","","","","","","","",""
"pit-instructions","6","134761","0.0-2.0-2.0-1.0","battery-v0.2","","""event"",""trial"",""time""
""fullscreenenter"",""1"",""2958""
","
","
","""event"",""trial"",""time""
""fullscreenenter"",""1"",""2958""
","
","","[{""page_index"":0,""viewing_time"":1480.5999994277954}]","1482.3999996185303","","","","","","","","","","","","","","","","","","","","","","","","",""
"pit-instructions","7","246651","0.0-2.0-3.0","battery-v0.2","","""event"",""trial"",""time""
""fullscreenenter"",""1"",""2958""
","
","
","""event"",""trial"",""time""
""fullscreenenter"",""1"",""2958""
","
","","[{""page_index"":0,""viewing_time"":9152.699999809265},{""page_index"":1,""viewing_time"":6268.10000038147},{""page_index"":2,""viewing_time"":6254.799999237061},{""page_index"":3,""viewing_time"":5839.800000190735},{""page_index"":4,""viewing_time"":7179.699999809265},{""page_index"":5,""viewing_time"":5964.5},{""page_index"":6,""viewing_time"":7446.200000762939},{""page_index"":7,""viewing_time"":9601.39999961853},{""page_index"":8,""viewing_time"":8374.800000190735},{""page_index"":9,""viewing_time"":16596.39999961853},{""page_index"":10,""viewing_time"":7872.300000190735},{""page_index"":11,""viewing_time"":7558.89999961853},{""page_index"":12,""viewing_time"":7393.300000190735},{""page_index"":13,""viewing_time"":6373.400000572205}]","111877.89999961853","","","","","","","","","","","","","","","","","","","","","","","","",""
"pit-trial","8","251012","0.0-2.0-4.0-0.0","battery-v0.2","","""event"",""trial"",""time""
""fullscreenenter"",""1"",""2958""
","
","
","""event"",""trial"",""time""
""fullscreenenter"",""1"",""2958""
","
","","","1482.1999998092651","","","10","1237","1022","&#9784;","elianto","#FFFFF080"," "," ","1","&#10004","[2338.5]","1","0","0","","","","","","","","",""
"pit-trial","9","254736","0.0-2.0-4.1-0.1","battery-v0.2","","""event"",""trial"",""time""
""fullscreenenter"",""1"",""2958""
","
","
","""event"",""trial"",""time""
""fullscreenenter"",""1"",""2958""
","
","","","847","","","10","1237","1022","&#9784;","elianto","#FFFFF080"," "," ","1","&#10004","[1704.3999996185303]","1","0","0","","","","","","","","",""
"pit-trial","10","258442","0.0-2.0-4.2-0.2","battery-v0.2","","""event"",""trial"",""time""
""fullscreenenter"",""1"",""2958""
","
","
","""event"",""trial"",""time""
""fullscreenenter"",""1"",""2958""
","
","","","838.8999996185303","","","10","1237","1022","&#9784;","elianto","#FFFFF080"," "," ","1","&#10004","[1693.5999994277954]","1","0","0","","","","","","","","",""
"pit-trial","11","262151","0.0-2.0-4.3-0.3","battery-v0.2","","""event"",""trial"",""time""
""fullscreenenter"",""1"",""2958""
","
","
","""event"",""trial"",""time""
""fullscreenenter"",""1"",""2958""
","
","","","835.3000001907349","","","10","1237","1022","&#9784;","elianto","#FFFFF080"," "," ","1","&#10004","[1687.8999996185303]","1","0","0","","","","","","","","",""
"pit-trial","12","265818","0.0-2.0-4.4-0.4","battery-v0.2","","""event"",""trial"",""time""
""fullscreenenter"",""1"",""2958""
","
","
","""event"",""trial"",""time""
""fullscreenenter"",""1"",""2958""
","
","","","765","","","10","1237","1022","&#9784;","elianto","#FFFFF080"," "," ","1","&#10004","[1646.6999998092651]","1","0","0","","","","","","","","",""
"pit-instructions","13","291775","0.0-2.0-5.0","battery-v0.2","","""event"",""trial"",""time""
""fullscreenenter"",""1"",""2958""
","
","
","""event"",""trial"",""time""
""fullscreenenter"",""1"",""2958""
","
","","[{""page_index"":0,""viewing_time"":7613.900000572205},{""page_index"":1,""viewing_time"":5701.199999809265},{""page_index"":2,""viewing_time"":7085.699999809265},{""page_index"":3,""viewing_time"":5546.39999961853}]","25948.60000038147","","","","","","","","","","","","","","","","","","","","","","","","",""
"pit-trial","14","296651","0.0-2.0-6.0-0.0","battery-v0.2","","""event"",""trial"",""time""
""fullscreenenter"",""1"",""2958""
","
","
","""event"",""trial"",""time""
""fullscreenenter"",""1"",""2958""
","
","","","-1","","","10","1237","1022","&#9854;","elianto","#FFFFF080","-1","-1","1","&#10004","[]","0","0","1","","","","","","","","",""
"pit-trial","15","301516","0.0-2.0-6.1-0.1","battery-v0.2","","""event"",""trial"",""time""
""fullscreenenter"",""1"",""2958""
","
","
","""event"",""trial"",""time""
""fullscreenenter"",""1"",""2958""
","
","","","-1","","","10","1237","1022","&#9854;","elianto","#FFFFF080","-1","-1","1","&#10004","[]","0","0","1","","","","","","","","",""
"pit-trial","16","306391","0.0-2.0-6.2-0.2","battery-v0.2","","""event"",""trial"",""time""
""fullscreenenter"",""1"",""2958""
","
","
","""event"",""trial"",""time""
""fullscreenenter"",""1"",""2958""
","
","","","-1","","","10","1237","1022","&#9854;","elianto","#FFFFF080","-1","-1","1","&#10004","[]","0","0","1","","","","","","","","",""
"pit-trial","17","311278","0.0-2.0-6.3-0.3","battery-v0.2","","""event"",""trial"",""time""
""fullscreenenter"",""1"",""2958""
","
","
","""event"",""trial"",""time""
""fullscreenenter"",""1"",""2958""
","
","","","-1","","","10","1237","1022","&#9854;","elianto","#FFFFF080","-1","-1","1","&#10004","[]","0","0","1","","","","","","","","",""
"pit-trial","18","316160","0.0-2.0-6.4-0.4","battery-v0.2","","""event"",""trial"",""time""
""fullscreenenter"",""1"",""2958""
","
","
","""event"",""trial"",""time""
""fullscreenenter"",""1"",""2958""
","
","","","-1","","","10","1237","1022","&#9854;","elianto","#FFFFF080","-1","-1","1","&#10004","[]","0","0","1","","","","","","","","",""
"pit-instructions","19","475604","0.0-2.0-7.0","battery-v0.2","","""event"",""trial"",""time""
""fullscreenenter"",""1"",""2958""
","
","
","""event"",""trial"",""time""
""fullscreenenter"",""1"",""2958""
","
","","[{""page_index"":0,""viewing_time"":5851.5},{""page_index"":1,""viewing_time"":7674.199999809265},{""page_index"":2,""viewing_time"":6493.39999961853},{""page_index"":3,""viewing_time"":7845.700000762939},{""page_index"":4,""viewing_time"":6183.699999809265},{""page_index"":5,""viewing_time"":6645},{""page_index"":6,""viewing_time"":6804.89999961853},{""page_index"":7,""viewing_time"":10399.300000190735},{""page_index"":8,""viewing_time"":8317.199999809265},{""page_index"":9,""viewing_time"":7999.900000572205},{""page_index"":10,""viewing_time"":16841.599999427795},{""page_index"":11,""viewing_time"":5904.10000038147},{""page_index"":12,""viewing_time"":10478.699999809265},{""page_index"":13,""viewing_time"":12405.699999809265},{""page_index"":14,""viewing_time"":12597.10000038147},{""page_index"":15,""viewing_time"":8179.300000190735},{""page_index"":16,""viewing_time"":6428.5},{""page_index"":17,""viewing_time"":12385.29999923706}]","159436.39999961853","","","","","","","","","","","","","","","","","","","","","","","","",""
"pit-trial","20","480470","0.0-2.0-8.0-0.0","battery-v0.2","","""event"",""trial"",""time""
""fullscreenenter"",""1"",""2958""
","
","
","""event"",""trial"",""time""
""fullscreenenter"",""1"",""2958""
","
","","","-1","","","10","1237","1022","&#9776;","elianto","#3366ff99"," ","-1","0","0","[]","0","0","1","","","","","","","","",""
"pit-trial","21","485327","0.0-2.0-8.0-1.0","battery-v0.2","","""event"",""trial"",""time""
""fullscreenenter"",""1"",""2958""
","
","
","""event"",""trial"",""time""
""fullscreenenter"",""1"",""2958""
","
","","","-1","","","10","1237","1022","&#9776;","elianto","#3366ff99"," ","-1","0","0","[]","0","0","1","","","","","","","","",""
"pit-trial","22","490206","0.0-2.0-8.0-2.0","battery-v0.2","","""event"",""trial"",""time""
""fullscreenenter"",""1"",""2958""
","
","
","""event"",""trial"",""time""
""fullscreenenter"",""1"",""2958""
","
","","","-1","","","10","1237","1022","&#9776;","elianto","#3366ff99"," ","-1","0","0","[]","0","0","1","","","","","","","","",""
"pit-trial","23","493776","0.0-2.0-8.0-3.0","battery-v0.2","","""event"",""trial"",""time""
""fullscreenenter"",""1"",""2958""
","
","
","""event"",""trial"",""time""
""fullscreenenter"",""1"",""2958""
","
","","","711.6000003814697","","","10","1237","1022","&#9776;","elianto","#3366ff99"," "," ","1","0","[1565.5999994277954]","1","0","1","","","","","","","","",""
"pit-trial","24","496915","0.0-2.0-8.0-4.0","battery-v0.2","","""event"",""trial"",""time""
""fullscreenenter"",""1"",""2958""
","
","
","""event"",""trial"",""time""
""fullscreenenter"",""1"",""2958""
","
","","","276.30000019073486","","","10","1237","1022","&#9776;","elianto","#3366ff99"," "," ","1","+10","[1130.8000001907349]","1","0","1","","","","","","","","",""
"pit-trial","25","500222","0.0-2.0-8.1-0.1","battery-v0.2","","""event"",""trial"",""time""
""fullscreenenter"",""1"",""2958""
","
","
","""event"",""trial"",""time""
""fullscreenenter"",""1"",""2958""
","
","","","445.70000076293945","","","10","1237","1022","&#9776;","elianto","#3366ff99"," "," ","1","+10","[1296.3000001907349]","1","0","1","","","","","","","","",""
"pit-trial","26","503504","0.0-2.0-8.1-1.1","battery-v0.2","","""event"",""trial"",""time""
""fullscreenenter"",""1"",""2958""
","
","
","""event"",""trial"",""time""
""fullscreenenter"",""1"",""2958""
","
","","","423","","","10","1237","1022","&#9776;","elianto","#3366ff99"," "," ","1","+10","[1275]","1","0","1","","","","","","","","",""
"pit-trial","27","506924","0.0-2.0-8.1-2.1","battery-v0.2","","""event"",""trial"",""time""
""fullscreenenter"",""1"",""2958""
","
","
","""event"",""trial"",""time""
""fullscreenenter"",""1"",""2958""
","
","","","551.5","","","10","1237","1022","&#9776;","elianto","#3366ff99"," "," ","1","+10","[1409.1999998092651]","1","0","1","","","","","","","","",""
"pit-trial","28","510324","0.0-2.0-8.1-3.1","battery-v0.2","","""event"",""trial"",""time""
""fullscreenenter"",""1"",""2958""
","
","
","""event"",""trial"",""time""
""fullscreenenter"",""1"",""2958""
","
","","","535.2999992370605","","","10","1237","1022","&#9776;","elianto","#3366ff99"," "," ","1","0","[1388.1000003814697]","1","0","1","","","","","","","","",""
"pit-trial","29","513615","0.0-2.0-8.1-4.1","battery-v0.2","","""event"",""trial"",""time""
""fullscreenenter"",""1"",""2958""
","
","
","""event"",""trial"",""time""
""fullscreenenter"",""1"",""2958""
","
","","","429.69999980926514","","","10","1237","1022","&#9776;","elianto","#3366ff99"," "," ","1","+10","[1285.3000001907349]","1","0","1","","","","","","","","",""
"call-function","30","513618","0.0-2.0-9.0","battery-v0.2","","""event"",""trial"",""time""
""fullscreenenter"",""1"",""2958""
","
","
","""event"",""trial"",""time""
""fullscreenenter"",""1"",""2958""
","
","","","","","","","","","","","","","","","","","","","","","","","","","","","",""
"pit-instructions","31","559330","0.0-2.0-10.0","battery-v0.2","","""event"",""trial"",""time""
""fullscreenenter"",""1"",""2958""
","
","
","""event"",""trial"",""time""
""fullscreenenter"",""1"",""2958""
","
","","[{""page_index"":0,""viewing_time"":7256.199999809265},{""page_index"":1,""viewing_time"":7801.599999427795},{""page_index"":2,""viewing_time"":10057.20000076294},{""page_index"":3,""viewing_time"":9893.39999961853},{""page_index"":4,""viewing_time"":10700.699999809265}]","45710.29999923706","","","","","","","","","","","","","","","","","","","","","","","","",""
"pit-trial","32","564196","0.0-2.0-11.0-0.0","battery-v0.2","","""event"",""trial"",""time""
""fullscreenenter"",""1"",""2958""
","
","
","""event"",""trial"",""time""
""fullscreenenter"",""1"",""2958""
","
","","","-1","","","10","1237","1022","&#9761;","elianto","#3366ff99","-1","-1","1","+10","[]","0","0","2","","","","","","","","",""
"pit-trial","33","569052","0.0-2.0-11.0-1.0","battery-v0.2","","""event"",""trial"",""time""
""fullscreenenter"",""1"",""2958""
","
","
","""event"",""trial"",""time""
""fullscreenenter"",""1"",""2958""
","
","","","-1","","","10","1237","1022","&#9761;","elianto","#3366ff99","-1","-1","1","+10","[]","0","0","2","","","","","","","","",""
"pit-trial","34","573935","0.0-2.0-11.0-2.0","battery-v0.2","","""event"",""trial"",""time""
""fullscreenenter"",""1"",""2958""
","
","
","""event"",""trial"",""time""
""fullscreenenter"",""1"",""2958""
","
","","","-1","","","10","1237","1022","&#9761;","elianto","#3366ff99","-1","-1","1","+10","[]","0","0","2","","","","","","","","",""
"pit-trial","35","578809","0.0-2.0-11.0-3.0","battery-v0.2","","""event"",""trial"",""time""
""fullscreenenter"",""1"",""2958""
","
","
","""event"",""trial"",""time""
""fullscreenenter"",""1"",""2958""
","
","","","-1","","","10","1237","1022","&#9761;","elianto","#3366ff99","-1","-1","1","0","[]","0","0","2","","","","","","","","",""
"pit-trial","36","583671","0.0-2.0-11.0-4.0","battery-v0.2","","""event"",""trial"",""time""
""fullscreenenter"",""1"",""2958""
","
","
","""event"",""trial"",""time""
""fullscreenenter"",""1"",""2958""
","
","","","-1","","","10","1237","1022","&#9761;","elianto","#3366ff99","-1","-1","1","+10","[]","0","0","2","","","","","","","","",""
"call-function","37","583675","0.0-2.0-12.0","battery-v0.2","","""event"",""trial"",""time""
""fullscreenenter"",""1"",""2958""
","
","
","""event"",""trial"",""time""
""fullscreenenter"",""1"",""2958""
","
","","","","","","","","","","","","","","","","","","","","","","","","","","","",""
"pit-instructions","38","666280","0.0-2.0-13.0","battery-v0.2","","""event"",""trial"",""time""
""fullscreenenter"",""1"",""2958""
","
","
","""event"",""trial"",""time""
""fullscreenenter"",""1"",""2958""
","
","","[{""page_index"":0,""viewing_time"":40867.10000038147},{""page_index"":1,""viewing_time"":15046.699999809265},{""page_index"":2,""viewing_time"":6732.400000572205},{""page_index"":3,""viewing_time"":13423.79999923706},{""page_index"":4,""viewing_time"":6532.10000038147}]","82603.10000038147","","","","","","","","","","","","","","","","","","","","","","","","",""
"pit-trial","39","671141","0.0-2.0-14.0-0.0","battery-v0.2","","""event"",""trial"",""time""
""fullscreenenter"",""1"",""2958""
","
","
","""event"",""trial"",""time""
""fullscreenenter"",""1"",""2958""
","
","","","-1","","","10","1237","1022","&#9826;","elianto","#f73b6a7A","-1","-1","1","0","[]","0","0","3","","","","","","","","",""
"pit-trial","40","676003","0.0-2.0-14.0-1.0","battery-v0.2","","""event"",""trial"",""time""
""fullscreenenter"",""1"",""2958""
","
","
","""event"",""trial"",""time""
""fullscreenenter"",""1"",""2958""
","
","","","-1","","","10","1237","1022","&#9826;","elianto","#f73b6a7A","-1","-1","1","0","[]","0","0","3","","","","","","","","",""
"pit-trial","41","680889","0.0-2.0-14.0-2.0","battery-v0.2","","""event"",""trial"",""time""
""fullscreenenter"",""1"",""2958""
","
","
","""event"",""trial"",""time""
""fullscreenenter"",""1"",""2958""
","
","","","-1","","","10","1237","1022","&#9826;","elianto","#f73b6a7A","-1","-1","1","0","[]","0","0","3","","","","","","","","",""
"pit-trial","42","685777","0.0-2.0-14.0-3.0","battery-v0.2","","""event"",""trial"",""time""
""fullscreenenter"",""1"",""2958""
","
","
","""event"",""trial"",""time""
""fullscreenenter"",""1"",""2958""
","
","","","-1","","","10","1237","1022","&#9826;","elianto","#f73b6a7A","-1","-1","1","-10","[]","0","0","3","","","","","","","","",""
"pit-trial","43","690657","0.0-2.0-14.0-4.0","battery-v0.2","","""event"",""trial"",""time""
""fullscreenenter"",""1"",""2958""
","
","
","""event"",""trial"",""time""
""fullscreenenter"",""1"",""2958""
","
","","","-1","","","10","1237","1022","&#9826;","elianto","#f73b6a7A","-1","-1","1","0","[]","0","0","3","","","","","","","","",""
"call-function","44","690662","0.0-2.0-15.0","battery-v0.2","","""event"",""trial"",""time""
""fullscreenenter"",""1"",""2958""
","
","
","""event"",""trial"",""time""
""fullscreenenter"",""1"",""2958""
","
","","","","","","","","","","","","","","","","","","","","","","","","","","","",""
"pit-instructions","45","719809","0.0-2.0-16.0","battery-v0.2","","""event"",""trial"",""time""
""fullscreenenter"",""1"",""2958""
","
","
","""event"",""trial"",""time""
""fullscreenenter"",""1"",""2958""
","
","","[{""page_index"":0,""viewing_time"":7220.300000190735},{""page_index"":1,""viewing_time"":10001.599999427795},{""page_index"":2,""viewing_time"":4725.300000190735},{""page_index"":3,""viewing_time"":7196.800000190735}]","29145.199999809265","","","","","","","","","","","","","","","","","","","","","","","","",""
"pit-trial","46","723790","0.0-2.0-17.0-0.0","battery-v0.2","","""event"",""trial"",""time""
""fullscreenenter"",""1"",""2958""
","
","
","""event"",""trial"",""time""
""fullscreenenter"",""1"",""2958""
","
","","","1103.6000003814697","","","10","1237","1022","&#9789;","elianto","#f73b6a7A"," "," ","1","0","[1960.5]","1","0","4","","","","","","","","",""
"pit-trial","47","727006","0.0-2.0-17.0-1.0","battery-v0.2","","""event"",""trial"",""time""
""fullscreenenter"",""1"",""2958""
","
","
","""event"",""trial"",""time""
""fullscreenenter"",""1"",""2958""
","
","","","344.69999980926514","","","10","1237","1022","&#9789;","elianto","#f73b6a7A"," "," ","1","0","[1201.5]","1","0","4","","","","","","","","",""
"pit-trial","48","730062","0.0-2.0-17.0-2.0","battery-v0.2","","""event"",""trial"",""time""
""fullscreenenter"",""1"",""2958""
","
","
","""event"",""trial"",""time""
""fullscreenenter"",""1"",""2958""
","
","","","182","","","10","1237","1022","&#9789;","elianto","#f73b6a7A"," "," ","1","0","[1036.6999998092651]","1","0","4","","","","","","","","",""
"pit-trial","49","734637","0.0-2.0-17.0-3.0","battery-v0.2","","""event"",""trial"",""time""
""fullscreenenter"",""1"",""2958""
","
","
","""event"",""trial"",""time""
""fullscreenenter"",""1"",""2958""
","
","","","1705.8000001907349","","","10","1237","1022","&#9789;","elianto","#f73b6a7A"," "," ","1","-10","[2556.4000005722046]","1","0","4","","","","","","","","",""
"pit-trial","50","737760","0.0-2.0-17.0-4.0","battery-v0.2","","""event"",""trial"",""time""
""fullscreenenter"",""1"",""2958""
","
","
","""event"",""trial"",""time""
""fullscreenenter"",""1"",""2958""
","
","","","252.80000019073486","","","10","1237","1022","&#9789;","elianto","#f73b6a7A"," "," ","1","0","[1106.4000005722046]","1","0","4","","","","","","","","",""
"call-function","51","737768","0.0-2.0-18.0","battery-v0.2","","""event"",""trial"",""time""
""fullscreenenter"",""1"",""2958""
","
","
","""event"",""trial"",""time""
""fullscreenenter"",""1"",""2958""
","
","","","","","","","","","","","","","","","","","","","","","","","","","","","",""
"pit-instructions","52","884542","0.0-2.0-19.0","battery-v0.2","","""event"",""trial"",""time""
""fullscreenenter"",""1"",""2958""
","
","
","""event"",""trial"",""time""
""fullscreenenter"",""1"",""2958""
","
","","[{""page_index"":0,""viewing_time"":7704.5},{""page_index"":1,""viewing_time"":17245.5},{""page_index"":2,""viewing_time"":72971.30000019073},{""page_index"":3,""viewing_time"":11229.300000190735},{""page_index"":4,""viewing_time"":9532},{""page_index"":5,""viewing_time"":8128.699999809265},{""page_index"":6,""viewing_time"":9196.400000572205},{""page_index"":7,""viewing_time"":6334.699999809265},{""page_index"":8,""viewing_time"":4428.199999809265}]","146772","","","","","","","","","","","","","","","","","","","","","","","","",""
"pit-comprehension","53","889698","0.0-2.0-20.0-0.0","battery-v0.2","","""event"",""trial"",""time""
""fullscreenenter"",""1"",""2958""
","
","
","""event"",""trial"",""time""
""fullscreenenter"",""1"",""2958""
","
","","","5149.199999809265","[""SPACE""]","0","10","1237","1022","","","","","","","","","","","","","","","","","","","",""
"pit-instructions","54","892956","0.0-2.0-20.0-1.0","battery-v0.2","","""event"",""trial"",""time""
""fullscreenenter"",""1"",""2958""
","
","
","""event"",""trial"",""time""
""fullscreenenter"",""1"",""2958""
","
","","[{""page_index"":0,""viewing_time"":3192.699999809265}]","3193.5999994277954","","","","","","","","","","","","","","","","","","","","","","","","",""
"pit-comprehension","55","900835","0.0-2.0-21.0-0.0","battery-v0.2","","""event"",""trial"",""time""
""fullscreenenter"",""1"",""2958""
","
","
","""event"",""trial"",""time""
""fullscreenenter"",""1"",""2958""
","
","","","7870.900000572205","[""10""]","0","10","1237","1022","","","","","","","","","","","","","","","","","","","",""
"pit-instructions","56","903086","0.0-2.0-21.0-1.0","battery-v0.2","","""event"",""trial"",""time""
""fullscreenenter"",""1"",""2958""
","
","
","""event"",""trial"",""time""
""fullscreenenter"",""1"",""2958""
","
","","[{""page_index"":0,""viewing_time"":2206.7000007629395}]","2207.5","","","","","","","","","","","","","","","","","","","","","","","","",""
"pit-comprehension","57","910192","0.0-2.0-22.0-0.0","battery-v0.2","","""event"",""trial"",""time""
""fullscreenenter"",""1"",""2958""
","
","
","""event"",""trial"",""time""
""fullscreenenter"",""1"",""2958""
","
","","","7099.699999809265","[""0""]","0","10","1237","1022","","","","","","","","","","","","","","","","","","","",""
"pit-instructions","58","911900","0.0-2.0-22.0-1.0","battery-v0.2","","""event"",""trial"",""time""
""fullscreenenter"",""1"",""2958""
","
","
","""event"",""trial"",""time""
""fullscreenenter"",""1"",""2958""
","
","","[{""page_index"":0,""viewing_time"":1651.3000001907349}]","1651.9000005722046","","","","","","","","","","","","","","","","","","","","","","","","",""
"pit-comprehension","59","931476","0.0-2.0-23.0-0.0","battery-v0.2","","""event"",""trial"",""time""
""fullscreenenter"",""1"",""2958""
","
","
","""event"",""trial"",""time""
""fullscreenenter"",""1"",""2958""
","
","","","19569.5","[""True""]","0","10","1237","1022","","","","","","","","","","","","","","","","","","","",""
"pit-instructions","60","933105","0.0-2.0-23.0-1.0","battery-v0.2","","""event"",""trial"",""time""
""fullscreenenter"",""1"",""2958""
","
","
","""event"",""trial"",""time""
""fullscreenenter"",""1"",""2958""
","
","","[{""page_index"":0,""viewing_time"":1571.0999994277954}]","1571.8999996185303","","","","","","","","","","","","","","","","","","","","","","","","",""
"pit-comprehension","61","940813","0.0-2.0-24.0-0.0","battery-v0.2","","""event"",""trial"",""time""
""fullscreenenter"",""1"",""2958""
","
","
","""event"",""trial"",""time""
""fullscreenenter"",""1"",""2958""
","
","","","7702.300000190735","[""True""]","0","10","1237","1022","","","","","","","","","","","","","","","","","","","",""
"pit-instructions","62","942145","0.0-2.0-24.0-1.0","battery-v0.2","","""event"",""trial"",""time""
""fullscreenenter"",""1"",""2958""
","
","
","""event"",""trial"",""time""
""fullscreenenter"",""1"",""2958""
","
","","[{""page_index"":0,""viewing_time"":1282.8999996185303}]","1283.8000001907349","","","","","","","","","","","","","","","","","","","","","","","","",""
"pit-comprehension","63","952006","0.0-2.0-25.0-0.0","battery-v0.2","","""event"",""trial"",""time""
""fullscreenenter"",""1"",""2958""
","
","
","""event"",""trial"",""time""
""fullscreenenter"",""1"",""2958""
","
","","","9853.5","[""True""]","0","10","1237","1022","","","","","","","","","","","","","","","","","","","",""
"pit-instructions","64","953847","0.0-2.0-25.0-1.0","battery-v0.2","","""event"",""trial"",""time""
""fullscreenenter"",""1"",""2958""
","
","
","""event"",""trial"",""time""
""fullscreenenter"",""1"",""2958""
","
","","[{""page_index"":0,""viewing_time"":1784.1999998092651}]","1784.6000003814697","","","","","","","","","","","","","","","","","","","","","","","","",""
"pit-comprehension","65","958797","0.0-2.0-26.0-0.0","battery-v0.2","","""event"",""trial"",""time""
""fullscreenenter"",""1"",""2958""
","
","
","""event"",""trial"",""time""
""fullscreenenter"",""1"",""2958""
","
","","","4944.199999809265","[""False""]","0","10","1237","1022","","","","","","","","","","","","","","","","","","","",""
"pit-instructions","66","961034","0.0-2.0-26.0-1.0","battery-v0.2","","""event"",""trial"",""time""
""fullscreenenter"",""1"",""2958""
","
","
","""event"",""trial"",""time""
""fullscreenenter"",""1"",""2958""
","
","","[{""page_index"":0,""viewing_time"":2177.0999994277954}]","2177.5","","","","","","","","","","","","","","","","","","","","","","","","",""
"pit-instructions","67","984206","0.0-3.0","battery-v0.2","","""event"",""trial"",""time""
""fullscreenenter"",""1"",""2958""
","
","
","""event"",""trial"",""time""
""fullscreenenter"",""1"",""2958""
","
","","[{""page_index"":0,""viewing_time"":6188.5},{""page_index"":1,""viewing_time"":5669.699999809265},{""page_index"":2,""viewing_time"":11310.60000038147}]","23169.300000190735","","","","","","","","","","","","","","","","","","","","","","","","",""
"pit-trial","68","987646","0.0-4.0","battery-v0.2","","""event"",""trial"",""time""
""fullscreenenter"",""1"",""2958""
","
","
","""event"",""trial"",""time""
""fullscreenenter"",""1"",""2958""
","
","","","574.0999994277954","","","10","1237","1022","&#9730;","elianto","#3366ff99"," "," ","1","+10","[1425.3000001907349]","1","1","","","1237","1","1","1","win","go","0","[]"
"pit-trial","69","990939","0.0-5.0","battery-v0.2","","""event"",""trial"",""time""
""fullscreenenter"",""1"",""2958""
","
","
","""event"",""trial"",""time""
""fullscreenenter"",""1"",""2958""
","
","","","422.6000003814697","","","10","1237","1022","&#9733;","elianto","#3366ff99","-1"," ","0","0","[1274.1999998092651]","1","1","","","1237","2","2","2","win","no-go","0","0"
"pit-trial","70","994670","0.0-6.0","battery-v0.2","","""event"",""trial"",""time""
""fullscreenenter"",""1"",""2958""
","
","
","""event"",""trial"",""time""
""fullscreenenter"",""1"",""2958""
","
","","","874.8000001907349","","","10","1237","1022","&#9752;","elianto","#f73b6a7A"," "," ","1","0","[1726.1999998092651]","1","1","","","1237","3","3","3","lose","go","0","0"
"pit-trial","71","998703","0.0-7.0","battery-v0.2","","""event"",""trial"",""time""
""fullscreenenter"",""1"",""2958""
","
","
","""event"",""trial"",""time""
""fullscreenenter"",""1"",""2958""
","
","","","1165.2999992370605","","","10","1237","1022","&#9728;","elianto","#f73b6a7A","-1"," ","0","-10","[2018.6999998092651]","1","1","","","1237","4","0","4","lose","no-go","0","0"
"pit-trial","72","1003576","0.0-8.0","battery-v0.2","","""event"",""trial"",""time""
""fullscreenenter"",""1"",""2958""
","
","
","""event"",""trial"",""time""
""fullscreenenter"",""1"",""2958""
","
","","","-1","","","10","1237","1022","&#9728;","elianto","#f73b6a7A","-1","-1","1","0","[]","0","1","","","1237","5","0","4","lose","no-go","0","0"
"pit-trial","73","1007597","0.0-9.0","battery-v0.2","","""event"",""trial"",""time""
""fullscreenenter"",""1"",""2958""
","
","
","""event"",""trial"",""time""
""fullscreenenter"",""1"",""2958""
","
","","","1160.8000001907349","","","10","1237","1022","&#9752;","elianto","#f73b6a7A"," "," ","1","0","[2012.3000001907349]","1","1","","","1237","6","3","3","lose","go","0","0"
"pit-trial","74","1011323","0.0-10.0","battery-v0.2","","""event"",""trial"",""time""
""fullscreenenter"",""1"",""2958""
","
","
","""event"",""trial"",""time""
""fullscreenenter"",""1"",""2958""
","
","","","858.3000001907349","","","10","1237","1022","&#9730;","elianto","#3366ff99"," "," ","1","0","[1714.4000005722046]","1","1","","","1237","7","1","1","win","go","1","0"
"pit-trial","75","1016182","0.0-11.0","battery-v0.2","","""event"",""trial"",""time""
""fullscreenenter"",""1"",""2958""
","
","
","""event"",""trial"",""time""
""fullscreenenter"",""1"",""2958""
","
","","","-1","","","10","1237","1022","&#9733;","elianto","#3366ff99","-1","-1","1","+10","[]","0","1","","","1237","8","2","2","win","no-go","0","0"
"pit-trial","76","1021046","0.0-12.0","battery-v0.2","","""event"",""trial"",""time""
""fullscreenenter"",""1"",""2958""
","
","
","""event"",""trial"",""time""
""fullscreenenter"",""1"",""2958""
","
","","","-1","","","10","1237","1022","&#9728;","elianto","#f73b6a7A","-1","-1","1","0","[]","0","1","","","1237","9","0","4","lose","no-go","0","0"
"pit-trial","77","1025914","0.0-13.0","battery-v0.2","","""event"",""trial"",""time""
""fullscreenenter"",""1"",""2958""
","
","
","""event"",""trial"",""time""
""fullscreenenter"",""1"",""2958""
","
","","","-1","","","10","1237","1022","&#9733;","elianto","#3366ff99","-1","-1","1","+10","[]","0","1","","","1237","10","2","2","win","no-go","0","0"
"pit-trial","78","1029889","0.0-14.0","battery-v0.2","","""event"",""trial"",""time""
""fullscreenenter"",""1"",""2958""
","
","
","""event"",""trial"",""time""
""fullscreenenter"",""1"",""2958""
","
","","","1113.6999998092651","","","10","1237","1022","&#9730;","elianto","#3366ff99"," "," ","1","+10","[1964.9000005722046]","1","1","","","1237","11","1","1","win","go","0","0"
"pit-trial","79","1033541","0.0-15.0","battery-v0.2","","""event"",""trial"",""time""
""fullscreenenter"",""1"",""2958""
","
","
","""event"",""trial"",""time""
""fullscreenenter"",""1"",""2958""
","
","","","781.1999998092651","","","10","1237","1022","&#9752;","elianto","#f73b6a7A"," "," ","1","0","[1639.5]","1","1","","","1237","12","3","3","lose","go","0","0"
"pit-trial","80","1037381","0.0-16.0","battery-v0.2","","""event"",""trial"",""time""
""fullscreenenter"",""1"",""2958""
","
","
","""event"",""trial"",""time""
""fullscreenenter"",""1"",""2958""
","
","","","975","","","10","1237","1022","&#9730;","elianto","#3366ff99"," "," ","1","+10","[1829.7999992370605]","1","1","","","1237","13","1","1","win","go","0","0"
"pit-trial","81","1041324","0.0-17.0","battery-v0.2","","""event"",""trial"",""time""
""fullscreenenter"",""1"",""2958""
","
","
","""event"",""trial"",""time""
""fullscreenenter"",""1"",""2958""
","
","","","1078.3000001907349","","","10","1237","1022","&#9752;","elianto","#f73b6a7A"," "," ","1","0","[1928.8999996185303]","1","1","","","1237","14","3","3","lose","go","0","0"
"pit-trial","82","1046199","0.0-18.0","battery-v0.2","","""event"",""trial"",""time""
""fullscreenenter"",""1"",""2958""
","
","
","""event"",""trial"",""time""
""fullscreenenter"",""1"",""2958""
","
","","","-1","","","10","1237","1022","&#9728;","elianto","#f73b6a7A","-1","-1","1","-10","[]","0","1","","","1237","15","0","4","lose","no-go","1","0"
"pit-trial","83","1049935","0.0-19.0","battery-v0.2","","""event"",""trial"",""time""
""fullscreenenter"",""1"",""2958""
","
","
","""event"",""trial"",""time""
""fullscreenenter"",""1"",""2958""
","
","","","876.8999996185303","","","10","1237","1022","&#9733;","elianto","#3366ff99","-1"," ","0","0","[1727]","1","1","","","1237","16","2","2","win","no-go","0","0"
"pit-trial","84","1054070","0.0-20.0","battery-v0.2","","""event"",""trial"",""time""
""fullscreenenter"",""1"",""2958""
","
","
","""event"",""trial"",""time""
""fullscreenenter"",""1"",""2958""
","
","","","1270.3000001907349","","","10","1237","1022","&#9752;","elianto","#f73b6a7A"," "," ","1","0","[2120.3999996185303]","1","1","","","1237","17","3","3","lose","go","0","0"
"pit-trial","85","1057793","0.0-21.0","battery-v0.2","","""event"",""trial"",""time""
""fullscreenenter"",""1"",""2958""
","
","
","""event"",""trial"",""time""
""fullscreenenter"",""1"",""2958""
","
","","","861","","","10","1237","1022","&#9730;","elianto","#3366ff99"," "," ","1","0","[1713.6000003814697]","1","1","","","1237","18","1","1","win","go","1","0"
"pit-trial","86","1062656","0.0-22.0","battery-v0.2","","""event"",""trial"",""time""
""fullscreenenter"",""1"",""2958""
","
","
","""event"",""trial"",""time""
""fullscreenenter"",""1"",""2958""
","
","","","-1","","","10","1237","1022","&#9728;","elianto","#f73b6a7A","-1","-1","1","0","[]","0","1","","","1237","19","0","4","lose","no-go","0","0"
"pit-trial","87","1067515","0.0-23.0","battery-v0.2","","""event"",""trial"",""time""
""fullscreenenter"",""1"",""2958""
","
","
","""event"",""trial"",""time""
""fullscreenenter"",""1"",""2958""
","
","","","-1","","","10","1237","1022","&#9733;","elianto","#3366ff99","-1","-1","1","+10","[]","0","1","","","1237","20","2","2","win","no-go","0","0"
"pit-instructions","88","1083069","0.0-24.0","battery-v0.2","","""event"",""trial"",""time""
""fullscreenenter"",""1"",""2958""
","
","
","""event"",""trial"",""time""
""fullscreenenter"",""1"",""2958""
","
","","[{""page_index"":0,""viewing_time"":9042.199999809265},{""page_index"":1,""viewing_time"":6507.599999427795}]","15550.39999961853","","","","","","","","","","","","","","","","","","","","","","","","",""
"pit-trial","89","1086427","0.0-25.0","battery-v0.2","","""event"",""trial"",""time""
""fullscreenenter"",""1"",""2958""
","
","
","""event"",""trial"",""time""
""fullscreenenter"",""1"",""2958""
","
","","","495.19999980926514","","","10","1237","1022","u","elianto","#3366ff99","-1"," ","0","0","[1347.6000003814697]","1","2","","","1237","21","0","2","win","no-go","0","0"
"pit-trial","90","1090177","0.0-26.0","battery-v0.2","","""event"",""trial"",""time""
""fullscreenenter"",""1"",""2958""
","
","
","""event"",""trial"",""time""
""fullscreenenter"",""1"",""2958""
","
","","","880.1999998092651","","","10","1237","1022","g","elianto","#3366ff99"," "," ","1","0","[1731.8000001907349]","1","2","","","1237","22","3","1","win","go","1","0"
"pit-trial","91","1094767","0.0-27.0","battery-v0.2","","""event"",""trial"",""time""
""fullscreenenter"",""1"",""2958""
","
","
","""event"",""trial"",""time""
""fullscreenenter"",""1"",""2958""
","
","","","1724.5","","","10","1237","1022","a","elianto","#f73b6a7A","-1"," ","0","-10","[2583.2000007629395]","1","2","","","1237","23","2","4","lose","no-go","0","0"
"pit-trial","92","1098831","0.0-28.0","battery-v0.2","","""event"",""trial"",""time""
""fullscreenenter"",""1"",""2958""
","
","
","""event"",""trial"",""time""
""fullscreenenter"",""1"",""2958""
","
","","","1198.1999998092651","","","10","1237","1022","l","elianto","#f73b6a7A"," "," ","1","0","[2048.8999996185303]","1","2","","","1237","24","1","3","lose","go","0","0"
"pit-trial","93","1102661","0.0-29.0","battery-v0.2","","""event"",""trial"",""time""
""fullscreenenter"",""1"",""2958""
","
","
","""event"",""trial"",""time""
""fullscreenenter"",""1"",""2958""
","
","","","968","","","10","1237","1022","a","elianto","#f73b6a7A","-1"," ","0","-10","[1817.9000005722046]","1","2","","","1237","25","2","4","lose","no-go","0","0"
"pit-trial","94","1106853","0.0-30.0","battery-v0.2","","""event"",""trial"",""time""
""fullscreenenter"",""1"",""2958""
","
","
","""event"",""trial"",""time""
""fullscreenenter"",""1"",""2958""
","
","","","1325.3000001907349","","","10","1237","1022","g","elianto","#3366ff99"," "," ","1","+10","[2176.699999809265]","1","2","","","1237","26","3","1","win","go","0","0"
"pit-trial","95","1111261","0.0-31.0","battery-v0.2","","""event"",""trial"",""time""
""fullscreenenter"",""1"",""2958""
","
","
","""event"",""trial"",""time""
""fullscreenenter"",""1"",""2958""
","
","","","1541","","","10","1237","1022","l","elianto","#f73b6a7A"," "," ","1","0","[2392.3999996185303]","1","2","","","1237","27","1","3","lose","go","0","0"
"pit-trial","96","1115608","0.0-32.0","battery-v0.2","","""event"",""trial"",""time""
""fullscreenenter"",""1"",""2958""
","
","
","""event"",""trial"",""time""
""fullscreenenter"",""1"",""2958""
","
","","","1486.3000001907349","","","10","1237","1022","u","elianto","#3366ff99","-1"," ","0","0","[2337.199999809265]","1","2","","","1237","28","0","2","win","no-go","0","0"
"pit-trial","97","1119490","0.0-33.0","battery-v0.2","","""event"",""trial"",""time""
""fullscreenenter"",""1"",""2958""
","
","
","""event"",""trial"",""time""
""fullscreenenter"",""1"",""2958""
","
","","","1018.4000005722046","","","10","1237","1022","g","elianto","#3366ff99"," "," ","1","+10","[1871.6000003814697]","1","2","","","1237","29","3","1","win","go","0","0"
"pit-trial","98","1124355","0.0-34.0","battery-v0.2","","""event"",""trial"",""time""
""fullscreenenter"",""1"",""2958""
","
","
","""event"",""trial"",""time""
""fullscreenenter"",""1"",""2958""
","
","","","-1","","","10","1237","1022","u","elianto","#3366ff99","-1","-1","1","+10","[]","0","2","","","1237","30","0","2","win","no-go","0","0"
"pit-trial","99","1128652","0.0-35.0","battery-v0.2","","""event"",""trial"",""time""
""fullscreenenter"",""1"",""2958""
","
","
","""event"",""trial"",""time""
""fullscreenenter"",""1"",""2958""
","
","","","1441.8000001907349","","","10","1237","1022","a","elianto","#f73b6a7A","-1"," ","0","-10","[2293.0999994277954]","1","2","","","1237","31","2","4","lose","no-go","0","0"
"pit-trial","100","1132831","0.0-36.0","battery-v0.2","","""event"",""trial"",""time""
""fullscreenenter"",""1"",""2958""
","
","
","""event"",""trial"",""time""
""fullscreenenter"",""1"",""2958""
","
","","","1317.4000005722046","","","10","1237","1022","l","elianto","#f73b6a7A"," "," ","1","-10","[2174.300000190735]","1","2","","","1237","32","1","3","lose","go","1","0"
"pit-trial","101","1137693","0.0-37.0","battery-v0.2","","""event"",""trial"",""time""
""fullscreenenter"",""1"",""2958""
","
","
","""event"",""trial"",""time""
""fullscreenenter"",""1"",""2958""
","
","","","-1","","","10","1237","1022","a","elianto","#f73b6a7A","-1","-1","1","0","[]","0","2","","","1237","33","2","4","lose","no-go","0","0"
"pit-trial","102","1142561","0.0-38.0","battery-v0.2","","""event"",""trial"",""time""
""fullscreenenter"",""1"",""2958""
","
","
","""event"",""trial"",""time""
""fullscreenenter"",""1"",""2958""
","
","","","-1","","","10","1237","1022","l","elianto","#f73b6a7A"," ","-1","0","-10","[]","0","2","","","1237","34","1","3","lose","go","0","0"
"pit-trial","103","1146384","0.0-39.0","battery-v0.2","","""event"",""trial"",""time""
""fullscreenenter"",""1"",""2958""
","
","
","""event"",""trial"",""time""
""fullscreenenter"",""1"",""2958""
","
","","","962.3999996185303","","","10","1237","1022","g","elianto","#3366ff99"," "," ","1","+10","[1814.8000001907349]","1","2","","","1237","35","3","1","win","go","0","0"
"pit-trial","104","1150181","0.0-40.0","battery-v0.2","","""event"",""trial"",""time""
""fullscreenenter"",""1"",""2958""
","
","
","""event"",""trial"",""time""
""fullscreenenter"",""1"",""2958""
","
","","","936.0999994277954","","","10","1237","1022","u","elianto","#3366ff99","-1"," ","0","0","[1786.4000005722046]","1","2","","","1237","36","0","2","win","no-go","0","0"
"pit-trial","105","1154368","0.0-41.0","battery-v0.2","","""event"",""trial"",""time""
""fullscreenenter"",""1"",""2958""
","
","
","""event"",""trial"",""time""
""fullscreenenter"",""1"",""2958""
","
","","","1310.5","","","10","1237","1022","a","elianto","#f73b6a7A","-1"," ","0","-10","[2168.8999996185303]","1","2","","","1237","37","2","4","lose","no-go","0","0"
"pit-trial","106","1158274","0.0-42.0","battery-v0.2","","""event"",""trial"",""time""
""fullscreenenter"",""1"",""2958""
","
","
","""event"",""trial"",""time""
""fullscreenenter"",""1"",""2958""
","
","","","1044.3000001907349","","","10","1237","1022","l","elianto","#f73b6a7A"," "," ","1","0","[1894.3999996185303]","1","2","","","1237","38","1","3","lose","go","0","0"
"pit-trial","107","1162062","0.0-43.0","battery-v0.2","","""event"",""trial"",""time""
""fullscreenenter"",""1"",""2958""
","
","
","""event"",""trial"",""time""
""fullscreenenter"",""1"",""2958""
","
","","","920.7000007629395","","","10","1237","1022","g","elianto","#3366ff99"," "," ","1","+10","[1777.2000007629395]","1","2","","","1237","39","3","1","win","go","0","0"
"pit-trial","108","1166929","0.0-44.0","battery-v0.2","","""event"",""trial"",""time""
""fullscreenenter"",""1"",""2958""
","
","
","""event"",""trial"",""time""
""fullscreenenter"",""1"",""2958""
","
","","","-1","","","10","1237","1022","u","elianto","#3366ff99","-1","-1","1","+10","[]","0","2","","","1237","40","0","2","win","no-go","0","0"
"pit-trial","109","1171790","0.0-45.0","battery-v0.2","","""event"",""trial"",""time""
""fullscreenenter"",""1"",""2958""
","
","
","""event"",""trial"",""time""
""fullscreenenter"",""1"",""2958""
","
","","","-1","","","10","1237","1022","u","elianto","#3366ff99","-1","-1","1","+10","[]","0","2","","","1237","41","0","2","win","no-go","0","0"
"pit-trial","110","1175667","0.0-46.0","battery-v0.2","","""event"",""trial"",""time""
""fullscreenenter"",""1"",""2958""
","
","
","""event"",""trial"",""time""
""fullscreenenter"",""1"",""2958""
","
","","","1017.0999994277954","","","10","1237","1022","a","elianto","#f73b6a7A","-1"," ","0","-10","[1872.1999998092651]","1","2","","","1237","42","2","4","lose","no-go","0","0"
"pit-trial","111","1179506","0.0-47.0","battery-v0.2","","""event"",""trial"",""time""
""fullscreenenter"",""1"",""2958""
","
","
","""event"",""trial"",""time""
""fullscreenenter"",""1"",""2958""
","
","","","979.8999996185303","","","10","1237","1022","l","elianto","#f73b6a7A"," "," ","1","-10","[1832.8000001907349]","1","2","","","1237","43","1","3","lose","go","1","0"
"pit-trial","112","1183220","0.0-48.0","battery-v0.2","","""event"",""trial"",""time""
""fullscreenenter"",""1"",""2958""
","
","
","""event"",""trial"",""time""
""fullscreenenter"",""1"",""2958""
","
","","","854.3999996185303","","","10","1237","1022","g","elianto","#3366ff99"," "," ","1","+10","[1705.6999998092651]","1","2","","","1237","44","3","1","win","go","0","0"
"pit-trial","113","1188097","0.0-49.0","battery-v0.2","","""event"",""trial"",""time""
""fullscreenenter"",""1"",""2958""
","
","
","""event"",""trial"",""time""
""fullscreenenter"",""1"",""2958""
","
","","","-1","","","10","1237","1022","u","elianto","#3366ff99","-1","-1","1","+10","[]","0","2","","","1237","45","0","2","win","no-go","0","0"
"pit-trial","114","1191869","0.0-50.0","battery-v0.2","","""event"",""trial"",""time""
""fullscreenenter"",""1"",""2958""
","
","
","""event"",""trial"",""time""
""fullscreenenter"",""1"",""2958""
","
","","","914.2999992370605","","","10","1237","1022","g","elianto","#3366ff99"," "," ","1","+10","[1766.9000005722046]","1","2","","","1237","46","3","1","win","go","0","0"
"pit-trial","115","1196728","0.0-51.0","battery-v0.2","","""event"",""trial"",""time""
""fullscreenenter"",""1"",""2958""
","
","
","""event"",""trial"",""time""
""fullscreenenter"",""1"",""2958""
","
","","","-1","","","10","1237","1022","l","elianto","#f73b6a7A"," ","-1","0","-10","[]","0","2","","","1237","47","1","3","lose","go","0","0"
"pit-trial","116","1201588","0.0-52.0","battery-v0.2","","""event"",""trial"",""time""
""fullscreenenter"",""1"",""2958""
","
","
","""event"",""trial"",""time""
""fullscreenenter"",""1"",""2958""
","
","","","-1","","","10","1237","1022","a","elianto","#f73b6a7A","-1","-1","1","0","[]","0","2","","","1237","48","2","4","lose","no-go","0","0"
"pit-trial","117","1206455","0.0-53.0","battery-v0.2","","""event"",""trial"",""time""
""fullscreenenter"",""1"",""2958""
","
","
","""event"",""trial"",""time""
""fullscreenenter"",""1"",""2958""
","
","","","-1","","","10","1237","1022","l","elianto","#f73b6a7A"," ","-1","0","-10","[]","0","2","","","1237","49","1","3","lose","go","0","0"
"pit-trial","118","1211315","0.0-54.0","battery-v0.2","","""event"",""trial"",""time""
""fullscreenenter"",""1"",""2958""
","
","
","""event"",""trial"",""time""
""fullscreenenter"",""1"",""2958""
","
","","","-1","","","10","1237","1022","a","elianto","#f73b6a7A","-1","-1","1","0","[]","0","2","","","1237","50","2","4","lose","no-go","0","0"
"pit-trial","119","1215022","0.0-55.0","battery-v0.2","","""event"",""trial"",""time""
""fullscreenenter"",""1"",""2958""
","
","
","""event"",""trial"",""time""
""fullscreenenter"",""1"",""2958""
","
","","","841.8999996185303","","","10","1237","1022","g","elianto","#3366ff99"," "," ","1","+10","[1697]","1","2","","","1237","51","3","1","win","go","0","0"
"pit-trial","120","1219888","0.0-56.0","battery-v0.2","","""event"",""trial"",""time""
""fullscreenenter"",""1"",""2958""
","
","
","""event"",""trial"",""time""
""fullscreenenter"",""1"",""2958""
","
","","","-1","","","10","1237","1022","u","elianto","#3366ff99","-1","-1","1","+10","[]","0","2","","","1237","52","0","2","win","no-go","0","0"
"pit-trial","121","1224431","0.0-57.0","battery-v0.2","","""event"",""trial"",""time""
""fullscreenenter"",""1"",""2958""
","
","
","""event"",""trial"",""time""
""fullscreenenter"",""1"",""2958""
","
","","","1667.6000003814697","","","10","1237","1022","s","elianto","#f73b6a7A","-1"," ","0","-10","[2526.7999992370605]","1","2","","","1237","53","5","4","lose","no-go","0","0"
"pit-trial","122","1229306","0.0-58.0","battery-v0.2","","""event"",""trial"",""time""
""fullscreenenter"",""1"",""2958""
","
","
","""event"",""trial"",""time""
""fullscreenenter"",""1"",""2958""
","
","","","-1","","","10","1237","1022","l","elianto","#f73b6a7A"," ","-1","0","-10","[2898.699999809265]","1","2","","","1237","54","1","3","lose","go","0","0"
"pit-trial","123","1233299","0.0-59.0","battery-v0.2","","""event"",""trial"",""time""
""fullscreenenter"",""1"",""2958""
","
","
","""event"",""trial"",""time""
""fullscreenenter"",""1"",""2958""
","
","","","1130.5","","","10","1237","1022","p","elianto","#f73b6a7A"," "," ","1","0","[1984.5999994277954]","1","2","","","1237","55","4","3","lose","go","0","0"
"pit-trial","124","1238159","0.0-60.0","battery-v0.2","","""event"",""trial"",""time""
""fullscreenenter"",""1"",""2958""
","
","
","""event"",""trial"",""time""
""fullscreenenter"",""1"",""2958""
","
","","","-1","","","10","1237","1022","a","elianto","#f73b6a7A","-1","-1","1","0","[]","0","2","","","1237","56","2","4","lose","no-go","0","0"
"pit-trial","125","1242321","0.0-61.0","battery-v0.2","","""event"",""trial"",""time""
""fullscreenenter"",""1"",""2958""
","
","
","""event"",""trial"",""time""
""fullscreenenter"",""1"",""2958""
","
","","","1300.8000001907349","","","10","1237","1022","s","elianto","#f73b6a7A","-1"," ","0","-10","[2154]","1","2","","","1237","57","5","4","lose","no-go","0","0"
"pit-trial","126","1247187","0.0-62.0","battery-v0.2","","""event"",""trial"",""time""
""fullscreenenter"",""1"",""2958""
","
","
","""event"",""trial"",""time""
""fullscreenenter"",""1"",""2958""
","
","","","-1","","","10","1237","1022","a","elianto","#f73b6a7A","-1","-1","1","0","[]","0","2","","","1237","58","2","4","lose","no-go","0","0"
"pit-trial","127","1250811","0.0-63.0","battery-v0.2","","""event"",""trial"",""time""
""fullscreenenter"",""1"",""2958""
","
","
","""event"",""trial"",""time""
""fullscreenenter"",""1"",""2958""
","
","","","759.1999998092651","","","10","1237","1022","p","elianto","#f73b6a7A"," "," ","1","0","[1612.8999996185303]","1","2","","","1237","59","4","3","lose","go","0","0"
"pit-trial","128","1254927","0.0-64.0","battery-v0.2","","""event"",""trial"",""time""
""fullscreenenter"",""1"",""2958""
","
","
","""event"",""trial"",""time""
""fullscreenenter"",""1"",""2958""
","
","","","1249.1000003814697","","","10","1237","1022","l","elianto","#f73b6a7A"," "," ","1","0","[2103.9000005722046]","1","2","","","1237","60","1","3","lose","go","0","0"
"pit-trial","129","1259806","0.0-65.0","battery-v0.2","","""event"",""trial"",""time""
""fullscreenenter"",""1"",""2958""
","
","
","""event"",""trial"",""time""
""fullscreenenter"",""1"",""2958""
","
","","","-1","","","10","1237","1022","s","elianto","#f73b6a7A","-1","-1","1","-10","[]","0","2","","","1237","61","5","4","lose","no-go","1","0"
"pit-trial","130","1264674","0.0-66.0","battery-v0.2","","""event"",""trial"",""time""
""fullscreenenter"",""1"",""2958""
","
","
","""event"",""trial"",""time""
""fullscreenenter"",""1"",""2958""
","
","","","-1","","","10","1237","1022","a","elianto","#f73b6a7A","-1","-1","1","0","[]","0","2","","","1237","62","2","4","lose","no-go","0","0"
"pit-trial","131","1269535","0.0-67.0","battery-v0.2","","""event"",""trial"",""time""
""fullscreenenter"",""1"",""2958""
","
","
","""event"",""trial"",""time""
""fullscreenenter"",""1"",""2958""
","
","","","-1","","","10","1237","1022","w","elianto","#3366ff99","-1","-1","1","+10","[2909.1000003814697]","1","2","","","1237","63","6","2","win","no-go","0","0"
"pit-trial","132","1273940","0.0-68.0","battery-v0.2","","""event"",""trial"",""time""
""fullscreenenter"",""1"",""2958""
","
","
","""event"",""trial"",""time""
""fullscreenenter"",""1"",""2958""
","
","","","1543.2999992370605","","","10","1237","1022","p","elianto","#f73b6a7A"," "," ","1","-10","[2393.5999994277954]","1","2","","","1237","64","4","3","lose","go","1","0"
"pit-trial","133","1278812","0.0-69.0","battery-v0.2","","""event"",""trial"",""time""
""fullscreenenter"",""1"",""2958""
","
","
","""event"",""trial"",""time""
""fullscreenenter"",""1"",""2958""
","
","","","-1","","","10","1237","1022","a","elianto","#f73b6a7A","-1","-1","1","0","[]","0","2","","","1237","65","2","4","lose","no-go","0","0"
"pit-trial","134","1282783","0.0-70.0","battery-v0.2","","""event"",""trial"",""time""
""fullscreenenter"",""1"",""2958""
","
","
","""event"",""trial"",""time""
""fullscreenenter"",""1"",""2958""
","
","","","1098.5","","","10","1237","1022","w","elianto","#3366ff99","-1"," ","0","0","[1954.0999994277954]","1","2","","","1237","66","6","2","win","no-go","0","0"
"pit-trial","135","1287213","0.0-71.0","battery-v0.2","","""event"",""trial"",""time""
""fullscreenenter"",""1"",""2958""
","
","
","""event"",""trial"",""time""
""fullscreenenter"",""1"",""2958""
","
","","","1564.6999998092651","","","10","1237","1022","p","elianto","#f73b6a7A"," "," ","1","0","[2418.1000003814697]","1","2","","","1237","67","4","3","lose","go","0","0"
"pit-trial","136","1292080","0.0-72.0","battery-v0.2","","""event"",""trial"",""time""
""fullscreenenter"",""1"",""2958""
","
","
","""event"",""trial"",""time""
""fullscreenenter"",""1"",""2958""
","
","","","-1","","","10","1237","1022","s","elianto","#f73b6a7A","-1","-1","1","0","[2913]","1","2","","","1237","68","5","4","lose","no-go","0","0"
"pit-trial","137","1296956","0.0-73.0","battery-v0.2","","""event"",""trial"",""time""
""fullscreenenter"",""1"",""2958""
","
","
","""event"",""trial"",""time""
""fullscreenenter"",""1"",""2958""
","
","","","-1","","","10","1237","1022","p","elianto","#f73b6a7A"," ","-1","0","0","[]","0","2","","","1237","69","4","3","lose","go","1","0"
"pit-trial","138","1300866","0.0-74.0","battery-v0.2","","""event"",""trial"",""time""
""fullscreenenter"",""1"",""2958""
","
","
","""event"",""trial"",""time""
""fullscreenenter"",""1"",""2958""
","
","","","1049.3000001907349","","","10","1237","1022","e","elianto","#3366ff99"," "," ","1","+10","[1904.1999998092651]","1","2","","","1237","70","7","1","win","go","0","0"
"pit-trial","139","1305725","0.0-75.0","battery-v0.2","","""event"",""trial"",""time""
""fullscreenenter"",""1"",""2958""
","
","
","""event"",""trial"",""time""
""fullscreenenter"",""1"",""2958""
","
","","","-1","","","10","1237","1022","s","elianto","#f73b6a7A","-1","-1","1","0","[]","0","2","","","1237","71","5","4","lose","no-go","0","0"
"pit-trial","140","1310442","0.0-76.0","battery-v0.2","","""event"",""trial"",""time""
""fullscreenenter"",""1"",""2958""
","
","
","""event"",""trial"",""time""
""fullscreenenter"",""1"",""2958""
","
","","","1851.3000001907349","","","10","1237","1022","w","elianto","#3366ff99","-1"," ","0","+10","[2704.199999809265]","1","2","","","1237","72","6","2","win","no-go","1","0"
"pit-trial","141","1315301","0.0-77.0","battery-v0.2","","""event"",""trial"",""time""
""fullscreenenter"",""1"",""2958""
","
","
","""event"",""trial"",""time""
""fullscreenenter"",""1"",""2958""
","
","","","-1","","","10","1237","1022","p","elianto","#f73b6a7A"," ","-1","0","-10","[]","0","2","","","1237","73","4","3","lose","go","0","0"
"pit-trial","142","1318982","0.0-78.0","battery-v0.2","","""event"",""trial"",""time""
""fullscreenenter"",""1"",""2958""
","
","
","""event"",""trial"",""time""
""fullscreenenter"",""1"",""2958""
","
","","","818.1999998092651","","","10","1237","1022","w","elianto","#3366ff99","-1"," ","0","0","[1668.9000005722046]","1","2","","","1237","74","6","2","win","no-go","0","0"
"pit-trial","143","1323090","0.0-79.0","battery-v0.2","","""event"",""trial"",""time""
""fullscreenenter"",""1"",""2958""
","
","
","""event"",""trial"",""time""
""fullscreenenter"",""1"",""2958""
","
","","","1249.1999998092651","","","10","1237","1022","s","elianto","#f73b6a7A","-1"," ","0","-10","[2099.3999996185303]","1","2","","","1237","75","5","4","lose","no-go","0","0"
"pit-trial","144","1327586","0.0-80.0","battery-v0.2","","""event"",""trial"",""time""
""fullscreenenter"",""1"",""2958""
","
","
","""event"",""trial"",""time""
""fullscreenenter"",""1"",""2958""
","
","","","1641.3000001907349","","","10","1237","1022","e","elianto","#3366ff99"," "," ","1","+10","[2491.5]","1","2","","","1237","76","7","1","win","go","0","0"
"pit-trial","145","1331231","0.0-81.0","battery-v0.2","","""event"",""trial"",""time""
""fullscreenenter"",""1"",""2958""
","
","
","""event"",""trial"",""time""
""fullscreenenter"",""1"",""2958""
","
","","","778.0999994277954","","","10","1237","1022","w","elianto","#3366ff99","-1"," ","0","0","[1628.2000007629395]","1","2","","","1237","77","6","2","win","no-go","0","0"
"pit-trial","146","1334968","0.0-82.0","battery-v0.2","","""event"",""trial"",""time""
""fullscreenenter"",""1"",""2958""
","
","
","""event"",""trial"",""time""
""fullscreenenter"",""1"",""2958""
","
","","","875.0999994277954","","","10","1237","1022","e","elianto","#3366ff99"," "," ","1","+10","[1725.5999994277954]","1","2","","","1237","78","7","1","win","go","0","0"
"pit-trial","147","1339835","0.0-83.0","battery-v0.2","","""event"",""trial"",""time""
""fullscreenenter"",""1"",""2958""
","
","
","""event"",""trial"",""time""
""fullscreenenter"",""1"",""2958""
","
","","","-1","","","10","1237","1022","p","elianto","#f73b6a7A"," ","-1","0","0","[]","0","2","","","1237","79","4","3","lose","go","1","0"
"pit-trial","148","1344695","0.0-84.0","battery-v0.2","","""event"",""trial"",""time""
""fullscreenenter"",""1"",""2958""
","
","
","""event"",""trial"",""time""
""fullscreenenter"",""1"",""2958""
","
","","","-1","","","10","1237","1022","s","elianto","#f73b6a7A","-1","-1","1","0","[]","0","2","","","1237","80","5","4","lose","no-go","0","0"
"pit-trial","149","1349571","0.0-85.0","battery-v0.2","","""event"",""trial"",""time""
""fullscreenenter"",""1"",""2958""
","
","
","""event"",""trial"",""time""
""fullscreenenter"",""1"",""2958""
","
","","","-1","","","10","1237","1022","w","elianto","#3366ff99","-1","-1","1","+10","[]","0","2","","","1237","81","6","2","win","no-go","0","0"
"pit-trial","150","1354431","0.0-86.0","battery-v0.2","","""event"",""trial"",""time""
""fullscreenenter"",""1"",""2958""
","
","
","""event"",""trial"",""time""
""fullscreenenter"",""1"",""2958""
","
","","","-1","","","10","1237","1022","s","elianto","#f73b6a7A","-1","-1","1","0","[]","0","2","","","1237","82","5","4","lose","no-go","0","0"
"pit-trial","151","1358240","0.0-87.0","battery-v0.2","","""event"",""trial"",""time""
""fullscreenenter"",""1"",""2958""
","
","
","""event"",""trial"",""time""
""fullscreenenter"",""1"",""2958""
","
","","","943.2000007629395","","","10","1237","1022","e","elianto","#3366ff99"," "," ","1","0","[1797.1999998092651]","1","2","","","1237","83","7","1","win","go","1","0"
"pit-trial","152","1362419","0.0-88.0","battery-v0.2","","""event"",""trial"",""time""
""fullscreenenter"",""1"",""2958""
","
","
","""event"",""trial"",""time""
""fullscreenenter"",""1"",""2958""
","
","","","1323.5","","","10","1237","1022","p","elianto","#f73b6a7A"," "," ","1","0","[2173.699999809265]","1","2","","","1237","84","4","3","lose","go","0","0"
"pit-trial","153","1366580","0.0-89.0","battery-v0.2","","""event"",""trial"",""time""
""fullscreenenter"",""1"",""2958""
","
","
","""event"",""trial"",""time""
""fullscreenenter"",""1"",""2958""
","
","","","1301.4000005722046","","","10","1237","1022","w","elianto","#3366ff99","-1"," ","0","+10","[2155.699999809265]","1","2","","","1237","85","6","2","win","no-go","1","0"
"pit-trial","154","1371444","0.0-90.0","battery-v0.2","","""event"",""trial"",""time""
""fullscreenenter"",""1"",""2958""
","
","
","""event"",""trial"",""time""
""fullscreenenter"",""1"",""2958""
","
","","","-1","","","10","1237","1022","p","elianto","#f73b6a7A"," ","-1","0","-10","[]","0","2","","","1237","86","4","3","lose","go","0","0"
"pit-trial","155","1375758","0.0-91.0","battery-v0.2","","""event"",""trial"",""time""
""fullscreenenter"",""1"",""2958""
","
","
","""event"",""trial"",""time""
""fullscreenenter"",""1"",""2958""
","
","","","1456.8000001907349","","","10","1237","1022","e","elianto","#3366ff99"," "," ","1","0","[2307.5999994277954]","1","2","","","1237","87","7","1","win","go","1","0"
"pit-trial","156","1380041","0.0-92.0","battery-v0.2","","""event"",""trial"",""time""
""fullscreenenter"",""1"",""2958""
","
","
","""event"",""trial"",""time""
""fullscreenenter"",""1"",""2958""
","
","","","1422.1000003814697","","","10","1237","1022","s","elianto","#f73b6a7A","-1"," ","0","-10","[2273.199999809265]","1","2","","","1237","88","5","4","lose","no-go","0","0"
"pit-trial","157","1383853","0.0-93.0","battery-v0.2","","""event"",""trial"",""time""
""fullscreenenter"",""1"",""2958""
","
","
","""event"",""trial"",""time""
""fullscreenenter"",""1"",""2958""
","
","","","955.3999996185303","","","10","1237","1022","w","elianto","#3366ff99","-1"," ","0","0","[1806]","1","2","","","1237","89","6","2","win","no-go","0","0"
"pit-trial","158","1387860","0.0-94.0","battery-v0.2","","""event"",""trial"",""time""
""fullscreenenter"",""1"",""2958""
","
","
","""event"",""trial"",""time""
""fullscreenenter"",""1"",""2958""
","
","","","1146.1000003814697","","","10","1237","1022","e","elianto","#3366ff99"," "," ","1","0","[30.100000381469727,2002]","2","2","","","1237","90","7","1","win","go","1","0"
"pit-trial","159","1392724","0.0-95.0","battery-v0.2","","""event"",""trial"",""time""
""fullscreenenter"",""1"",""2958""
","
","
","""event"",""trial"",""time""
""fullscreenenter"",""1"",""2958""
","
","","","-1","","","10","1237","1022","s","elianto","#f73b6a7A","-1","-1","1","0","[]","0","2","","","1237","91","5","4","lose","no-go","0","0"
"pit-trial","160","1397591","0.0-96.0","battery-v0.2","","""event"",""trial"",""time""
""fullscreenenter"",""1"",""2958""
","
","
","""event"",""trial"",""time""
""fullscreenenter"",""1"",""2958""
","
","","","-1","","","10","1237","1022","p","elianto","#f73b6a7A"," ","-1","0","-10","[]","0","2","","","1237","92","4","3","lose","go","0","0"
"pit-trial","161","1401303","0.0-97.0","battery-v0.2","","""event"",""trial"",""time""
""fullscreenenter"",""1"",""2958""
","
","
","""event"",""trial"",""time""
""fullscreenenter"",""1"",""2958""
","
","","","844.4000005722046","","","10","1237","1022","w","elianto","#3366ff99","-1"," ","0","0","[1697.4000005722046]","1","2","","","1237","93","6","2","win","no-go","0","0"
"pit-trial","162","1405307","0.0-98.0","battery-v0.2","","""event"",""trial"",""time""
""fullscreenenter"",""1"",""2958""
","
","
","""event"",""trial"",""time""
""fullscreenenter"",""1"",""2958""
","
","","","1140.1000003814697","","","10","1237","1022","e","elianto","#3366ff99"," "," ","1","+10","[1993.5999994277954,2232.800000190735]","2","2","","","1237","94","7","1","win","go","0","0"
"pit-trial","163","1410171","0.0-99.0","battery-v0.2","","""event"",""trial"",""time""
""fullscreenenter"",""1"",""2958""
","
","
","""event"",""trial"",""time""
""fullscreenenter"",""1"",""2958""
","
","","","-1","","","10","1237","1022","p","elianto","#f73b6a7A"," ","-1","0","-10","[]","0","2","","","1237","95","4","3","lose","go","0","0"
"pit-trial","164","1414096","0.0-100.0","battery-v0.2","","""event"",""trial"",""time""
""fullscreenenter"",""1"",""2958""
","
","
","""event"",""trial"",""time""
""fullscreenenter"",""1"",""2958""
","
","","","1064.3000001907349","","","10","1237","1022","k","elianto","#3366ff99"," "," ","1","+10","[1914.8999996185303]","1","2","","","1237","96","8","1","win","go","0","0"
"pit-trial","165","1417852","0.0-101.0","battery-v0.2","","""event"",""trial"",""time""
""fullscreenenter"",""1"",""2958""
","
","
","""event"",""trial"",""time""
""fullscreenenter"",""1"",""2958""
","
","","","895.1999998092651","","","10","1237","1022","k","elianto","#3366ff99"," "," ","1","0","[1747.1999998092651]","1","2","","","1237","97","8","1","win","go","1","0"
"pit-trial","166","1422722","0.0-102.0","battery-v0.2","","""event"",""trial"",""time""
""fullscreenenter"",""1"",""2958""
","
","
","""event"",""trial"",""time""
""fullscreenenter"",""1"",""2958""
","
","","","-1","","","10","1237","1022","w","elianto","#3366ff99","-1","-1","1","+10","[]","0","2","","","1237","98","6","2","win","no-go","0","0"
"pit-trial","167","1427331","0.0-103.0","battery-v0.2","","""event"",""trial"",""time""
""fullscreenenter"",""1"",""2958""
","
","
","""event"",""trial"",""time""
""fullscreenenter"",""1"",""2958""
","
","","","1750.1000003814697","","","10","1237","1022","e","elianto","#3366ff99"," "," ","1","0","[2600.800000190735]","1","2","","","1237","99","7","1","win","go","1","0"
"pit-trial","168","1431402","0.0-104.0","battery-v0.2","","""event"",""trial"",""time""
""fullscreenenter"",""1"",""2958""
","
","
","""event"",""trial"",""time""
""fullscreenenter"",""1"",""2958""
","
","","","1213.5","","","10","1237","1022","p","elianto","#f73b6a7A"," "," ","1","0","[2064.699999809265,2342.699999809265,2845.8999996185303]","3","2","","","1237","100","4","3","lose","go","0","0"
"pit-trial","169","1435104","0.0-105.0","battery-v0.2","","""event"",""trial"",""time""
""fullscreenenter"",""1"",""2958""
","
","
","""event"",""trial"",""time""
""fullscreenenter"",""1"",""2958""
","
","","","838.9000005722046","","","10","1237","1022","e","elianto","#3366ff99"," "," ","1","+10","[1695.4000005722046]","1","2","","","1237","101","7","1","win","go","0","0"
"pit-trial","170","1438778","0.0-106.0","battery-v0.2","","""event"",""trial"",""time""
""fullscreenenter"",""1"",""2958""
","
","
","""event"",""trial"",""time""
""fullscreenenter"",""1"",""2958""
","
","","","814","","","10","1237","1022","k","elianto","#3366ff99"," "," ","1","+10","[1665]","1","2","","","1237","102","8","1","win","go","0","0"
"pit-trial","171","1443644","0.0-107.0","battery-v0.2","","""event"",""trial"",""time""
""fullscreenenter"",""1"",""2958""
","
","
","""event"",""trial"",""time""
""fullscreenenter"",""1"",""2958""
","
","","","-1","","","10","1237","1022","w","elianto","#3366ff99","-1","-1","1","+10","[]","0","2","","","1237","103","6","2","win","no-go","0","0"
"pit-trial","172","1447383","0.0-108.0","battery-v0.2","","""event"",""trial"",""time""
""fullscreenenter"",""1"",""2958""
","
","
","""event"",""trial"",""time""
""fullscreenenter"",""1"",""2958""
","
","","","871.2000007629395","","","10","1237","1022","d","elianto","#3366ff99","-1"," ","0","0","[1723.3999996185303]","1","2","","","1237","104","9","2","win","no-go","0","0"
"pit-trial","173","1451353","0.0-109.0","battery-v0.2","","""event"",""trial"",""time""
""fullscreenenter"",""1"",""2958""
","
","
","""event"",""trial"",""time""
""fullscreenenter"",""1"",""2958""
","
","","","1108.1999998092651","","","10","1237","1022","d","elianto","#3366ff99","-1"," ","0","0","[1958.6000003814697]","1","2","","","1237","105","9","2","win","no-go","0","0"
"pit-trial","174","1455592","0.0-110.0","battery-v0.2","","""event"",""trial"",""time""
""fullscreenenter"",""1"",""2958""
","
","
","""event"",""trial"",""time""
""fullscreenenter"",""1"",""2958""
","
","","","1382","","","10","1237","1022","k","elianto","#3366ff99"," "," ","1","0","[2233.1000003814697]","1","2","","","1237","106","8","1","win","go","1","0"
"pit-trial","175","1459403","0.0-111.0","battery-v0.2","","""event"",""trial"",""time""
""fullscreenenter"",""1"",""2958""
","
","
","""event"",""trial"",""time""
""fullscreenenter"",""1"",""2958""
","
","","","946.3000001907349","","","10","1237","1022","e","elianto","#3366ff99"," "," ","1","+10","[1802.6999998092651]","1","2","","","1237","107","7","1","win","go","0","0"
"pit-trial","176","1464262","0.0-112.0","battery-v0.2","","""event"",""trial"",""time""
""fullscreenenter"",""1"",""2958""
","
","
","""event"",""trial"",""time""
""fullscreenenter"",""1"",""2958""
","
","","","-1","","","10","1237","1022","w","elianto","#3366ff99","-1","-1","1","+10","[]","0","2","","","1237","108","6","2","win","no-go","0","0"
"pit-trial","177","1468768","0.0-113.0","battery-v0.2","","""event"",""trial"",""time""
""fullscreenenter"",""1"",""2958""
","
","
","""event"",""trial"",""time""
""fullscreenenter"",""1"",""2958""
","
","","","1645.9000005722046","","","10","1237","1022","d","elianto","#3366ff99","-1"," ","0","0","[2496.8999996185303]","1","2","","","1237","109","9","2","win","no-go","0","0"
"pit-trial","178","1472732","0.0-114.0","battery-v0.2","","""event"",""trial"",""time""
""fullscreenenter"",""1"",""2958""
","
","
","""event"",""trial"",""time""
""fullscreenenter"",""1"",""2958""
","
","","","1102.2000007629395","","","10","1237","1022","k","elianto","#3366ff99"," "," ","1","+10","[1953.5999994277954]","1","2","","","1237","110","8","1","win","go","0","0"
"pit-trial","179","1476657","0.0-115.0","battery-v0.2","","""event"",""trial"",""time""
""fullscreenenter"",""1"",""2958""
","
","
","""event"",""trial"",""time""
""fullscreenenter"",""1"",""2958""
","
","","","1060.3000001907349","","","10","1237","1022","v","elianto","#f73b6a7A","-1"," ","0","-10","[1915.3000001907349]","1","2","","","1237","111","11","4","lose","no-go","0","0"
"pit-trial","180","1480454","0.0-116.0","battery-v0.2","","""event"",""trial"",""time""
""fullscreenenter"",""1"",""2958""
","
","
","""event"",""trial"",""time""
""fullscreenenter"",""1"",""2958""
","
","","","924.5","","","10","1237","1022","j","elianto","#f73b6a7A"," "," ","1","0","[1778.4000005722046]","1","2","","","1237","112","10","3","lose","go","0","0"
"pit-trial","181","1485323","0.0-117.0","battery-v0.2","","""event"",""trial"",""time""
""fullscreenenter"",""1"",""2958""
","
","
","""event"",""trial"",""time""
""fullscreenenter"",""1"",""2958""
","
","","","-1","","","10","1237","1022","v","elianto","#f73b6a7A","-1","-1","1","0","[]","0","2","","","1237","113","11","4","lose","no-go","0","0"
"pit-trial","182","1489275","0.0-118.0","battery-v0.2","","""event"",""trial"",""time""
""fullscreenenter"",""1"",""2958""
","
","
","""event"",""trial"",""time""
""fullscreenenter"",""1"",""2958""
","
","","","1089.5","","","10","1237","1022","k","elianto","#3366ff99"," "," ","1","+10","[1943.6000003814697]","1","2","","","1237","114","8","1","win","go","0","0"
"pit-trial","183","1494134","0.0-119.0","battery-v0.2","","""event"",""trial"",""time""
""fullscreenenter"",""1"",""2958""
","
","
","""event"",""trial"",""time""
""fullscreenenter"",""1"",""2958""
","
","","","-1","","","10","1237","1022","j","elianto","#f73b6a7A"," ","-1","0","-10","[2916.6000003814697]","1","2","","","1237","115","10","3","lose","go","0","0"
"pit-trial","184","1498687","0.0-120.0","battery-v0.2","","""event"",""trial"",""time""
""fullscreenenter"",""1"",""2958""
","
","
","""event"",""trial"",""time""
""fullscreenenter"",""1"",""2958""
","
","","","1674.9000005722046","","","10","1237","1022","d","elianto","#3366ff99","-1"," ","0","0","[2533.1000003814697]","1","2","","","1237","116","9","2","win","no-go","0","0"
"pit-trial","185","1503168","0.0-121.0","battery-v0.2","","""event"",""trial"",""time""
""fullscreenenter"",""1"",""2958""
","
","
","""event"",""trial"",""time""
""fullscreenenter"",""1"",""2958""
","
","","","1617.1000003814697","","","10","1237","1022","j","elianto","#f73b6a7A"," "," ","1","0","[2467.5]","1","2","","","1237","117","10","3","lose","go","0","0"
"pit-trial","186","1508032","0.0-122.0","battery-v0.2","","""event"",""trial"",""time""
""fullscreenenter"",""1"",""2958""
","
","
","""event"",""trial"",""time""
""fullscreenenter"",""1"",""2958""
","
","","","-1","","","10","1237","1022","v","elianto","#f73b6a7A","-1","-1","1","0","[]","0","2","","","1237","118","11","4","lose","no-go","0","0"
"pit-trial","187","1512489","0.0-123.0","battery-v0.2","","""event"",""trial"",""time""
""fullscreenenter"",""1"",""2958""
","
","
","""event"",""trial"",""time""
""fullscreenenter"",""1"",""2958""
","
","","","1597.5","","","10","1237","1022","k","elianto","#3366ff99"," "," ","1","+10","[2450.6000003814697]","1","2","","","1237","119","8","1","win","go","0","0"
"pit-trial","188","1517355","0.0-124.0","battery-v0.2","","""event"",""trial"",""time""
""fullscreenenter"",""1"",""2958""
","
","
","""event"",""trial"",""time""
""fullscreenenter"",""1"",""2958""
","
","","","-1","","","10","1237","1022","d","elianto","#3366ff99","-1","-1","1","+10","[]","0","2","","","1237","120","9","2","win","no-go","0","0"
"pit-trial","189","1522217","0.0-125.0","battery-v0.2","","""event"",""trial"",""time""
""fullscreenenter"",""1"",""2958""
","
","
","""event"",""trial"",""time""
""fullscreenenter"",""1"",""2958""
","
","","","-1","","","10","1237","1022","d","elianto","#3366ff99","-1","-1","1","+10","[]","0","2","","","1237","121","9","2","win","no-go","0","0"
"pit-trial","190","1527079","0.0-126.0","battery-v0.2","","""event"",""trial"",""time""
""fullscreenenter"",""1"",""2958""
","
","
","""event"",""trial"",""time""
""fullscreenenter"",""1"",""2958""
","
","","","-1","","","10","1237","1022","v","elianto","#f73b6a7A","-1","-1","1","0","[]","0","2","","","1237","122","11","4","lose","no-go","0","0"
"pit-trial","191","1530933","0.0-127.0","battery-v0.2","","""event"",""trial"",""time""
""fullscreenenter"",""1"",""2958""
","
","
","""event"",""trial"",""time""
""fullscreenenter"",""1"",""2958""
","
","","","987.5","","","10","1237","1022","k","elianto","#3366ff99"," "," ","1","0","[1845.1999998092651]","1","2","","","1237","123","8","1","win","go","1","0"
"pit-trial","192","1535343","0.0-128.0","battery-v0.2","","""event"",""trial"",""time""
""fullscreenenter"",""1"",""2958""
","
","
","""event"",""trial"",""time""
""fullscreenenter"",""1"",""2958""
","
","","","1548.8999996185303","","","10","1237","1022","j","elianto","#f73b6a7A"," "," ","1","-10","[2402.699999809265]","1","2","","","1237","124","10","3","lose","go","1","0"
"pit-trial","193","1539410","0.0-129.0","battery-v0.2","","""event"",""trial"",""time""
""fullscreenenter"",""1"",""2958""
","
","
","""event"",""trial"",""time""
""fullscreenenter"",""1"",""2958""
","
","","","1204.6999998092651","","","10","1237","1022","j","elianto","#f73b6a7A"," "," ","1","0","[2061.5]","1","2","","","1237","125","10","3","lose","go","0","0"
"pit-trial","194","1544274","0.0-130.0","battery-v0.2","","""event"",""trial"",""time""
""fullscreenenter"",""1"",""2958""
","
","
","""event"",""trial"",""time""
""fullscreenenter"",""1"",""2958""
","
","","","-1","","","10","1237","1022","d","elianto","#3366ff99","-1","-1","1","+10","[]","0","2","","","1237","126","9","2","win","no-go","0","0"
"pit-trial","195","1549140","0.0-131.0","battery-v0.2","","""event"",""trial"",""time""
""fullscreenenter"",""1"",""2958""
","
","
","""event"",""trial"",""time""
""fullscreenenter"",""1"",""2958""
","
","","","-1","","","10","1237","1022","v","elianto","#f73b6a7A","-1","-1","1","-10","[]","0","2","","","1237","127","11","4","lose","no-go","1","0"
"pit-trial","196","1552903","0.0-132.0","battery-v0.2","","""event"",""trial"",""time""
""fullscreenenter"",""1"",""2958""
","
","
","""event"",""trial"",""time""
""fullscreenenter"",""1"",""2958""
","
","","","900.7000007629395","","","10","1237","1022","k","elianto","#3366ff99"," "," ","1","+10","[1757.1000003814697]","1","2","","","1237","128","8","1","win","go","0","0"
"pit-trial","197","1556712","0.0-133.0","battery-v0.2","","""event"",""trial"",""time""
""fullscreenenter"",""1"",""2958""
","
","
","""event"",""trial"",""time""
""fullscreenenter"",""1"",""2958""
","
","","","949.3999996185303","","","10","1237","1022","k","elianto","#3366ff99"," "," ","1","+10","[1800.1000003814697]","1","2","","","1237","129","8","1","win","go","0","0"
"pit-trial","198","1561582","0.0-134.0","battery-v0.2","","""event"",""trial"",""time""
""fullscreenenter"",""1"",""2958""
","
","
","""event"",""trial"",""time""
""fullscreenenter"",""1"",""2958""
","
","","","-1","","","10","1237","1022","j","elianto","#f73b6a7A"," ","-1","0","-10","[]","0","2","","","1237","130","10","3","lose","go","0","0"
"pit-trial","199","1566449","0.0-135.0","battery-v0.2","","""event"",""trial"",""time""
""fullscreenenter"",""1"",""2958""
","
","
","""event"",""trial"",""time""
""fullscreenenter"",""1"",""2958""
","
","","","-1","","","10","1237","1022","v","elianto","#f73b6a7A","-1","-1","1","0","[]","0","2","","","1237","131","11","4","lose","no-go","0","0"
"pit-trial","200","1571312","0.0-136.0","battery-v0.2","","""event"",""trial"",""time""
""fullscreenenter"",""1"",""2958""
","
","
","""event"",""trial"",""time""
""fullscreenenter"",""1"",""2958""
","
","","","-1","","","10","1237","1022","d","elianto","#3366ff99","-1","-1","1","+10","[]","0","2","","","1237","132","9","2","win","no-go","0","0"
"pit-trial","201","1575323","0.0-137.0","battery-v0.2","","""event"",""trial"",""time""
""fullscreenenter"",""1"",""2958""
","
","
","""event"",""trial"",""time""
""fullscreenenter"",""1"",""2958""
","
","","","1145.6000003814697","","","10","1237","1022","d","elianto","#3366ff99","-1"," ","0","+10","[1999.4000005722046]","1","2","","","1237","133","9","2","win","no-go","1","0"
"pit-trial","202","1580191","0.0-138.0","battery-v0.2","","""event"",""trial"",""time""
""fullscreenenter"",""1"",""2958""
","
","
","""event"",""trial"",""time""
""fullscreenenter"",""1"",""2958""
","
","","","-1","","","10","1237","1022","v","elianto","#f73b6a7A","-1","-1","1","0","[]","0","2","","","1237","134","11","4","lose","no-go","0","0"
"pit-trial","203","1585055","0.0-139.0","battery-v0.2","","""event"",""trial"",""time""
""fullscreenenter"",""1"",""2958""
","
","
","""event"",""trial"",""time""
""fullscreenenter"",""1"",""2958""
","
","","","-1","","","10","1237","1022","j","elianto","#f73b6a7A"," ","-1","0","0","[]","0","2","","","1237","135","10","3","lose","go","1","0"
"pit-trial","204","1588796","0.0-140.0","battery-v0.2","","""event"",""trial"",""time""
""fullscreenenter"",""1"",""2958""
","
","
","""event"",""trial"",""time""
""fullscreenenter"",""1"",""2958""
","
","","","866.9000005722046","","","10","1237","1022","k","elianto","#3366ff99"," "," ","1","+10","[1722.5]","1","2","","","1237","136","8","1","win","go","0","0"
"pit-trial","205","1593655","0.0-141.0","battery-v0.2","","""event"",""trial"",""time""
""fullscreenenter"",""1"",""2958""
","
","
","""event"",""trial"",""time""
""fullscreenenter"",""1"",""2958""
","
","","","-1","","","10","1237","1022","d","elianto","#3366ff99","-1","-1","1","+10","[]","0","2","","","1237","137","9","2","win","no-go","0","0"
"pit-trial","206","1597749","0.0-142.0","battery-v0.2","","""event"",""trial"",""time""
""fullscreenenter"",""1"",""2958""
","
","
","""event"",""trial"",""time""
""fullscreenenter"",""1"",""2958""
","
","","","1233.8999996185303","","","10","1237","1022","j","elianto","#f73b6a7A"," "," ","1","-10","[2086.7999992370605]","1","2","","","1237","138","10","3","lose","go","1","0"
"pit-trial","207","1601457","0.0-143.0","battery-v0.2","","""event"",""trial"",""time""
""fullscreenenter"",""1"",""2958""
","
","
","""event"",""trial"",""time""
""fullscreenenter"",""1"",""2958""
","
","","","849.4000005722046","","","10","1237","1022","k","elianto","#3366ff99"," "," ","1","0","[1700.8000001907349]","1","2","","","1237","139","8","1","win","go","1","0"
"pit-trial","208","1604993","0.0-144.0","battery-v0.2","","""event"",""trial"",""time""
""fullscreenenter"",""1"",""2958""
","
","
","""event"",""trial"",""time""
""fullscreenenter"",""1"",""2958""
","
","","","671.3999996185303","","","10","1237","1022","v","elianto","#f73b6a7A","-1"," ","0","0","[1522]","1","2","","","1237","140","11","4","lose","no-go","1","0"
"pit-instructions","209","1699030","0.0-145.0","battery-v0.2","","""event"",""trial"",""time""
""fullscreenenter"",""1"",""2958""
","
","
","""event"",""trial"",""time""
""fullscreenenter"",""1"",""2958""
","
","","[{""page_index"":0,""viewing_time"":83714.89999961853},{""page_index"":1,""viewing_time"":10317}]","94032.89999961853","","","","","","","","","","","","","","","","","","","","","","","","",""
"pit-trial","210","1703396","0.0-146.0","battery-v0.2","","""event"",""trial"",""time""
""fullscreenenter"",""1"",""2958""
","
","
","""event"",""trial"",""time""
""fullscreenenter"",""1"",""2958""
","
","","","1489.0999994277954","","","10","1237","1022","h","elianto","#f73b6a7A"," "," ","1","-10","[2342.5]","1","3","","","1237","141","3","3","lose","go","1","0"
"pit-trial","211","1706971","0.0-147.0","battery-v0.2","","""event"",""trial"",""time""
""fullscreenenter"",""1"",""2958""
","
","
","""event"",""trial"",""time""
""fullscreenenter"",""1"",""2958""
","
","","","706.2000007629395","","","10","1237","1022","y","elianto","#3366ff99"," "," ","1","0","[1561.3000001907349,2046.1000003814697]","2","3","","","1237","142","2","1","win","go","1","0"
"pit-trial","212","1710692","0.0-148.0","battery-v0.2","","""event"",""trial"",""time""
""fullscreenenter"",""1"",""2958""
","
","
","""event"",""trial"",""time""
""fullscreenenter"",""1"",""2958""
","
","","","863","","","10","1237","1022","m","elianto","#3366ff99","-1"," ","0","+10","[147.80000019073486,1713.6999998092651]","2","3","","","1237","143","0","2","win","no-go","1","0"
"pit-trial","213","1715446","0.0-149.0","battery-v0.2","","""event"",""trial"",""time""
""fullscreenenter"",""1"",""2958""
","
","
","""event"",""trial"",""time""
""fullscreenenter"",""1"",""2958""
","
","","","1893.5","","","10","1237","1022","r","elianto","#3366ff99","-1"," ","0","0","[2748.0999994277954]","1","3","","","1237","144","1","2","win","no-go","0","0"
"pit-trial","214","1719176","0.0-150.0","battery-v0.2","","""event"",""trial"",""time""
""fullscreenenter"",""1"",""2958""
","
","
","""event"",""trial"",""time""
""fullscreenenter"",""1"",""2958""
","
","","","873.4000005722046","","","10","1237","1022","r","elianto","#3366ff99","-1"," ","0","+10","[1724.6000003814697]","1","3","","","1237","145","1","2","win","no-go","1","0"
"pit-trial","215","1722901","0.0-151.0","battery-v0.2","","""event"",""trial"",""time""
""fullscreenenter"",""1"",""2958""
","
","
","""event"",""trial"",""time""
""fullscreenenter"",""1"",""2958""
","
","","","865.1999998092651","","","10","1237","1022","y","elianto","#3366ff99"," "," ","1","0","[1716.1999998092651,2541.699999809265]","2","3","","","1237","146","2","1","win","go","1","0"
"pit-trial","216","1726426","0.0-152.0","battery-v0.2","","""event"",""trial"",""time""
""fullscreenenter"",""1"",""2958""
","
","
","""event"",""trial"",""time""
""fullscreenenter"",""1"",""2958""
","
","","","666.8000001907349","","","10","1237","1022","m","elianto","#3366ff99","-1"," ","0","0","[1518.0999994277954]","1","3","","","1237","147","0","2","win","no-go","0","0"
"pit-trial","217","1730111","0.0-153.0","battery-v0.2","","""event"",""trial"",""time""
""fullscreenenter"",""1"",""2958""
","
","
","""event"",""trial"",""time""
""fullscreenenter"",""1"",""2958""
","
","","","819.6999998092651","","","10","1237","1022","h","elianto","#f73b6a7A"," "," ","1","0","[1674.3000001907349]","1","3","","","1237","148","3","3","lose","go","0","0"
"pit-trial","218","1734015","0.0-154.0","battery-v0.2","","""event"",""trial"",""time""
""fullscreenenter"",""1"",""2958""
","
","
","""event"",""trial"",""time""
""fullscreenenter"",""1"",""2958""
","
","","","1043.2999992370605","","","10","1237","1022","h","elianto","#f73b6a7A"," "," ","1","0","[771.1000003814697,1895.6999998092651]","2","3","","","1237","149","3","3","lose","go","0","0"
"pit-trial","219","1738881","0.0-155.0","battery-v0.2","","""event"",""trial"",""time""
""fullscreenenter"",""1"",""2958""
","
","
","""event"",""trial"",""time""
""fullscreenenter"",""1"",""2958""
","
","","","-1","","","10","1237","1022","y","elianto","#3366ff99"," ","-1","0","0","[]","0","3","","","1237","150","2","1","win","go","0","0"
"pit-trial","220","1742547","0.0-156.0","battery-v0.2","","""event"",""trial"",""time""
""fullscreenenter"",""1"",""2958""
","
","
","""event"",""trial"",""time""
""fullscreenenter"",""1"",""2958""
","
","","","798.5","","","10","1237","1022","r","elianto","#3366ff99","-1"," ","0","0","[1651.8000001907349]","1","3","","","1237","151","1","2","win","no-go","0","0"
"pit-trial","221","1746203","0.0-157.0","battery-v0.2","","""event"",""trial"",""time""
""fullscreenenter"",""1"",""2958""
","
","
","""event"",""trial"",""time""
""fullscreenenter"",""1"",""2958""
","
","","","794.4000005722046","","","10","1237","1022","m","elianto","#3366ff99","-1"," ","0","0","[1644.5]","1","3","","","1237","152","0","2","win","no-go","0","0"
"pit-trial","222","1751067","0.0-158.0","battery-v0.2","","""event"",""trial"",""time""
""fullscreenenter"",""1"",""2958""
","
","
","""event"",""trial"",""time""
""fullscreenenter"",""1"",""2958""
","
","","","-1","","","10","1237","1022","y","elianto","#3366ff99"," ","-1","0","0","[4042.699999809265]","1","3","","","1237","153","2","1","win","go","0","0"
"pit-trial","223","1754481","0.0-159.0","battery-v0.2","","""event"",""trial"",""time""
""fullscreenenter"",""1"",""2958""
","
","
","""event"",""trial"",""time""
""fullscreenenter"",""1"",""2958""
","
","","","554","","","10","1237","1022","h","elianto","#f73b6a7A"," "," ","1","0","[1406]","1","3","","","1237","154","3","3","lose","go","0","0"
"pit-trial","224","1758155","0.0-160.0","battery-v0.2","","""event"",""trial"",""time""
""fullscreenenter"",""1"",""2958""
","
","
","""event"",""trial"",""time""
""fullscreenenter"",""1"",""2958""
","
","","","815.0999994277954","","","10","1237","1022","m","elianto","#3366ff99","-1"," ","0","0","[1666.4000005722046]","1","3","","","1237","155","0","2","win","no-go","0","0"
"pit-trial","225","1761668","0.0-161.0","battery-v0.2","","""event"",""trial"",""time""
""fullscreenenter"",""1"",""2958""
","
","
","""event"",""trial"",""time""
""fullscreenenter"",""1"",""2958""
","
","","","643.5","","","10","1237","1022","r","elianto","#3366ff99","-1"," ","0","0","[1500.3000001907349]","1","3","","","1237","156","1","2","win","no-go","0","0"
"pit-trial","226","1765739","0.0-162.0","battery-v0.2","","""event"",""trial"",""time""
""fullscreenenter"",""1"",""2958""
","
","
","""event"",""trial"",""time""
""fullscreenenter"",""1"",""2958""
","
","","","1203.6999998092651","","","10","1237","1022","r","elianto","#3366ff99","-1"," ","0","+10","[2059.800000190735]","1","3","","","1237","157","1","2","win","no-go","1","0"
"pit-trial","227","1769552","0.0-163.0","battery-v0.2","","""event"",""trial"",""time""
""fullscreenenter"",""1"",""2958""
","
","
","""event"",""trial"",""time""
""fullscreenenter"",""1"",""2958""
","
","","","952","","","10","1237","1022","h","elianto","#f73b6a7A"," "," ","1","0","[1804.6000003814697]","1","3","","","1237","158","3","3","lose","go","0","0"
"pit-trial","228","1773308","0.0-164.0","battery-v0.2","","""event"",""trial"",""time""
""fullscreenenter"",""1"",""2958""
","
","
","""event"",""trial"",""time""
""fullscreenenter"",""1"",""2958""
","
","","","888.6000003814697","","","10","1237","1022","m","elianto","#3366ff99","-1"," ","0","0","[1740.8000001907349]","1","3","","","1237","159","0","2","win","no-go","0","0"
"pit-trial","229","1777506","0.0-165.0","battery-v0.2","","""event"",""trial"",""time""
""fullscreenenter"",""1"",""2958""
","
","
","""event"",""trial"",""time""
""fullscreenenter"",""1"",""2958""
","
","","","1337.6999998092651","","","10","1237","1022","y","elianto","#3366ff99"," "," ","1","0","[2191.800000190735,3779.6000003814697]","2","3","","","1237","160","2","1","win","go","1","0"
"pit-trial","230","1782379","0.0-166.0","battery-v0.2","","""event"",""trial"",""time""
""fullscreenenter"",""1"",""2958""
","
","
","""event"",""trial"",""time""
""fullscreenenter"",""1"",""2958""
","
","","","-1","","","10","1237","1022","y","elianto","#3366ff99"," ","-1","0","0","[2869.2999992370605]","1","3","","","1237","161","2","1","win","go","0","0"
"pit-trial","231","1786241","0.0-167.0","battery-v0.2","","""event"",""trial"",""time""
""fullscreenenter"",""1"",""2958""
","
","
","""event"",""trial"",""time""
""fullscreenenter"",""1"",""2958""
","
","","","994.5","","","10","1237","1022","r","elianto","#3366ff99","-1"," ","0","+10","[384.20000076293945,1851.8000001907349]","2","3","","","1237","162","1","2","win","no-go","1","0"
"pit-trial","232","1790092","0.0-168.0","battery-v0.2","","""event"",""trial"",""time""
""fullscreenenter"",""1"",""2958""
","
","
","""event"",""trial"",""time""
""fullscreenenter"",""1"",""2958""
","
","","","989.8999996185303","","","10","1237","1022","h","elianto","#f73b6a7A"," "," ","1","0","[1846]","1","3","","","1237","163","3","3","lose","go","0","0"
"pit-trial","233","1794957","0.0-169.0","battery-v0.2","","""event"",""trial"",""time""
""fullscreenenter"",""1"",""2958""
","
","
","""event"",""trial"",""time""
""fullscreenenter"",""1"",""2958""
","
","","","-1","","","10","1237","1022","m","elianto","#3366ff99","-1","-1","1","+10","[]","0","3","","","1237","164","0","2","win","no-go","0","0"
"pit-trial","234","1799819","0.0-170.0","battery-v0.2","","""event"",""trial"",""time""
""fullscreenenter"",""1"",""2958""
","
","
","""event"",""trial"",""time""
""fullscreenenter"",""1"",""2958""
","
","","","-1","","","10","1237","1022","y","elianto","#3366ff99"," ","-1","0","+10","[]","0","3","","","1237","165","2","1","win","go","1","0"
"pit-trial","235","1803512","0.0-171.0","battery-v0.2","","""event"",""trial"",""time""
""fullscreenenter"",""1"",""2958""
","
","
","""event"",""trial"",""time""
""fullscreenenter"",""1"",""2958""
","
","","","829.8000001907349","","","10","1237","1022","r","elianto","#3366ff99","-1"," ","0","0","[1683.6000003814697]","1","3","","","1237","166","1","2","win","no-go","0","0"
"pit-trial","236","1807495","0.0-172.0","battery-v0.2","","""event"",""trial"",""time""
""fullscreenenter"",""1"",""2958""
","
","
","""event"",""trial"",""time""
""fullscreenenter"",""1"",""2958""
","
","","","1121.1999998092651","","","10","1237","1022","h","elianto","#f73b6a7A"," "," ","1","0","[1972.1000003814697]","1","3","","","1237","167","3","3","lose","go","0","0"
"pit-trial","237","1812361","0.0-173.0","battery-v0.2","","""event"",""trial"",""time""
""fullscreenenter"",""1"",""2958""
","
","
","""event"",""trial"",""time""
""fullscreenenter"",""1"",""2958""
","
","","","-1","","","10","1237","1022","m","elianto","#3366ff99","-1","-1","1","+10","[]","0","3","","","1237","168","0","2","win","no-go","0","0"
"pit-trial","238","1816046","0.0-174.0","battery-v0.2","","""event"",""trial"",""time""
""fullscreenenter"",""1"",""2958""
","
","
","""event"",""trial"",""time""
""fullscreenenter"",""1"",""2958""
","
","","","828.6999998092651","","","10","1237","1022","r","elianto","#3366ff99","-1"," ","0","0","[1679.5]","1","3","","","1237","169","1","2","win","no-go","0","0"
"pit-trial","239","1820105","0.0-175.0","battery-v0.2","","""event"",""trial"",""time""
""fullscreenenter"",""1"",""2958""
","
","
","""event"",""trial"",""time""
""fullscreenenter"",""1"",""2958""
","
","","","1202.4000005722046","","","10","1237","1022","y","elianto","#3366ff99"," "," ","1","0","[2054.300000190735]","1","3","","","1237","170","2","1","win","go","1","0"
"pit-trial","240","1823994","0.0-176.0","battery-v0.2","","""event"",""trial"",""time""
""fullscreenenter"",""1"",""2958""
","
","
","""event"",""trial"",""time""
""fullscreenenter"",""1"",""2958""
","
","","","1029.3999996185303","","","10","1237","1022","h","elianto","#f73b6a7A"," "," ","1","0","[1879.5]","1","3","","","1237","171","3","3","lose","go","0","0"
"pit-trial","241","1828862","0.0-177.0","battery-v0.2","","""event"",""trial"",""time""
""fullscreenenter"",""1"",""2958""
","
","
","""event"",""trial"",""time""
""fullscreenenter"",""1"",""2958""
","
","","","-1","","","10","1237","1022","m","elianto","#3366ff99","-1","-1","1","+10","[3146.8999996185303]","1","3","","","1237","172","0","2","win","no-go","0","0"
"pit-trial","242","1833086","0.0-178.0","battery-v0.2","","""event"",""trial"",""time""
""fullscreenenter"",""1"",""2958""
","
","
","""event"",""trial"",""time""
""fullscreenenter"",""1"",""2958""
","
","","","1363","","","10","1237","1022","z","elianto","#f73b6a7A","-1"," ","0","-10","[2214.699999809265]","1","3","","","1237","173","4","4","lose","no-go","0","0"
"pit-trial","243","1837956","0.0-179.0","battery-v0.2","","""event"",""trial"",""time""
""fullscreenenter"",""1"",""2958""
","
","
","""event"",""trial"",""time""
""fullscreenenter"",""1"",""2958""
","
","","","-1","","","10","1237","1022","m","elianto","#3366ff99","-1","-1","1","+10","[4036.0999994277954]","1","3","","","1237","174","0","2","win","no-go","0","0"
"pit-trial","244","1841804","0.0-180.0","battery-v0.2","","""event"",""trial"",""time""
""fullscreenenter"",""1"",""2958""
","
","
","""event"",""trial"",""time""
""fullscreenenter"",""1"",""2958""
","
","","","982.6999998092651","","","10","1237","1022","c","elianto","#f73b6a7A"," "," ","1","0","[1836.6999998092651]","1","3","","","1237","175","5","3","lose","go","0","0"
"pit-trial","245","1846665","0.0-181.0","battery-v0.2","","""event"",""trial"",""time""
""fullscreenenter"",""1"",""2958""
","
","
","""event"",""trial"",""time""
""fullscreenenter"",""1"",""2958""
","
","","","-1","","","10","1237","1022","y","elianto","#3366ff99"," ","-1","0","0","[]","0","3","","","1237","176","2","1","win","go","0","0"
"pit-trial","246","1851530","0.0-182.0","battery-v0.2","","""event"",""trial"",""time""
""fullscreenenter"",""1"",""2958""
","
","
","""event"",""trial"",""time""
""fullscreenenter"",""1"",""2958""
","
","","","-1","","","10","1237","1022","y","elianto","#3366ff99"," ","-1","0","0","[]","0","3","","","1237","177","2","1","win","go","0","0"
"pit-trial","247","1855529","0.0-183.0","battery-v0.2","","""event"",""trial"",""time""
""fullscreenenter"",""1"",""2958""
","
","
","""event"",""trial"",""time""
""fullscreenenter"",""1"",""2958""
","
","","","1139.9000005722046","","","10","1237","1022","c","elianto","#f73b6a7A"," "," ","1","0","[1993.1999998092651]","1","3","","","1237","178","5","3","lose","go","0","0"
"pit-trial","248","1859625","0.0-184.0","battery-v0.2","","""event"",""trial"",""time""
""fullscreenenter"",""1"",""2958""
","
","
","""event"",""trial"",""time""
""fullscreenenter"",""1"",""2958""
","
","","","1238.2000007629395","","","10","1237","1022","z","elianto","#f73b6a7A","-1"," ","0","-10","[2088.6000003814697]","1","3","","","1237","179","4","4","lose","no-go","0","0"
"pit-trial","249","1863454","0.0-185.0","battery-v0.2","","""event"",""trial"",""time""
""fullscreenenter"",""1"",""2958""
","
","
","""event"",""trial"",""time""
""fullscreenenter"",""1"",""2958""
","
","","","966.5","","","10","1237","1022","m","elianto","#3366ff99","-1"," ","0","0","[1821.1999998092651]","1","3","","","1237","180","0","2","win","no-go","0","0"
"pit-trial","250","1867301","0.0-186.0","battery-v0.2","","""event"",""trial"",""time""
""fullscreenenter"",""1"",""2958""
","
","
","""event"",""trial"",""time""
""fullscreenenter"",""1"",""2958""
","
","","","988.8000001907349","","","10","1237","1022","c","elianto","#f73b6a7A"," "," ","1","0","[1839.5]","1","3","","","1237","181","5","3","lose","go","0","0"
"pit-trial","251","1871163","0.0-187.0","battery-v0.2","","""event"",""trial"",""time""
""fullscreenenter"",""1"",""2958""
","
","
","""event"",""trial"",""time""
""fullscreenenter"",""1"",""2958""
","
","","","996.8999996185303","","","10","1237","1022","b","elianto","#3366ff99","-1"," ","0","0","[1851.6000003814697]","1","3","","","1237","182","6","2","win","no-go","0","0"
"pit-trial","252","1876033","0.0-188.0","battery-v0.2","","""event"",""trial"",""time""
""fullscreenenter"",""1"",""2958""
","
","
","""event"",""trial"",""time""
""fullscreenenter"",""1"",""2958""
","
","","","-1","","","10","1237","1022","z","elianto","#f73b6a7A","-1","-1","1","0","[]","0","3","","","1237","183","4","4","lose","no-go","0","0"
"pit-trial","253","1880903","0.0-189.0","battery-v0.2","","""event"",""trial"",""time""
""fullscreenenter"",""1"",""2958""
","
","
","""event"",""trial"",""time""
""fullscreenenter"",""1"",""2958""
","
","","","-1","","","10","1237","1022","y","elianto","#3366ff99"," ","-1","0","0","[]","0","3","","","1237","184","2","1","win","go","0","0"
"pit-trial","254","1884344","0.0-190.0","battery-v0.2","","""event"",""trial"",""time""
""fullscreenenter"",""1"",""2958""
","
","
","""event"",""trial"",""time""
""fullscreenenter"",""1"",""2958""
","
","","","580.6000003814697","","","10","1237","1022","b","elianto","#3366ff99","-1"," ","0","0","[1433.1999998092651]","1","3","","","1237","185","6","2","win","no-go","0","0"
"pit-trial","255","1889212","0.0-191.0","battery-v0.2","","""event"",""trial"",""time""
""fullscreenenter"",""1"",""2958""
","
","
","""event"",""trial"",""time""
""fullscreenenter"",""1"",""2958""
","
","","","-1","","","10","1237","1022","z","elianto","#f73b6a7A","-1","-1","1","0","[]","0","3","","","1237","186","4","4","lose","no-go","0","0"
"pit-trial","256","1893312","0.0-192.0","battery-v0.2","","""event"",""trial"",""time""
""fullscreenenter"",""1"",""2958""
","
","
","""event"",""trial"",""time""
""fullscreenenter"",""1"",""2958""
","
","","","1236.6999998092651","","","10","1237","1022","c","elianto","#f73b6a7A"," "," ","1","0","[2090.4000005722046]","1","3","","","1237","187","5","3","lose","go","0","0"
"pit-trial","257","1896948","0.0-193.0","battery-v0.2","","""event"",""trial"",""time""
""fullscreenenter"",""1"",""2958""
","
","
","""event"",""trial"",""time""
""fullscreenenter"",""1"",""2958""
","
","","","763.1000003814697","","","10","1237","1022","y","elianto","#3366ff99"," "," ","1","+10","[1621]","1","3","","","1237","188","2","1","win","go","0","0"
"pit-trial","258","1900997","0.0-194.0","battery-v0.2","","""event"",""trial"",""time""
""fullscreenenter"",""1"",""2958""
","
","
","""event"",""trial"",""time""
""fullscreenenter"",""1"",""2958""
","
","","","1184","","","10","1237","1022","t","elianto","#f73b6a7A","-1"," ","0","-10","[2035.8000001907349]","1","3","","","1237","189","7","4","lose","no-go","0","0"
"pit-trial","259","1904971","0.0-195.0","battery-v0.2","","""event"",""trial"",""time""
""fullscreenenter"",""1"",""2958""
","
","
","""event"",""trial"",""time""
""fullscreenenter"",""1"",""2958""
","
","","","1118.5999994277954","","","10","1237","1022","b","elianto","#3366ff99","-1"," ","0","0","[1969]","1","3","","","1237","190","6","2","win","no-go","0","0"
"pit-trial","260","1908888","0.0-196.0","battery-v0.2","","""event"",""trial"",""time""
""fullscreenenter"",""1"",""2958""
","
","
","""event"",""trial"",""time""
""fullscreenenter"",""1"",""2958""
","
","","","1057.8999996185303","","","10","1237","1022","c","elianto","#f73b6a7A"," "," ","1","0","[1911.1000003814697]","1","3","","","1237","191","5","3","lose","go","0","0"
"pit-trial","261","1913750","0.0-197.0","battery-v0.2","","""event"",""trial"",""time""
""fullscreenenter"",""1"",""2958""
","
","
","""event"",""trial"",""time""
""fullscreenenter"",""1"",""2958""
","
","","","-1","","","10","1237","1022","z","elianto","#f73b6a7A","-1","-1","1","0","[]","0","3","","","1237","192","4","4","lose","no-go","0","0"
"pit-trial","262","1918617","0.0-198.0","battery-v0.2","","""event"",""trial"",""time""
""fullscreenenter"",""1"",""2958""
","
","
