"trial_type","trial_index","time_elapsed","internal_node_id","task_version","responses","num_errors","rt","view_history","rune","rune_set","hex","correct","choice","accuracy","outcome","keys","total_keys","sub","block","trial","stimulus","robot","valence","action","sham"
"pavlovia","0","4","0.0-0.0","battery-v0.2","","","","","","","","","","","","","","","","","","","","",""
"pit-comprehension","1","13175","0.0-1.0-0.0","battery-v0.2","Press SPACE,+10,-10,True,False, somtimes you will not get all the points even if you took the right action,True","2","13169.5","","","","","","","","","","","","","","","","","",""
"pit-instructions","2","16145","0.0-2.0","battery-v0.2","","","2967.2999999998137","[{""page_index"":0,""viewing_time"":1287.8999999994412},{""page_index"":1,""viewing_time"":553.1000000005588},{""page_index"":2,""viewing_time"":1125.8999999994412}]","","","","","","","","","","","","","","","","",""
"pit-trial","3","21650","0.0-3.0","battery-v0.2","","","-1","","&#9728;","elianto","#f73b6a7A","-1","-1","1","-10","","0","test","1","1","0","4","lose","no-go","1"
"pit-trial","4","27153","0.0-4.0","battery-v0.2","","","-1","","&#9733;","elianto","#3366ff99","-1","-1","1","0","","0","test","1","2","2","2","win","no-go","1"
"pit-trial","5","31112","0.0-5.0","battery-v0.2","","","456.6000000005588","","&#9730;","elianto","#3366ff99","32","32","1","0","1956.5999999996275","1","test","1","3","1","1","win","go","1"
"pit-trial","6","36615","0.0-6.0","battery-v0.2","","","-1","","&#9752;","elianto","#f73b6a7A","32","-1","0","-10","","0","test","1","4","3","3","lose","go","0"
"pit-trial","7","42117","0.0-7.0","battery-v0.2","","","-1","","&#9730;","elianto","#3366ff99","32","-1","0","+10","","0","test","1","5","1","1","win","go","1"
"pit-trial","8","47619","0.0-8.0","battery-v0.2","","","-1","","&#9752;","elianto","#f73b6a7A","32","-1","0","-10","","0","test","1","6","3","3","lose","go","0"
"pit-trial","9","53121","0.0-9.0","battery-v0.2","","","-1","","&#9728;","elianto","#f73b6a7A","-1","-1","1","0","","0","test","1","7","0","4","lose","no-go","0"
"pit-trial","10","58623","0.0-10.0","battery-v0.2","","","-1","","&#9733;","elianto","#3366ff99","-1","-1","1","+10","","0","test","1","8","2","2","win","no-go","0"
"pit-trial","11","64126","0.0-11.0","battery-v0.2","","","-1","","&#9730;","elianto","#3366ff99","32","-1","0","0","","0","test","1","9","1","1","win","go","0"
"pit-trial","12","69628","0.0-12.0","battery-v0.2","","","-1","","&#9733;","elianto","#3366ff99","-1","-1","1","0","","0","test","1","10","2","2","win","no-go","1"
"pit-trial","13","75129","0.0-13.0","battery-v0.2","","","-1","","&#9752;","elianto","#f73b6a7A","32","-1","0","-10","","0","test","1","11","3","3","lose","go","0"
"pit-trial","14","80632","0.0-14.0","battery-v0.2","","","-1","","&#9728;","elianto","#f73b6a7A","-1","-1","1","0","","0","test","1","12","0","4","lose","no-go","0"
"pit-trial","15","86133","0.0-15.0","battery-v0.2","","","-1","","&#9733;","elianto","#3366ff99","-1","-1","1","+10","","0","test","1","13","2","2","win","no-go","0"
"pit-trial","16","91635","0.0-16.0","battery-v0.2","","","-1","","&#9728;","elianto","#f73b6a7A","-1","-1","1","-10","","0","test","1","14","0","4","lose","no-go","1"
"pit-trial","17","97137","0.0-17.0","battery-v0.2","","","-1","","&#9730;","elianto","#3366ff99","32","-1","0","0","","0","test","1","15","1","1","win","go","0"
"pit-trial","18","102640","0.0-18.0","battery-v0.2","","","-1","","&#9752;","elianto","#f73b6a7A","32","-1","0","-10","","0","test","1","16","3","3","lose","go","0"
"pit-trial","19","108141","0.0-19.0","battery-v0.2","","","-1","","&#9752;","elianto","#f73b6a7A","32","-1","0","-10","","0","test","1","17","3","3","lose","go","0"
"pit-trial","20","113644","0.0-20.0","battery-v0.2","","","-1","","&#9728;","elianto","#f73b6a7A","-1","-1","1","-10","","0","test","1","18","0","4","lose","no-go","1"
"pit-trial","21","119147","0.0-21.0","battery-v0.2","","","-1","","&#9733;","elianto","#3366ff99","-1","-1","1","+10","","0","test","1","19","2","2","win","no-go","0"
"pit-trial","22","124649","0.0-22.0","battery-v0.2","","","-1","","&#9730;","elianto","#3366ff99","32","-1","0","0","","0","test","1","20","1","1","win","go","0"
"pit-instructions","23","258472","0.0-23.0","battery-v0.2","","","133821.5","[{""page_index"":0,""viewing_time"":132100.89999999944},{""page_index"":1,""viewing_time"":1719.9000000003725}]","","","","","","","","","","","","","","","","",""
"pit-trial","24","263820","0.0-24.0","battery-v0.2","","","1844.1000000005588","","Q","elianto","#3366ff99","-1","32","0","0","3344.100000000559","1","test","2","21","0","2","win","no-go","0"
"pit-trial","25","269323","0.0-25.0","battery-v0.2","","","-1","","N","elianto","#3366ff99","-1","-1","1","0","","0","test","2","22","1","2","win","no-go","1"
"pit-trial","26","274825","0.0-26.0","battery-v0.2","","","-1","","X","elianto","#f73b6a7A","32","-1","0","-10","","0","test","2","23","3","3","lose","go","0"
"pit-trial","27","279108","0.0-27.0","battery-v0.2","","","780.0999999996275","","F","elianto","#3366ff99","32","32","1","+10","2280.100000000559","1","test","2","24","2","1","win","go","0"
"pit-trial","28","284611","0.0-28.0","battery-v0.2","","","-1","","X","elianto","#f73b6a7A","32","-1","0","-10","","0","test","2","25","3","3","lose","go","0"
"pit-trial","29","290112","0.0-29.0","battery-v0.2","","","-1","","Q","elianto","#3366ff99","-1","-1","1","+10","","0","test","2","26","0","2","win","no-go","0"
"pit-trial","30","295614","0.0-30.0","battery-v0.2","","","-1","","N","elianto","#3366ff99","-1","-1","1","+10","","0","test","2","27","1","2","win","no-go","0"
"pit-trial","31","301116","0.0-31.0","battery-v0.2","","","-1","","F","elianto","#3366ff99","32","-1","0","0","","0","test","2","28","2","1","win","go","0"
"pit-trial","32","306619","0.0-32.0","battery-v0.2","","","-1","","N","elianto","#3366ff99","-1","-1","1","0","","0","test","2","29","1","2","win","no-go","1"
"pit-trial","33","312121","0.0-33.0","battery-v0.2","","","-1","","Q","elianto","#3366ff99","-1","-1","1","+10","","0","test","2","30","0","2","win","no-go","0"
"pit-trial","34","317623","0.0-34.0","battery-v0.2","","","-1","","F","elianto","#3366ff99","32","-1","0","0","","0","test","2","31","2","1","win","go","0"
"pit-trial","35","323126","0.0-35.0","battery-v0.2","","","-1","","X","elianto","#f73b6a7A","32","-1","0","-10","","0","test","2","32","3","3","lose","go","0"
"pit-trial","36","328628","0.0-36.0","battery-v0.2","","","-1","","X","elianto","#f73b6a7A","32","-1","0","-10","","0","test","2","33","3","3","lose","go","0"
"pit-trial","37","334130","0.0-37.0","battery-v0.2","","","-1","","Q","elianto","#3366ff99","-1","-1","1","+10","","0","test","2","34","0","2","win","no-go","0"
"pit-trial","38","339631","0.0-38.0","battery-v0.2","","","-1","","N","elianto","#3366ff99","-1","-1","1","+10","","0","test","2","35","1","2","win","no-go","0"
"pit-trial","39","345133","0.0-39.0","battery-v0.2","","","-1","","F","elianto","#3366ff99","32","-1","0","+10","","0","test","2","36","2","1","win","go","1"
"pit-trial","40","350637","0.0-40.0","battery-v0.2","","","-1","","N","elianto","#3366ff99","-1","-1","1","+10","","0","test","2","37","1","2","win","no-go","0"
"pit-trial","41","356139","0.0-41.0","battery-v0.2","","","-1","","Q","elianto","#3366ff99","-1","-1","1","+10","","0","test","2","38","0","2","win","no-go","0"
"pit-trial","42","361642","0.0-42.0","battery-v0.2","","","-1","","F","elianto","#3366ff99","32","-1","0","0","","0","test","2","39","2","1","win","go","0"
"pit-trial","43","367144","0.0-43.0","battery-v0.2","","","-1","","X","elianto","#f73b6a7A","32","-1","0","-10","","0","test","2","40","3","3","lose","go","0"
"pit-trial","44","372647","0.0-44.0","battery-v0.2","","","-1","","X","elianto","#f73b6a7A","32","-1","0","-10","","0","test","2","41","3","3","lose","go","0"
"pit-trial","45","378150","0.0-45.0","battery-v0.2","","","-1","","N","elianto","#3366ff99","-1","-1","1","0","","0","test","2","42","1","2","win","no-go","1"
"pit-trial","46","383652","0.0-46.0","battery-v0.2","","","-1","","F","elianto","#3366ff99","32","-1","0","0","","0","test","2","43","2","1","win","go","0"
"pit-trial","47","389154","0.0-47.0","battery-v0.2","","","-1","","Q","elianto","#3366ff99","-1","-1","1","+10","","0","test","2","44","0","2","win","no-go","0"
"pit-trial","48","394656","0.0-48.0","battery-v0.2","","","-1","","F","elianto","#3366ff99","32","-1","0","0","","0","test","2","45","2","1","win","go","0"
"pit-trial","49","400159","0.0-49.0","battery-v0.2","","","-1","","X","elianto","#f73b6a7A","32","-1","0","-10","","0","test","2","46","3","3","lose","go","0"
"pit-trial","50","405662","0.0-50.0","battery-v0.2","","","-1","","Q","elianto","#3366ff99","-1","-1","1","+10","","0","test","2","47","0","2","win","no-go","0"
"pit-trial","51","411164","0.0-51.0","battery-v0.2","","","-1","","N","elianto","#3366ff99","-1","-1","1","+10","","0","test","2","48","1","2","win","no-go","0"
"pit-trial","52","416665","0.0-52.0","battery-v0.2","","","-1","","X","elianto","#f73b6a7A","32","-1","0","-10","","0","test","2","49","3","3","lose","go","0"
"pit-trial","53","422167","0.0-53.0","battery-v0.2","","","-1","","N","elianto","#3366ff99","-1","-1","1","+10","","0","test","2","50","1","2","win","no-go","0"
"pit-trial","54","427670","0.0-54.0","battery-v0.2","","","-1","","F","elianto","#3366ff99","32","-1","0","0","","0","test","2","51","2","1","win","go","0"
"pit-trial","55","433172","0.0-55.0","battery-v0.2","","","-1","","Q","elianto","#3366ff99","-1","-1","1","+10","","0","test","2","52","0","2","win","no-go","0"
"pit-trial","56","438675","0.0-56.0","battery-v0.2","","","-1","","B","elianto","#f73b6a7A","32","-1","0","-10","","0","test","2","53","5","3","lose","go","0"
"pit-trial","57","444178","0.0-57.0","battery-v0.2","","","-1","","T","elianto","#f73b6a7A","-1","-1","1","0","","0","test","2","54","4","4","lose","no-go","0"
"pit-trial","58","449680","0.0-58.0","battery-v0.2","","","-1","","Q","elianto","#3366ff99","-1","-1","1","+10","","0","test","2","55","0","2","win","no-go","0"
"pit-trial","59","455183","0.0-59.0","battery-v0.2","","","-1","","F","elianto","#3366ff99","32","-1","0","0","","0","test","2","56","2","1","win","go","0"
"pit-trial","60","460684","0.0-60.0","battery-v0.2","","","-1","","B","elianto","#f73b6a7A","32","-1","0","-10","","0","test","2","57","5","3","lose","go","0"
"pit-trial","61","466187","0.0-61.0","battery-v0.2","","","-1","","F","elianto","#3366ff99","32","-1","0","0","","0","test","2","58","2","1","win","go","0"
"pit-trial","62","471690","0.0-62.0","battery-v0.2","","","-1","","T","elianto","#f73b6a7A","-1","-1","1","0","","0","test","2","59","4","4","lose","no-go","0"
"pit-trial","63","477193","0.0-63.0","battery-v0.2","","","-1","","Q","elianto","#3366ff99","-1","-1","1","+10","","0","test","2","60","0","2","win","no-go","0"
"pit-trial","64","482696","0.0-64.0","battery-v0.2","","","-1","","C","elianto","#3366ff99","-1","-1","1","+10","","0","test","2","61","6","2","win","no-go","0"
"pit-trial","65","488199","0.0-65.0","battery-v0.2","","","-1","","T","elianto","#f73b6a7A","-1","-1","1","-10","","0","test","2","62","4","4","lose","no-go","1"
"pit-trial","66","493700","0.0-66.0","battery-v0.2","","","-1","","B","elianto","#f73b6a7A","32","-1","0","-10","","0","test","2","63","5","3","lose","go","0"
"pit-trial","67","499202","0.0-67.0","battery-v0.2","","","-1","","F","elianto","#3366ff99","32","-1","0","0","","0","test","2","64","2","1","win","go","0"
"pit-trial","68","504703","0.0-68.0","battery-v0.2","","","-1","","F","elianto","#3366ff99","32","-1","0","0","","0","test","2","65","2","1","win","go","0"
"pit-trial","69","510205","0.0-69.0","battery-v0.2","","","-1","","B","elianto","#f73b6a7A","32","-1","0","-10","","0","test","2","66","5","3","lose","go","0"
"pit-trial","70","515709","0.0-70.0","battery-v0.2","","","-1","","C","elianto","#3366ff99","-1","-1","1","0","","0","test","2","67","6","2","win","no-go","1"
"pit-trial","71","521211","0.0-71.0","battery-v0.2","","","-1","","T","elianto","#f73b6a7A","-1","-1","1","0","","0","test","2","68","4","4","lose","no-go","0"
"pit-trial","72","526713","0.0-72.0","battery-v0.2","","","-1","","T","elianto","#f73b6a7A","-1","-1","1","-10","","0","test","2","69","4","4","lose","no-go","1"
"pit-trial","73","532215","0.0-73.0","battery-v0.2","","","-1","","C","elianto","#3366ff99","-1","-1","1","+10","","0","test","2","70","6","2","win","no-go","0"
"pit-trial","74","537717","0.0-74.0","battery-v0.2","","","-1","","B","elianto","#f73b6a7A","32","-1","0","-10","","0","test","2","71","5","3","lose","go","0"
"pit-trial","75","543220","0.0-75.0","battery-v0.2","","","-1","","Z","elianto","#f73b6a7A","-1","-1","1","0","","0","test","2","72","7","4","lose","no-go","0"
"pit-trial","76","548722","0.0-76.0","battery-v0.2","","","-1","","T","elianto","#f73b6a7A","-1","-1","1","0","","0","test","2","73","4","4","lose","no-go","0"
"pit-trial","77","554225","0.0-77.0","battery-v0.2","","","-1","","B","elianto","#f73b6a7A","32","-1","0","0","","0","test","2","74","5","3","lose","go","1"
"pit-trial","78","559726","0.0-78.0","battery-v0.2","","","-1","","Z","elianto","#f73b6a7A","-1","-1","1","-10","","0","test","2","75","7","4","lose","no-go","1"
"pit-trial","79","565228","0.0-79.0","battery-v0.2","","","-1","","C","elianto","#3366ff99","-1","-1","1","+10","","0","test","2","76","6","2","win","no-go","0"
"pit-trial","80","570730","0.0-80.0","battery-v0.2","","","-1","","B","elianto","#f73b6a7A","32","-1","0","-10","","0","test","2","77","5","3","lose","go","0"
"pit-trial","81","576232","0.0-81.0","battery-v0.2","","","-1","","C","elianto","#3366ff99","-1","-1","1","0","","0","test","2","78","6","2","win","no-go","1"
"pit-trial","82","581735","0.0-82.0","battery-v0.2","","","-1","","T","elianto","#f73b6a7A","-1","-1","1","0","","0","test","2","79","4","4","lose","no-go","0"
"pit-trial","83","587237","0.0-83.0","battery-v0.2","","","-1","","Z","elianto","#f73b6a7A","-1","-1","1","0","","0","test","2","80","7","4","lose","no-go","0"
"pit-trial","84","592739","0.0-84.0","battery-v0.2","","","-1","","C","elianto","#3366ff99","-1","-1","1","0","","0","test","2","81","6","2","win","no-go","1"
"pit-trial","85","598240","0.0-85.0","battery-v0.2","","","-1","","T","elianto","#f73b6a7A","-1","-1","1","-10","","0","test","2","82","4","4","lose","no-go","1"
"pit-trial","86","603742","0.0-86.0","battery-v0.2","","","-1","","B","elianto","#f73b6a7A","32","-1","0","-10","","0","test","2","83","5","3","lose","go","0"
"pit-trial","87","609244","0.0-87.0","battery-v0.2","","","-1","","Z","elianto","#f73b6a7A","-1","-1","1","0","","0","test","2","84","7","4","lose","no-go","0"
"pit-trial","88","614746","0.0-88.0","battery-v0.2","","","-1","","Z","elianto","#f73b6a7A","-1","-1","1","0","","0","test","2","85","7","4","lose","no-go","0"
"pit-trial","89","620249","0.0-89.0","battery-v0.2","","","-1","","T","elianto","#f73b6a7A","-1","-1","1","0","","0","test","2","86","4","4","lose","no-go","0"
"pit-trial","90","625751","0.0-90.0","battery-v0.2","","","-1","","C","elianto","#3366ff99","-1","-1","1","+10","","0","test","2","87","6","2","win","no-go","0"
"pit-trial","91","631254","0.0-91.0","battery-v0.2","","","-1","","B","elianto","#f73b6a7A","32","-1","0","0","","0","test","2","88","5","3","lose","go","1"
"pit-trial","92","636757","0.0-92.0","battery-v0.2","","","-1","","T","elianto","#f73b6a7A","-1","-1","1","0","","0","test","2","89","4","4","lose","no-go","0"
"pit-trial","93","642260","0.0-93.0","battery-v0.2","","","-1","","C","elianto","#3366ff99","-1","-1","1","+10","","0","test","2","90","6","2","win","no-go","0"
"pit-trial","94","647763","0.0-94.0","battery-v0.2","","","-1","","B","elianto","#f73b6a7A","32","-1","0","-10","","0","test","2","91","5","3","lose","go","0"
"pit-trial","95","653266","0.0-95.0","battery-v0.2","","","-1","","Z","elianto","#f73b6a7A","-1","-1","1","-10","","0","test","2","92","7","4","lose","no-go","1"
"pit-trial","96","658769","0.0-96.0","battery-v0.2","","","-1","","H","elianto","#f73b6a7A","-1","-1","1","0","","0","test","2","93","8","4","lose","no-go","0"
"pit-trial","97","664271","0.0-97.0","battery-v0.2","","","-1","","B","elianto","#f73b6a7A","32","-1","0","-10","","0","test","2","94","5","3","lose","go","0"
"pit-trial","98","669773","0.0-98.0","battery-v0.2","","","-1","","C","elianto","#3366ff99","-1","-1","1","+10","","0","test","2","95","6","2","win","no-go","0"
"pit-trial","99","675276","0.0-99.0","battery-v0.2","","","-1","","Z","elianto","#f73b6a7A","-1","-1","1","0","","0","test","2","96","7","4","lose","no-go","0"
"pit-trial","100","680778","0.0-100.0","battery-v0.2","","","-1","","B","elianto","#f73b6a7A","32","-1","0","-10","","0","test","2","97","5","3","lose","go","0"
"pit-trial","101","686280","0.0-101.0","battery-v0.2","","","-1","","Z","elianto","#f73b6a7A","-1","-1","1","-10","","0","test","2","98","7","4","lose","no-go","1"
"pit-trial","102","691783","0.0-102.0","battery-v0.2","","","-1","","H","elianto","#f73b6a7A","-1","-1","1","0","","0","test","2","99","8","4","lose","no-go","0"
"pit-trial","103","697286","0.0-103.0","battery-v0.2","","","-1","","C","elianto","#3366ff99","-1","-1","1","+10","","0","test","2","100","6","2","win","no-go","0"
"pit-trial","104","702789","0.0-104.0","battery-v0.2","","","-1","","Y","elianto","#3366ff99","32","-1","0","0","","0","test","2","101","9","1","win","go","0"
"pit-trial","105","708293","0.0-105.0","battery-v0.2","","","-1","","C","elianto","#3366ff99","-1","-1","1","0","","0","test","2","102","6","2","win","no-go","1"
"pit-trial","106","713795","0.0-106.0","battery-v0.2","","","-1","","H","elianto","#f73b6a7A","-1","-1","1","0","","0","test","2","103","8","4","lose","no-go","0"
"pit-trial","107","719297","0.0-107.0","battery-v0.2","","","-1","","R","elianto","#f73b6a7A","32","-1","0","-10","","0","test","2","104","10","3","lose","go","0"
"pit-trial","108","724799","0.0-108.0","battery-v0.2","","","-1","","H","elianto","#f73b6a7A","-1","-1","1","0","","0","test","2","105","8","4","lose","no-go","0"
"pit-trial","109","730301","0.0-109.0","battery-v0.2","","","-1","","R","elianto","#f73b6a7A","32","-1","0","-10","","0","test","2","106","10","3","lose","go","0"
"pit-trial","110","735802","0.0-110.0","battery-v0.2","","","-1","","C","elianto","#3366ff99","-1","-1","1","+10","","0","test","2","107","6","2","win","no-go","0"
"pit-trial","111","741304","0.0-111.0","battery-v0.2","","","-1","","Y","elianto","#3366ff99","32","-1","0","+10","","0","test","2","108","9","1","win","go","1"
"pit-trial","112","746805","0.0-112.0","battery-v0.2","","","-1","","M","elianto","#3366ff99","32","-1","0","0","","0","test","2","109","11","1","win","go","0"
"pit-trial","113","752307","0.0-113.0","battery-v0.2","","","-1","","R","elianto","#f73b6a7A","32","-1","0","-10","","0","test","2","110","10","3","lose","go","0"
"pit-trial","114","757808","0.0-114.0","battery-v0.2","","","-1","","H","elianto","#f73b6a7A","-1","-1","1","0","","0","test","2","111","8","4","lose","no-go","0"
"pit-trial","115","763310","0.0-115.0","battery-v0.2","","","-1","","Y","elianto","#3366ff99","32","-1","0","0","","0","test","2","112","9","1","win","go","0"
"pit-trial","116","768813","0.0-116.0","battery-v0.2","","","-1","","M","elianto","#3366ff99","32","-1","0","0","","0","test","2","113","11","1","win","go","0"
"pit-trial","117","774315","0.0-117.0","battery-v0.2","","","-1","","Y","elianto","#3366ff99","32","-1","0","0","","0","test","2","114","9","1","win","go","0"
"pit-trial","118","779818","0.0-118.0","battery-v0.2","","","-1","","H","elianto","#f73b6a7A","-1","-1","1","0","","0","test","2","115","8","4","lose","no-go","0"
"pit-trial","119","785319","0.0-119.0","battery-v0.2","","","-1","","R","elianto","#f73b6a7A","32","-1","0","-10","","0","test","2","116","10","3","lose","go","0"
"pit-trial","120","790821","0.0-120.0","battery-v0.2","","","-1","","R","elianto","#f73b6a7A","32","-1","0","-10","","0","test","2","117","10","3","lose","go","0"
"pit-trial","121","796322","0.0-121.0","battery-v0.2","","","-1","","M","elianto","#3366ff99","32","-1","0","+10","","0","test","2","118","11","1","win","go","1"
"pit-trial","122","801824","0.0-122.0","battery-v0.2","","","-1","","H","elianto","#f73b6a7A","-1","-1","1","0","","0","test","2","119","8","4","lose","no-go","0"
"pit-trial","123","807327","0.0-123.0","battery-v0.2","","","-1","","Y","elianto","#3366ff99","32","-1","0","0","","0","test","2","120","9","1","win","go","0"
"pit-trial","124","812829","0.0-124.0","battery-v0.2","","","-1","","R","elianto","#f73b6a7A","32","-1","0","-10","","0","test","2","121","10","3","lose","go","0"
"pit-trial","125","818330","0.0-125.0","battery-v0.2","","","-1","","H","elianto","#f73b6a7A","-1","-1","1","-10","","0","test","2","122","8","4","lose","no-go","1"
"pit-trial","126","823832","0.0-126.0","battery-v0.2","","","-1","","Y","elianto","#3366ff99","32","-1","0","0","","0","test","2","123","9","1","win","go","0"
"pit-trial","127","829335","0.0-127.0","battery-v0.2","","","-1","","M","elianto","#3366ff99","32","-1","0","+10","","0","test","2","124","11","1","win","go","1"
"pit-trial","128","834838","0.0-128.0","battery-v0.2","","","-1","","H","elianto","#f73b6a7A","-1","-1","1","-10","","0","test","2","125","8","4","lose","no-go","1"
"pit-trial","129","840341","0.0-129.0","battery-v0.2","","","-1","","R","elianto","#f73b6a7A","32","-1","0","-10","","0","test","2","126","10","3","lose","go","0"
"pit-trial","130","845842","0.0-130.0","battery-v0.2","","","-1","","Y","elianto","#3366ff99","32","-1","0","+10","","0","test","2","127","9","1","win","go","1"
"pit-trial","131","851344","0.0-131.0","battery-v0.2","","","-1","","M","elianto","#3366ff99","32","-1","0","0","","0","test","2","128","11","1","win","go","0"
"pit-trial","132","856846","0.0-132.0","battery-v0.2","","","-1","","R","elianto","#f73b6a7A","32","-1","0","-10","","0","test","2","129","10","3","lose","go","0"
"pit-trial","133","862349","0.0-133.0","battery-v0.2","","","-1","","Y","elianto","#3366ff99","32","-1","0","0","","0","test","2","130","9","1","win","go","0"
"pit-trial","134","867852","0.0-134.0","battery-v0.2","","","-1","","M","elianto","#3366ff99","32","-1","0","0","","0","test","2","131","11","1","win","go","0"
"pit-trial","135","873353","0.0-135.0","battery-v0.2","","","-1","","H","elianto","#f73b6a7A","-1","-1","1","0","","0","test","2","132","8","4","lose","no-go","0"
"pit-trial","136","878856","0.0-136.0","battery-v0.2","","","-1","","R","elianto","#f73b6a7A","32","-1","0","-10","","0","test","2","133","10","3","lose","go","0"
"pit-trial","137","884358","0.0-137.0","battery-v0.2","","","-1","","M","elianto","#3366ff99","32","-1","0","0","","0","test","2","134","11","1","win","go","0"
"pit-trial","138","889860","0.0-138.0","battery-v0.2","","","-1","","Y","elianto","#3366ff99","32","-1","0","+10","","0","test","2","135","9","1","win","go","1"
"pit-trial","139","895362","0.0-139.0","battery-v0.2","","","-1","","H","elianto","#f73b6a7A","-1","-1","1","0","","0","test","2","136","8","4","lose","no-go","0"
"pit-trial","140","900864","0.0-140.0","battery-v0.2","","","-1","","Y","elianto","#3366ff99","32","-1","0","+10","","0","test","2","137","9","1","win","go","1"
"pit-trial","141","906366","0.0-141.0","battery-v0.2","","","-1","","R","elianto","#f73b6a7A","32","-1","0","-10","","0","test","2","138","10","3","lose","go","0"
"pit-trial","142","911869","0.0-142.0","battery-v0.2","","","-1","","M","elianto","#3366ff99","32","-1","0","0","","0","test","2","139","11","1","win","go","0"
"pit-trial","143","917372","0.0-143.0","battery-v0.2","","","-1","","H","elianto","#f73b6a7A","-1","-1","1","0","","0","test","2","140","8","4","lose","no-go","0"
"pit-instructions","144","1513138","0.0-144.0","battery-v0.2","","","595765.1000000006","[{""page_index"":0,""viewing_time"":593554.4000000004},{""page_index"":1,""viewing_time"":2210.2000000001863}]","","","","","","","","","","","","","","","","",""
"pit-trial","145","1518641","0.0-145.0","battery-v0.2","","","-1","","G","elianto","#3366ff99","32","-1","0","0","","0","test","3","141","3","1","win","go","0"
"pit-trial","146","1524143","0.0-146.0","battery-v0.2","","","-1","","U","elianto","#3366ff99","-1","-1","1","+10","","0","test","3","142","0","2","win","no-go","0"
"pit-trial","147","1529645","0.0-147.0","battery-v0.2","","","-1","","L","elianto","#f73b6a7A","32","-1","0","0","","0","test","3","143","1","3","lose","go","1"
"pit-trial","148","1535148","0.0-148.0","battery-v0.2","","","-1","","A","elianto","#f73b6a7A","-1","-1","1","0","","0","test","3","144","2","4","lose","no-go","0"
"pit-trial","149","1540650","0.0-149.0","battery-v0.2","","","-1","","U","elianto","#3366ff99","-1","-1","1","0","","0","test","3","145","0","2","win","no-go","1"
"pit-trial","150","1546153","0.0-150.0","battery-v0.2","","","-1","","A","elianto","#f73b6a7A","-1","-1","1","0","","0","test","3","146","2","4","lose","no-go","0"
"pit-trial","151","1551656","0.0-151.0","battery-v0.2","","","-1","","G","elianto","#3366ff99","32","-1","0","0","","0","test","3","147","3","1","win","go","0"
"pit-trial","152","1557158","0.0-152.0","battery-v0.2","","","-1","","L","elianto","#f73b6a7A","32","-1","0","-10","","0","test","3","148","1","3","lose","go","0"
"pit-trial","153","1562661","0.0-153.0","battery-v0.2","","","-1","","U","elianto","#3366ff99","-1","-1","1","+10","","0","test","3","149","0","2","win","no-go","0"
"pit-trial","154","1568164","0.0-154.0","battery-v0.2","","","-1","","G","elianto","#3366ff99","32","-1","0","0","","0","test","3","150","3","1","win","go","0"
"pit-trial","155","1573667","0.0-155.0","battery-v0.2","","","-1","","A","elianto","#f73b6a7A","-1","-1","1","0","","0","test","3","151","2","4","lose","no-go","0"
"pit-trial","156","1579170","0.0-156.0","battery-v0.2","","","-1","","L","elianto","#f73b6a7A","32","-1","0","-10","","0","test","3","152","1","3","lose","go","0"
"pit-trial","157","1584672","0.0-157.0","battery-v0.2","","","-1","","A","elianto","#f73b6a7A","-1","-1","1","0","","0","test","3","153","2","4","lose","no-go","0"
"pit-trial","158","1590176","0.0-158.0","battery-v0.2","","","-1","","G","elianto","#3366ff99","32","-1","0","0","","0","test","3","154","3","1","win","go","0"
"pit-trial","159","1595678","0.0-159.0","battery-v0.2","","","-1","","U","elianto","#3366ff99","-1","-1","1","+10","","0","test","3","155","0","2","win","no-go","0"
"pit-trial","160","1601181","0.0-160.0","battery-v0.2","","","-1","","L","elianto","#f73b6a7A","32","-1","0","-10","","0","test","3","156","1","3","lose","go","0"
"pit-trial","161","1606684","0.0-161.0","battery-v0.2","","","-1","","A","elianto","#f73b6a7A","-1","-1","1","0","","0","test","3","157","2","4","lose","no-go","0"
"pit-trial","162","1612186","0.0-162.0","battery-v0.2","","","-1","","L","elianto","#f73b6a7A","32","-1","0","0","","0","test","3","158","1","3","lose","go","1"
"pit-trial","163","1617690","0.0-163.0","battery-v0.2","","","-1","","G","elianto","#3366ff99","32","-1","0","+10","","0","test","3","159","3","1","win","go","1"
"pit-trial","164","1623193","0.0-164.0","battery-v0.2","","","-1","","U","elianto","#3366ff99","-1","-1","1","+10","","0","test","3","160","0","2","win","no-go","0"
"pit-trial","165","1628696","0.0-165.0","battery-v0.2","","","-1","","L","elianto","#f73b6a7A","32","-1","0","-10","","0","test","3","161","1","3","lose","go","0"
"pit-trial","166","1634199","0.0-166.0","battery-v0.2","","","-1","","G","elianto","#3366ff99","32","-1","0","0","","0","test","3","162","3","1","win","go","0"
"pit-trial","167","1639703","0.0-167.0","battery-v0.2","","","-1","","A","elianto","#f73b6a7A","-1","-1","1","0","","0","test","3","163","2","4","lose","no-go","0"
"pit-trial","168","1645204","0.0-168.0","battery-v0.2","","","-1","","U","elianto","#3366ff99","-1","-1","1","+10","","0","test","3","164","0","2","win","no-go","0"
"pit-trial","169","1650706","0.0-169.0","battery-v0.2","","","-1","","A","elianto","#f73b6a7A","-1","-1","1","0","","0","test","3","165","2","4","lose","no-go","0"
"pit-trial","170","1656208","0.0-170.0","battery-v0.2","","","-1","","U","elianto","#3366ff99","-1","-1","1","+10","","0","test","3","166","0","2","win","no-go","0"
"pit-trial","171","1661709","0.0-171.0","battery-v0.2","","","-1","","L","elianto","#f73b6a7A","32","-1","0","-10","","0","test","3","167","1","3","lose","go","0"
"pit-trial","172","1667211","0.0-172.0","battery-v0.2","","","-1","","G","elianto","#3366ff99","32","-1","0","0","","0","test","3","168","3","1","win","go","0"
"pit-trial","173","1672716","0.0-173.0","battery-v0.2","","","-1","","U","elianto","#3366ff99","-1","-1","1","+10","","0","test","3","169","0","2","win","no-go","0"
"pit-trial","174","1678218","0.0-174.0","battery-v0.2","","","-1","","G","elianto","#3366ff99","32","-1","0","0","","0","test","3","170","3","1","win","go","0"
"pit-trial","175","1683722","0.0-175.0","battery-v0.2","","","-1","","L","elianto","#f73b6a7A","32","-1","0","-10","","0","test","3","171","1","3","lose","go","0"
"pit-trial","176","1689225","0.0-176.0","battery-v0.2","","","-1","","A","elianto","#f73b6a7A","-1","-1","1","0","","0","test","3","172","2","4","lose","no-go","0"
"pit-trial","177","1694728","0.0-177.0","battery-v0.2","","","-1","","L","elianto","#f73b6a7A","32","-1","0","-10","","0","test","3","173","1","3","lose","go","0"
"pit-trial","178","1700231","0.0-178.0","battery-v0.2","","","-1","","P","elianto","#f73b6a7A","32","-1","0","-10","","0","test","3","174","4","3","lose","go","0"
"pit-trial","179","1705734","0.0-179.0","battery-v0.2","","","-1","","A","elianto","#f73b6a7A","-1","-1","1","0","","0","test","3","175","2","4","lose","no-go","0"
"pit-trial","180","1711236","0.0-180.0","battery-v0.2","","","-1","","S","elianto","#f73b6a7A","-1","-1","1","-10","","0","test","3","176","5","4","lose","no-go","1"
"pit-trial","181","1716739","0.0-181.0","battery-v0.2","","","-1","","P","elianto","#f73b6a7A","32","-1","0","-10","","0","test","3","177","4","3","lose","go","0"
"pit-trial","182","1722243","0.0-182.0","battery-v0.2","","","-1","","A","elianto","#f73b6a7A","-1","-1","1","0","","0","test","3","178","2","4","lose","no-go","0"
"pit-trial","183","1727746","0.0-183.0","battery-v0.2","","","-1","","S","elianto","#f73b6a7A","-1","-1","1","0","","0","test","3","179","5","4","lose","no-go","0"
"pit-trial","184","1733249","0.0-184.0","battery-v0.2","","","-1","","L","elianto","#f73b6a7A","32","-1","0","-10","","0","test","3","180","1","3","lose","go","0"
"pit-trial","185","1738753","0.0-185.0","battery-v0.2","","","-1","","P","elianto","#f73b6a7A","32","-1","0","-10","","0","test","3","181","4","3","lose","go","0"
"pit-trial","186","1744256","0.0-186.0","battery-v0.2","","","-1","","S","elianto","#f73b6a7A","-1","-1","1","-10","","0","test","3","182","5","4","lose","no-go","1"
"pit-trial","187","1749760","0.0-187.0","battery-v0.2","","","-1","","W","elianto","#3366ff99","-1","-1","1","+10","","0","test","3","183","6","2","win","no-go","0"
"pit-trial","188","1755264","0.0-188.0","battery-v0.2","","","-1","","A","elianto","#f73b6a7A","-1","-1","1","-10","","0","test","3","184","2","4","lose","no-go","1"
"pit-trial","189","1760768","0.0-189.0","battery-v0.2","","","-1","","S","elianto","#f73b6a7A","-1","-1","1","0","","0","test","3","185","5","4","lose","no-go","0"
"pit-trial","190","1766272","0.0-190.0","battery-v0.2","","","-1","","W","elianto","#3366ff99","-1","-1","1","+10","","0","test","3","186","6","2","win","no-go","0"
"pit-trial","191","1771776","0.0-191.0","battery-v0.2","","","-1","","A","elianto","#f73b6a7A","-1","-1","1","0","","0","test","3","187","2","4","lose","no-go","0"
"pit-trial","192","1777280","0.0-192.0","battery-v0.2","","","-1","","P","elianto","#f73b6a7A","32","-1","0","0","","0","test","3","188","4","3","lose","go","1"
"pit-trial","193","1782784","0.0-193.0","battery-v0.2","","","-1","","W","elianto","#3366ff99","-1","-1","1","+10","","0","test","3","189","6","2","win","no-go","0"
"pit-trial","194","1788289","0.0-194.0","battery-v0.2","","","-1","","P","elianto","#f73b6a7A","32","-1","0","-10","","0","test","3","190","4","3","lose","go","0"
"pit-trial","195","1793793","0.0-195.0","battery-v0.2","","","-1","","S","elianto","#f73b6a7A","-1","-1","1","0","","0","test","3","191","5","4","lose","no-go","0"
"pit-trial","196","1799297","0.0-196.0","battery-v0.2","","","-1","","E","elianto","#3366ff99","32","-1","0","0","","0","test","3","192","7","1","win","go","0"
"pit-trial","197","1804801","0.0-197.0","battery-v0.2","","","-1","","P","elianto","#f73b6a7A","32","-1","0","-10","","0","test","3","193","4","3","lose","go","0"
"pit-trial","198","1810304","0.0-198.0","battery-v0.2","","","-1","","E","elianto","#3366ff99","32","-1","0","0","","0","test","3","194","7","1","win","go","0"
"pit-trial","199","1815807","0.0-199.0","battery-v0.2","","","-1","","W","elianto","#3366ff99","-1","-1","1","0","","0","test","3","195","6","2","win","no-go","1"
"pit-trial","200","1821309","0.0-200.0","battery-v0.2","","","-1","","S","elianto","#f73b6a7A","-1","-1","1","0","","0","test","3","196","5","4","lose","no-go","0"
"pit-trial","201","1826812","0.0-201.0","battery-v0.2","","","-1","","P","elianto","#f73b6a7A","32","-1","0","-10","","0","test","3","197","4","3","lose","go","0"
"pit-trial","202","1832316","0.0-202.0","battery-v0.2","","","-1","","E","elianto","#3366ff99","32","-1","0","0","","0","test","3","198","7","1","win","go","0"
"pit-trial","203","1837820","0.0-203.0","battery-v0.2","","","-1","","W","elianto","#3366ff99","-1","-1","1","0","","0","test","3","199","6","2","win","no-go","1"
"pit-trial","204","1843323","0.0-204.0","battery-v0.2","","","-1","","S","elianto","#f73b6a7A","-1","-1","1","0","","0","test","3","200","5","4","lose","no-go","0"
"pit-trial","205","1848826","0.0-205.0","battery-v0.2","","","-1","","E","elianto","#3366ff99","32","-1","0","+10","","0","test","3","201","7","1","win","go","1"
"pit-trial","206","1854328","0.0-206.0","battery-v0.2","","","-1","","W","elianto","#3366ff99","-1","-1","1","0","","0","test","3","202","6","2","win","no-go","1"
"pit-trial","207","1859831","0.0-207.0","battery-v0.2","","","-1","","S","elianto","#f73b6a7A","-1","-1","1","0","","0","test","3","203","5","4","lose","no-go","0"
"pit-trial","208","1865334","0.0-208.0","battery-v0.2","","","-1","","P","elianto","#f73b6a7A","32","-1","0","-10","","0","test","3","204","4","3","lose","go","0"
"pit-trial","209","1870836","0.0-209.0","battery-v0.2","","","-1","","S","elianto","#f73b6a7A","-1","-1","1","0","","0","test","3","205","5","4","lose","no-go","0"
"pit-trial","210","1876338","0.0-210.0","battery-v0.2","","","-1","","W","elianto","#3366ff99","-1","-1","1","+10","","0","test","3","206","6","2","win","no-go","0"
"pit-trial","211","1881840","0.0-211.0","battery-v0.2","","","-1","","E","elianto","#3366ff99","32","-1","0","0","","0","test","3","207","7","1","win","go","0"
"pit-trial","212","1887342","0.0-212.0","battery-v0.2","","","-1","","P","elianto","#f73b6a7A","32","-1","0","-10","","0","test","3","208","4","3","lose","go","0"
"pit-trial","213","1892845","0.0-213.0","battery-v0.2","","","-1","","P","elianto","#f73b6a7A","32","-1","0","0","","0","test","3","209","4","3","lose","go","1"
"pit-trial","214","1898348","0.0-214.0","battery-v0.2","","","-1","","S","elianto","#f73b6a7A","-1","-1","1","0","","0","test","3","210","5","4","lose","no-go","0"
"pit-trial","215","1903851","0.0-215.0","battery-v0.2","","","-1","","E","elianto","#3366ff99","32","-1","0","0","","0","test","3","211","7","1","win","go","0"
"pit-trial","216","1909354","0.0-216.0","battery-v0.2","","","-1","","W","elianto","#3366ff99","-1","-1","1","+10","","0","test","3","212","6","2","win","no-go","0"
"pit-trial","217","1914858","0.0-217.0","battery-v0.2","","","-1","","P","elianto","#f73b6a7A","32","-1","0","-10","","0","test","3","213","4","3","lose","go","0"
"pit-trial","218","1920360","0.0-218.0","battery-v0.2","","","-1","","W","elianto","#3366ff99","-1","-1","1","+10","","0","test","3","214","6","2","win","no-go","0"
"pit-trial","219","1925864","0.0-219.0","battery-v0.2","","","-1","","E","elianto","#3366ff99","32","-1","0","0","","0","test","3","215","7","1","win","go","0"
"pit-trial","220","1931368","0.0-220.0","battery-v0.2","","","-1","","K","elianto","#3366ff99","32","-1","0","0","","0","test","3","216","8","1","win","go","0"
"pit-trial","221","1936870","0.0-221.0","battery-v0.2","","","-1","","W","elianto","#3366ff99","-1","-1","1","0","","0","test","3","217","6","2","win","no-go","1"
"pit-trial","222","1942373","0.0-222.0","battery-v0.2","","","-1","","P","elianto","#f73b6a7A","32","-1","0","-10","","0","test","3","218","4","3","lose","go","0"
"pit-trial","223","1947877","0.0-223.0","battery-v0.2","","","-1","","K","elianto","#3366ff99","32","-1","0","0","","0","test","3","219","8","1","win","go","0"
"pit-trial","224","1953379","0.0-224.0","battery-v0.2","","","-1","","E","elianto","#3366ff99","32","-1","0","0","","0","test","3","220","7","1","win","go","0"
"pit-trial","225","1958883","0.0-225.0","battery-v0.2","","","-1","","D","elianto","#3366ff99","-1","-1","1","+10","","0","test","3","221","9","2","win","no-go","0"
"pit-trial","226","1964387","0.0-226.0","battery-v0.2","","","-1","","K","elianto","#3366ff99","32","-1","0","0","","0","test","3","222","8","1","win","go","0"
"pit-trial","227","1969892","0.0-227.0","battery-v0.2","","","-1","","W","elianto","#3366ff99","-1","-1","1","+10","","0","test","3","223","6","2","win","no-go","0"
"pit-trial","228","1975396","0.0-228.0","battery-v0.2","","","-1","","E","elianto","#3366ff99","32","-1","0","0","","0","test","3","224","7","1","win","go","0"
"pit-trial","229","1980900","0.0-229.0","battery-v0.2","","","-1","","K","elianto","#3366ff99","32","-1","0","0","","0","test","3","225","8","1","win","go","0"
"pit-trial","230","1986404","0.0-230.0","battery-v0.2","","","-1","","D","elianto","#3366ff99","-1","-1","1","0","","0","test","3","226","9","2","win","no-go","1"
"pit-trial","231","1991907","0.0-231.0","battery-v0.2","","","-1","","E","elianto","#3366ff99","32","-1","0","0","","0","test","3","227","7","1","win","go","0"
"pit-trial","232","1997409","0.0-232.0","battery-v0.2","","","-1","","W","elianto","#3366ff99","-1","-1","1","+10","","0","test","3","228","6","2","win","no-go","0"
"pit-trial","233","2002912","0.0-233.0","battery-v0.2","","","-1","","K","elianto","#3366ff99","32","-1","0","0","","0","test","3","229","8","1","win","go","0"
"pit-trial","234","2008415","0.0-234.0","battery-v0.2","","","-1","","V","elianto","#f73b6a7A","-1","-1","1","-10","","0","test","3","230","11","4","lose","no-go","1"
"pit-trial","235","2013920","0.0-235.0","battery-v0.2","","","-1","","D","elianto","#3366ff99","-1","-1","1","0","","0","test","3","231","9","2","win","no-go","1"
"pit-trial","236","2019423","0.0-236.0","battery-v0.2","","","-1","","J","elianto","#f73b6a7A","32","-1","0","-10","","0","test","3","232","10","3","lose","go","0"
"pit-trial","237","2024926","0.0-237.0","battery-v0.2","","","-1","","D","elianto","#3366ff99","-1","-1","1","0","","0","test","3","233","9","2","win","no-go","1"
"pit-trial","238","2030429","0.0-238.0","battery-v0.2","","","-1","","K","elianto","#3366ff99","32","-1","0","+10","","0","test","3","234","8","1","win","go","1"
"pit-trial","239","2035933","0.0-239.0","battery-v0.2","","","-1","","J","elianto","#f73b6a7A","32","-1","0","0","","0","test","3","235","10","3","lose","go","1"
"pit-trial","240","2041436","0.0-240.0","battery-v0.2","","","-1","","V","elianto","#f73b6a7A","-1","-1","1","-10","","0","test","3","236","11","4","lose","no-go","1"
"pit-trial","241","2046940","0.0-241.0","battery-v0.2","","","-1","","D","elianto","#3366ff99","-1","-1","1","+10","","0","test","3","237","9","2","win","no-go","0"
"pit-trial","242","2052442","0.0-242.0","battery-v0.2","","","-1","","K","elianto","#3366ff99","32","-1","0","0","","0","test","3","238","8","1","win","go","0"
"pit-trial","243","2057944","0.0-243.0","battery-v0.2","","","-1","","J","elianto","#f73b6a7A","32","-1","0","-10","","0","test","3","239","10","3","lose","go","0"
"pit-trial","244","2063447","0.0-244.0","battery-v0.2","","","-1","","V","elianto","#f73b6a7A","-1","-1","1","0","","0","test","3","240","11","4","lose","no-go","0"
"pit-trial","245","2068949","0.0-245.0","battery-v0.2","","","-1","","J","elianto","#f73b6a7A","32","-1","0","-10","","0","test","3","241","10","3","lose","go","0"
"pit-trial","246","2074451","0.0-246.0","battery-v0.2","","","-1","","K","elianto","#3366ff99","32","-1","0","0","","0","test","3","242","8","1","win","go","0"
"pit-trial","247","2079954","0.0-247.0","battery-v0.2","","","-1","","D","elianto","#3366ff99","-1","-1","1","+10","","0","test","3","243","9","2","win","no-go","0"
"pit-trial","248","2085456","0.0-248.0","battery-v0.2","","","-1","","V","elianto","#f73b6a7A","-1","-1","1","0","","0","test","3","244","11","4","lose","no-go","0"
"pit-trial","249","2090960","0.0-249.0","battery-v0.2","","","-1","","K","elianto","#3366ff99","32","-1","0","0","","0","test","3","245","8","1","win","go","0"
"pit-trial","250","2096462","0.0-250.0","battery-v0.2","","","-1","","D","elianto","#3366ff99","-1","-1","1","+10","","0","test","3","246","9","2","win","no-go","0"
"pit-trial","251","2101966","0.0-251.0","battery-v0.2","","","-1","","J","elianto","#f73b6a7A","32","-1","0","-10","","0","test","3","247","10","3","lose","go","0"
"pit-trial","252","2107468","0.0-252.0","battery-v0.2","","","-1","","V","elianto","#f73b6a7A","-1","-1","1","0","","0","test","3","248","11","4","lose","no-go","0"
"pit-trial","253","2112971","0.0-253.0","battery-v0.2","","","-1","","V","elianto","#f73b6a7A","-1","-1","1","0","","0","test","3","249","11","4","lose","no-go","0"
"pit-trial","254","2118474","0.0-254.0","battery-v0.2","","","-1","","J","elianto","#f73b6a7A","32","-1","0","-10","","0","test","3","250","10","3","lose","go","0"
"pit-trial","255","2123978","0.0-255.0","battery-v0.2","","","-1","","D","elianto","#3366ff99","-1","-1","1","0","","0","test","3","251","9","2","win","no-go","1"
"pit-trial","256","2129480","0.0-256.0","battery-v0.2","","","-1","","K","elianto","#3366ff99","32","-1","0","0","","0","test","3","252","8","1","win","go","0"
"pit-trial","257","2134982","0.0-257.0","battery-v0.2","","","-1","","D","elianto","#3366ff99","-1","-1","1","0","","0","test","3","253","9","2","win","no-go","1"
"pit-trial","258","2140484","0.0-258.0","battery-v0.2","","","-1","","J","elianto","#f73b6a7A","32","-1","0","-10","","0","test","3","254","10","3","lose","go","0"
"pit-trial","259","2145987","0.0-259.0","battery-v0.2","","","-1","","V","elianto","#f73b6a7A","-1","-1","1","0","","0","test","3","255","11","4","lose","no-go","0"
"pit-trial","260","2151490","0.0-260.0","battery-v0.2","","","-1","","K","elianto","#3366ff99","32","-1","0","0","","0","test","3","256","8","1","win","go","0"
"pit-trial","261","2156994","0.0-261.0","battery-v0.2","","","-1","","K","elianto","#3366ff99","32","-1","0","0","","0","test","3","257","8","1","win","go","0"
"pit-trial","262","2162498","0.0-262.0","battery-v0.2","","","-1","","D","elianto","#3366ff99","-1","-1","1","+10","","0","test","3","258","9","2","win","no-go","0"
"pit-trial","263","2168001","0.0-263.0","battery-v0.2","","","-1","","J","elianto","#f73b6a7A","32","-1","0","-10","","0","test","3","259","10","3","lose","go","0"
"pit-trial","264","2173504","0.0-264.0","battery-v0.2","","","-1","","V","elianto","#f73b6a7A","-1","-1","1","0","","0","test","3","260","11","4","lose","no-go","0"
