"trial_type","trial_index","time_elapsed","internal_node_id","task_version","view_history","rt","rune","rune_set","hex","correct","choice","accuracy","outcome","keys","total_keys","block","practice","subject","participantId","value","responses","num_errors","sub","trial","stimulus","robot","valence","action","sham"
"pavlovia","0","263","0.0-0.0","battery-v0.2","","","","","","","","","","","","","","","","","","","","","","","","",""
"pit-instructions","1","81547","0.0-1.0-0.0","battery-v0.2","[{""page_index"":0,""viewing_time"":9376.70000000298},{""page_index"":1,""viewing_time"":3048.10000000149},{""page_index"":2,""viewing_time"":8409.69999999553},{""page_index"":3,""viewing_time"":4228},{""page_index"":4,""viewing_time"":3681.8000000044703},{""page_index"":5,""viewing_time"":1789.2999999970198},{""page_index"":6,""viewing_time"":4225.10000000149},{""page_index"":7,""viewing_time"":2851.60000000149},{""page_index"":8,""viewing_time"":4464.89999999851},{""page_index"":9,""viewing_time"":5175.39999999851},{""page_index"":10,""viewing_time"":2332.39999999851},{""page_index"":11,""viewing_time"":1165.4000000059605},{""page_index"":12,""viewing_time"":2747.5999999940395},{""page_index"":13,""viewing_time"":3190.5},{""page_index"":14,""viewing_time"":5328.80000000447},{""page_index"":15,""viewing_time"":5054.29999999702},{""page_index"":16,""viewing_time"":8754.20000000298},{""page_index"":17,""viewing_time"":5455.60000000149}]","81281","","","","","","","","","","","","","","","","","","","","","","",""
"pit-trial","2","86405","0.0-1.0-1.0-0.0","battery-v0.2","","-1","&#9776;","elianto","#3366ff99","32","-1","0","0","","0","0","1","6102e88e310c20d8a6144487&order=2&STUDY_ID=61bb98616f28aedf5237274a","999","","","","","","","","","",""
"pit-trial","3","91264","0.0-1.0-1.0-1.0","battery-v0.2","","-1","&#9776;","elianto","#3366ff99","32","-1","0","0","","0","0","1","6102e88e310c20d8a6144487&order=2&STUDY_ID=61bb98616f28aedf5237274a","999","","","","","","","","","",""
"pit-trial","4","96125","0.0-1.0-1.0-2.0","battery-v0.2","","-1","&#9776;","elianto","#3366ff99","32","-1","0","0","","0","0","1","6102e88e310c20d8a6144487&order=2&STUDY_ID=61bb98616f28aedf5237274a","999","","","","","","","","","",""
"pit-trial","5","100078","0.0-1.0-1.0-3.0","battery-v0.2","","1096.2999999970198","&#9776;","elianto","#3366ff99","32","32","1","0","1949.4000000059605,3021.8000000044703","2","0","1","6102e88e310c20d8a6144487&order=2&STUDY_ID=61bb98616f28aedf5237274a","999","","","","","","","","","",""
"pit-trial","6","103671","0.0-1.0-1.0-4.0","battery-v0.2","","736.2999999970198","&#9776;","elianto","#3366ff99","32","32","1","+10","1587.7000000029802","1","0","1","6102e88e310c20d8a6144487&order=2&STUDY_ID=61bb98616f28aedf5237274a","999","","","","","","","","","",""
"pit-trial","7","107216","0.0-1.0-1.1-0.1","battery-v0.2","","684.8999999985099","&#9776;","elianto","#3366ff99","32","32","1","+10","1536.2000000029802","1","0","1","6102e88e310c20d8a6144487&order=2&STUDY_ID=61bb98616f28aedf5237274a","999","","","","","","","","","",""
"pit-trial","8","110618","0.0-1.0-1.1-1.1","battery-v0.2","","543.9000000059605","&#9776;","elianto","#3366ff99","32","32","1","+10","1394.8999999985099","1","0","1","6102e88e310c20d8a6144487&order=2&STUDY_ID=61bb98616f28aedf5237274a","999","","","","","","","","","",""
"pit-trial","9","114037","0.0-1.0-1.1-2.1","battery-v0.2","","564.8999999985099","&#9776;","elianto","#3366ff99","32","32","1","+10","1415.5","1","0","1","6102e88e310c20d8a6144487&order=2&STUDY_ID=61bb98616f28aedf5237274a","999","","","","","","","","","",""
"pit-trial","10","117659","0.0-1.0-1.1-3.1","battery-v0.2","","764.5","&#9776;","elianto","#3366ff99","32","32","1","0","1614.8999999985099","1","0","1","6102e88e310c20d8a6144487&order=2&STUDY_ID=61bb98616f28aedf5237274a","999","","","","","","","","","",""
"pit-trial","11","121380","0.0-1.0-1.1-4.1","battery-v0.2","","865.1000000014901","&#9776;","elianto","#3366ff99","32","32","1","+10","1715.7000000029802","1","0","1","6102e88e310c20d8a6144487&order=2&STUDY_ID=61bb98616f28aedf5237274a","999","","","","","","","","","",""
"call-function","12","121383","0.0-1.0-2.0","battery-v0.2","","","","","","","","","","","","","","","","","","","","","","","","",""
"pit-instructions","13","139592","0.0-1.0-3.0","battery-v0.2","[{""page_index"":0,""viewing_time"":6303.10000000149},{""page_index"":1,""viewing_time"":2969.89999999851},{""page_index"":2,""viewing_time"":4062.7000000029802},{""page_index"":3,""viewing_time"":4871.79999999702}]","18207.89999999851","","","","","","","","","","","","","","","","","","","","","","",""
"pit-trial","14","143475","0.0-1.0-4.0-0.0","battery-v0.2","","1025.5","&#9761;","elianto","#3366ff99","-1","32","0","0","1876.7999999970198","1","0","2","6102e88e310c20d8a6144487&order=2&STUDY_ID=61bb98616f28aedf5237274a","999","","","","","","","","","",""
"pit-trial","15","147096","0.0-1.0-4.0-1.0","battery-v0.2","","762.8999999985099","&#9761;","elianto","#3366ff99","-1","32","0","0","1618.2000000029802","1","0","2","6102e88e310c20d8a6144487&order=2&STUDY_ID=61bb98616f28aedf5237274a","999","","","","","","","","","",""
"pit-trial","16","150671","0.0-1.0-4.0-2.0","battery-v0.2","","720.7999999970198","&#9761;","elianto","#3366ff99","-1","32","0","0","1571.2999999970198","1","0","2","6102e88e310c20d8a6144487&order=2&STUDY_ID=61bb98616f28aedf5237274a","999","","","","","","","","","",""
"pit-trial","17","154062","0.0-1.0-4.0-3.0","battery-v0.2","","532.1000000014901","&#9761;","elianto","#3366ff99","-1","32","0","0","1385.5","1","0","2","6102e88e310c20d8a6144487&order=2&STUDY_ID=61bb98616f28aedf5237274a","999","","","","","","","","","",""
"pit-trial","18","157559","0.0-1.0-4.0-4.0","battery-v0.2","","634.8999999985099","&#9761;","elianto","#3366ff99","-1","32","0","+10","1491.6000000014901","1","0","2","6102e88e310c20d8a6144487&order=2&STUDY_ID=61bb98616f28aedf5237274a","999","","","","","","","","","",""
"pit-trial","19","161009","0.0-1.0-4.1-0.1","battery-v0.2","","588.7000000029802","&#9761;","elianto","#3366ff99","-1","32","0","0","1440.6000000014901","1","0","2","6102e88e310c20d8a6144487&order=2&STUDY_ID=61bb98616f28aedf5237274a","999","","","","","","","","","",""
"pit-trial","20","164516","0.0-1.0-4.1-1.1","battery-v0.2","","653.5","&#9761;","elianto","#3366ff99","-1","32","0","0","1503.4000000059605","1","0","2","6102e88e310c20d8a6144487&order=2&STUDY_ID=61bb98616f28aedf5237274a","999","","","","","","","","","",""
"pit-trial","21","167860","0.0-1.0-4.1-2.1","battery-v0.2","","484.6000000014901","&#9761;","elianto","#3366ff99","-1","32","0","0","1335.2000000029802","1","0","2","6102e88e310c20d8a6144487&order=2&STUDY_ID=61bb98616f28aedf5237274a","999","","","","","","","","","",""
"pit-trial","22","171169","0.0-1.0-4.1-3.1","battery-v0.2","","454.5","&#9761;","elianto","#3366ff99","-1","32","0","0","1304.6000000014901","1","0","2","6102e88e310c20d8a6144487&order=2&STUDY_ID=61bb98616f28aedf5237274a","999","","","","","","","","","",""
"pit-trial","23","174489","0.0-1.0-4.1-4.1","battery-v0.2","","464.69999999552965","&#9761;","elianto","#3366ff99","-1","32","0","+10","1315.2999999970198","1","0","2","6102e88e310c20d8a6144487&order=2&STUDY_ID=61bb98616f28aedf5237274a","999","","","","","","","","","",""
"pit-trial","24","177821","0.0-1.0-4.2-0.2","battery-v0.2","","474.5","&#9761;","elianto","#3366ff99","-1","32","0","0","1325.3999999985099","1","0","2","6102e88e310c20d8a6144487&order=2&STUDY_ID=61bb98616f28aedf5237274a","999","","","","","","","","","",""
"pit-trial","25","181170","0.0-1.0-4.2-1.2","battery-v0.2","","492.80000000447035","&#9761;","elianto","#3366ff99","-1","32","0","0","1343.1000000014901","1","0","2","6102e88e310c20d8a6144487&order=2&STUDY_ID=61bb98616f28aedf5237274a","999","","","","","","","","","",""
"pit-trial","26","184532","0.0-1.0-4.2-2.2","battery-v0.2","","504.5","&#9761;","elianto","#3366ff99","-1","32","0","0","1354.6999999955297","1","0","2","6102e88e310c20d8a6144487&order=2&STUDY_ID=61bb98616f28aedf5237274a","999","","","","","","","","","",""
"pit-trial","27","187881","0.0-1.0-4.2-3.2","battery-v0.2","","493.70000000298023","&#9761;","elianto","#3366ff99","-1","32","0","0","1344.5","1","0","2","6102e88e310c20d8a6144487&order=2&STUDY_ID=61bb98616f28aedf5237274a","999","","","","","","","","","",""
"pit-trial","28","191269","0.0-1.0-4.2-4.2","battery-v0.2","","529.2000000029802","&#9761;","elianto","#3366ff99","-1","32","0","+10","1381","1","0","2","6102e88e310c20d8a6144487&order=2&STUDY_ID=61bb98616f28aedf5237274a","999","","","","","","","","","",""
"pit-trial","29","194644","0.0-1.0-4.3-0.3","battery-v0.2","","516.1000000014901","&#9761;","elianto","#3366ff99","-1","32","0","0","1370.2999999970198","1","0","2","6102e88e310c20d8a6144487&order=2&STUDY_ID=61bb98616f28aedf5237274a","999","","","","","","","","","",""
"pit-trial","30","198019","0.0-1.0-4.3-1.3","battery-v0.2","","519.5","&#9761;","elianto","#3366ff99","-1","32","0","0","1371.1000000014901","1","0","2","6102e88e310c20d8a6144487&order=2&STUDY_ID=61bb98616f28aedf5237274a","999","","","","","","","","","",""
"pit-trial","31","201412","0.0-1.0-4.3-2.3","battery-v0.2","","538.8000000044703","&#9761;","elianto","#3366ff99","-1","32","0","0","1389.3999999985099","1","0","2","6102e88e310c20d8a6144487&order=2&STUDY_ID=61bb98616f28aedf5237274a","999","","","","","","","","","",""
"pit-trial","32","204802","0.0-1.0-4.3-3.3","battery-v0.2","","531.7000000029802","&#9761;","elianto","#3366ff99","-1","32","0","0","1386.7999999970198","1","0","2","6102e88e310c20d8a6144487&order=2&STUDY_ID=61bb98616f28aedf5237274a","999","","","","","","","","","",""
"pit-trial","33","208169","0.0-1.0-4.3-4.3","battery-v0.2","","513.5","&#9761;","elianto","#3366ff99","-1","32","0","+10","1363.7000000029802","1","0","2","6102e88e310c20d8a6144487&order=2&STUDY_ID=61bb98616f28aedf5237274a","999","","","","","","","","","",""
"pit-trial","34","211548","0.0-1.0-4.4-0.4","battery-v0.2","","521.3000000044703","&#9761;","elianto","#3366ff99","-1","32","0","0","1375","1","0","2","6102e88e310c20d8a6144487&order=2&STUDY_ID=61bb98616f28aedf5237274a","999","","","","","","","","","",""
"pit-trial","35","214903","0.0-1.0-4.4-1.4","battery-v0.2","","492.1000000014901","&#9761;","elianto","#3366ff99","-1","32","0","0","1349.2000000029802","1","0","2","6102e88e310c20d8a6144487&order=2&STUDY_ID=61bb98616f28aedf5237274a","999","","","","","","","","","",""
"pit-trial","36","218324","0.0-1.0-4.4-2.4","battery-v0.2","","566.5","&#9761;","elianto","#3366ff99","-1","32","0","0","1417.3999999985099","1","0","2","6102e88e310c20d8a6144487&order=2&STUDY_ID=61bb98616f28aedf5237274a","999","","","","","","","","","",""
"pit-trial","37","221864","0.0-1.0-4.4-3.4","battery-v0.2","","680","&#9761;","elianto","#3366ff99","-1","32","0","0","1537.5","1","0","2","6102e88e310c20d8a6144487&order=2&STUDY_ID=61bb98616f28aedf5237274a","999","","","","","","","","","",""
"pit-trial","38","225427","0.0-1.0-4.4-4.4","battery-v0.2","","708.5999999940395","&#9761;","elianto","#3366ff99","-1","32","0","+10","1559.1999999955297","1","0","2","6102e88e310c20d8a6144487&order=2&STUDY_ID=61bb98616f28aedf5237274a","999","","","","","","","","","",""
"pit-instructions","39","243980","0.0-1.0-4.4-5.4-0.4","battery-v0.2","[{""page_index"":0,""viewing_time"":3422.10000000149},{""page_index"":1,""viewing_time"":6390.29999999702},{""page_index"":2,""viewing_time"":8738.80000000447}]","18551.60000000149","","","","","","","","","","","","","","","","","","","","","","",""
"pit-trial","40","248838","0.0-1.0-4.5-0.5","battery-v0.2","","-1","&#9761;","elianto","#3366ff99","-1","-1","1","+10","","0","0","2","6102e88e310c20d8a6144487&order=2&STUDY_ID=61bb98616f28aedf5237274a","999","","","","","","","","","",""
"pit-trial","41","253697","0.0-1.0-4.5-1.5","battery-v0.2","","-1","&#9761;","elianto","#3366ff99","-1","-1","1","+10","","0","0","2","6102e88e310c20d8a6144487&order=2&STUDY_ID=61bb98616f28aedf5237274a","999","","","","","","","","","",""
"pit-trial","42","258556","0.0-1.0-4.5-2.5","battery-v0.2","","-1","&#9761;","elianto","#3366ff99","-1","-1","1","+10","","0","0","2","6102e88e310c20d8a6144487&order=2&STUDY_ID=61bb98616f28aedf5237274a","999","","","","","","","","","",""
"pit-trial","43","263414","0.0-1.0-4.5-3.5","battery-v0.2","","-1","&#9761;","elianto","#3366ff99","-1","-1","1","+10","","0","0","2","6102e88e310c20d8a6144487&order=2&STUDY_ID=61bb98616f28aedf5237274a","999","","","","","","","","","",""
"pit-trial","44","268273","0.0-1.0-4.5-4.5","battery-v0.2","","-1","&#9761;","elianto","#3366ff99","-1","-1","1","0","","0","0","2","6102e88e310c20d8a6144487&order=2&STUDY_ID=61bb98616f28aedf5237274a","999","","","","","","","","","",""
"call-function","45","268274","0.0-1.0-5.0","battery-v0.2","","","","","","","","","","","","","","","","","","","","","","","","",""
"pit-instructions","46","279844","0.0-1.0-6.0","battery-v0.2","[{""page_index"":0,""viewing_time"":5309.5},{""page_index"":1,""viewing_time"":6258.10000000149}]","11569.5","","","","","","","","","","","","","","","","","","","","","","",""
"pit-trial","47","284701","0.0-1.0-7.0-0.0","battery-v0.2","","-1","&#9826;","elianto","#f73b6a7A","-1","-1","1","0","","0","0","3","6102e88e310c20d8a6144487&order=2&STUDY_ID=61bb98616f28aedf5237274a","999","","","","","","","","","",""
"pit-trial","48","288033","0.0-1.0-7.0-1.0","battery-v0.2","","477.19999999552965","&#9826;","elianto","#f73b6a7A","-1","32","0","-10","1329","1","0","3","6102e88e310c20d8a6144487&order=2&STUDY_ID=61bb98616f28aedf5237274a","999","","","","","","","","","",""
"pit-trial","49","291586","0.0-1.0-7.0-2.0","battery-v0.2","","697.1999999955297","&#9826;","elianto","#f73b6a7A","-1","32","0","0","1547.6999999955297","1","0","3","6102e88e310c20d8a6144487&order=2&STUDY_ID=61bb98616f28aedf5237274a","999","","","","","","","","","",""
"pit-trial","50","296444","0.0-1.0-7.0-3.0","battery-v0.2","","-1","&#9826;","elianto","#f73b6a7A","-1","-1","1","0","","0","0","3","6102e88e310c20d8a6144487&order=2&STUDY_ID=61bb98616f28aedf5237274a","999","","","","","","","","","",""
"pit-trial","51","301303","0.0-1.0-7.0-4.0","battery-v0.2","","-1","&#9826;","elianto","#f73b6a7A","-1","-1","1","0","","0","0","3","6102e88e310c20d8a6144487&order=2&STUDY_ID=61bb98616f28aedf5237274a","999","","","","","","","","","",""
"pit-trial","52","306162","0.0-1.0-7.1-0.1","battery-v0.2","","-1","&#9826;","elianto","#f73b6a7A","-1","-1","1","0","","0","0","3","6102e88e310c20d8a6144487&order=2&STUDY_ID=61bb98616f28aedf5237274a","999","","","","","","","","","",""
"pit-trial","53","311020","0.0-1.0-7.1-1.1","battery-v0.2","","-1","&#9826;","elianto","#f73b6a7A","-1","-1","1","0","","0","0","3","6102e88e310c20d8a6144487&order=2&STUDY_ID=61bb98616f28aedf5237274a","999","","","","","","","","","",""
"pit-trial","54","315879","0.0-1.0-7.1-2.1","battery-v0.2","","-1","&#9826;","elianto","#f73b6a7A","-1","-1","1","-10","","0","0","3","6102e88e310c20d8a6144487&order=2&STUDY_ID=61bb98616f28aedf5237274a","999","","","","","","","","","",""
"pit-trial","55","319752","0.0-1.0-7.1-3.1","battery-v0.2","","1017.3999999985099","&#9826;","elianto","#f73b6a7A","-1","32","0","-10","1868.3999999985099","1","0","3","6102e88e310c20d8a6144487&order=2&STUDY_ID=61bb98616f28aedf5237274a","999","","","","","","","","","",""
"pit-trial","56","323315","0.0-1.0-7.1-4.1","battery-v0.2","","708","&#9826;","elianto","#f73b6a7A","-1","32","0","-10","1558.8000000044703","1","0","3","6102e88e310c20d8a6144487&order=2&STUDY_ID=61bb98616f28aedf5237274a","999","","","","","","","","","",""
"pit-trial","57","328174","0.0-1.0-7.2-0.2","battery-v0.2","","-1","&#9826;","elianto","#f73b6a7A","-1","-1","1","0","","0","0","3","6102e88e310c20d8a6144487&order=2&STUDY_ID=61bb98616f28aedf5237274a","999","","","","","","","","","",""
"pit-trial","58","333033","0.0-1.0-7.2-1.2","battery-v0.2","","-1","&#9826;","elianto","#f73b6a7A","-1","-1","1","0","","0","0","3","6102e88e310c20d8a6144487&order=2&STUDY_ID=61bb98616f28aedf5237274a","999","","","","","","","","","",""
"pit-trial","59","337892","0.0-1.0-7.2-2.2","battery-v0.2","","-1","&#9826;","elianto","#f73b6a7A","-1","-1","1","-10","","0","0","3","6102e88e310c20d8a6144487&order=2&STUDY_ID=61bb98616f28aedf5237274a","999","","","","","","","","","",""
"pit-trial","60","342750","0.0-1.0-7.2-3.2","battery-v0.2","","-1","&#9826;","elianto","#f73b6a7A","-1","-1","1","0","","0","0","3","6102e88e310c20d8a6144487&order=2&STUDY_ID=61bb98616f28aedf5237274a","999","","","","","","","","","",""
"pit-trial","61","347609","0.0-1.0-7.2-4.2","battery-v0.2","","-1","&#9826;","elianto","#f73b6a7A","-1","-1","1","0","","0","0","3","6102e88e310c20d8a6144487&order=2&STUDY_ID=61bb98616f28aedf5237274a","999","","","","","","","","","",""
"call-function","62","347610","0.0-1.0-8.0","battery-v0.2","","","","","","","","","","","","","","","","","","","","","","","","",""
"pit-instructions","63","354087","0.0-1.0-9.0","battery-v0.2","[{""page_index"":0,""viewing_time"":4070.60000000149},{""page_index"":1,""viewing_time"":2404.1999999955297}]","6475.29999999702","","","","","","","","","","","","","","","","","","","","","","",""
"pit-trial","64","357366","0.0-1.0-10.0-0.0","battery-v0.2","","421.5","&#9789;","elianto","#f73b6a7A","32","32","1","0","1276.5","1","0","4","6102e88e310c20d8a6144487&order=2&STUDY_ID=61bb98616f28aedf5237274a","999","","","","","","","","","",""
"pit-trial","65","360780","0.0-1.0-10.0-1.0","battery-v0.2","","559.2000000029802","&#9789;","elianto","#f73b6a7A","32","32","1","0","1409.3000000044703","1","0","4","6102e88e310c20d8a6144487&order=2&STUDY_ID=61bb98616f28aedf5237274a","999","","","","","","","","","",""
"pit-trial","66","364176","0.0-1.0-10.0-2.0","battery-v0.2","","539.2999999970198","&#9789;","elianto","#f73b6a7A","32","32","1","0","1390.6999999955297","1","0","4","6102e88e310c20d8a6144487&order=2&STUDY_ID=61bb98616f28aedf5237274a","999","","","","","","","","","",""
"pit-trial","67","367659","0.0-1.0-10.0-3.0","battery-v0.2","","624.7999999970198","&#9789;","elianto","#f73b6a7A","32","32","1","0","1475.8999999985099","1","0","4","6102e88e310c20d8a6144487&order=2&STUDY_ID=61bb98616f28aedf5237274a","999","","","","","","","","","",""
"pit-trial","68","371107","0.0-1.0-10.0-4.0","battery-v0.2","","592.8999999985099","&#9789;","elianto","#f73b6a7A","32","32","1","-10","1444","1","0","4","6102e88e310c20d8a6144487&order=2&STUDY_ID=61bb98616f28aedf5237274a","999","","","","","","","","","",""
"call-function","69","371109","0.0-1.0-11.0","battery-v0.2","","","","","","","","","","","","","","","","","","","","","","","","",""
"pit-instructions","70","385844","0.0-1.0-12.0","battery-v0.2","[{""page_index"":0,""viewing_time"":2921.89999999851},{""page_index"":1,""viewing_time"":4432.79999999702},{""page_index"":2,""viewing_time"":3881.3000000044703},{""page_index"":3,""viewing_time"":2259.5},{""page_index"":4,""viewing_time"":1238.6999999955297}]","14734.59999999404","","","","","","","","","","","","","","","","","","","","","","",""
"pit-comprehension","71","389858","0.0-1.0-13.0-0.0","battery-v0.2","","4009.89999999851","","","","","","","","","","","","","","","SPACE","0","","","","","","",""
"pit-instructions","72","392304","0.0-1.0-13.0-1.0","battery-v0.2","[{""page_index"":0,""viewing_time"":2408.60000000149}]","2409.10000000149","","","","","","","","","","","","","","","","","","","","","","",""
"pit-comprehension","73","397397","0.0-1.0-14.0-0.0","battery-v0.2","","5089.5","","","","","","","","","","","","","","","10","0","","","","","","",""
"pit-instructions","74","398570","0.0-1.0-14.0-1.0","battery-v0.2","[{""page_index"":0,""viewing_time"":1142.7999999970198}]","1143.2999999970198","","","","","","","","","","","","","","","","","","","","","","",""
"pit-comprehension","75","401674","0.0-1.0-15.0-0.0","battery-v0.2","","3100.2000000029802","","","","","","","","","","","","","","","-10","1","","","","","","",""
"pit-instructions","76","407775","0.0-1.0-15.0-1.0","battery-v0.2","[{""page_index"":0,""viewing_time"":6075.5}]","6075.89999999851","","","","","","","","","","","","","","","","","","","","","","",""
"pit-instructions","77","408949","0.0-1.0-15.0-2.0-0.0","battery-v0.2","[{""page_index"":0,""viewing_time"":1171.5}]","1172.1000000014901","","","","","","","","","","","","","","","","","","","","","","",""
"pit-comprehension","78","413546","0.0-1.0-15.1-0.1","battery-v0.2","","4591.89999999851","","","","","","","","","","","","","","","0","0","","","","","","",""
"pit-instructions","79","414601","0.0-1.0-15.1-1.1","battery-v0.2","[{""page_index"":0,""viewing_time"":1022.3999999985099}]","1023","","","","","","","","","","","","","","","","","","","","","","",""
"pit-comprehension","80","419413","0.0-1.0-16.0-0.0","battery-v0.2","","4809","","","","","","","","","","","","","","","True","0","","","","","","",""
"pit-instructions","81","420410","0.0-1.0-16.0-1.0","battery-v0.2","[{""page_index"":0,""viewing_time"":970.2999999970198}]","970.6999999955297","","","","","","","","","","","","","","","","","","","","","","",""
"pit-comprehension","82","425080","0.0-1.0-17.0-0.0","battery-v0.2","","4664","","","","","","","","","","","","","","","True","0","","","","","","",""
"pit-instructions","83","426181","0.0-1.0-17.0-1.0","battery-v0.2","[{""page_index"":0,""viewing_time"":1065.6000000014901}]","1066.2000000029802","","","","","","","","","","","","","","","","","","","","","","",""
"pit-comprehension","84","430316","0.0-1.0-18.0-0.0","battery-v0.2","","4130.5","","","","","","","","","","","","","","","True","0","","","","","","",""
"pit-instructions","85","431266","0.0-1.0-18.0-1.0","battery-v0.2","[{""page_index"":0,""viewing_time"":919.7999999970198}]","920.5","","","","","","","","","","","","","","","","","","","","","","",""
"pit-instructions","86","437288","0.0-2.0","battery-v0.2","[{""page_index"":0,""viewing_time"":2150},{""page_index"":1,""viewing_time"":1733.6000000014901},{""page_index"":2,""viewing_time"":2135.6999999955297}]","6019.79999999702","","","","","","","","","","","","","","","","","","","","","","",""
"pit-trial","87","441149","0.0-3.0","battery-v0.2","","999","&#9730;","elianto","#3366ff99","32","32","1","+10","1849.7999999970198","1","1","","","","","","","6102e88e310c20d8a6144487&order=2&STUDY_ID=61bb98616f28aedf5237274a","1","1","1","win","go","0"
"pit-trial","88","444975","0.0-4.0","battery-v0.2","","967.7999999970198","&#9752;","elianto","#f73b6a7A","32","32","1","0","1819","1","1","","","","","","","6102e88e310c20d8a6144487&order=2&STUDY_ID=61bb98616f28aedf5237274a","2","3","3","lose","go","0"
"pit-trial","89","449833","0.0-5.0","battery-v0.2","","-1","&#9728;","elianto","#f73b6a7A","-1","-1","1","-10","","0","1","","","","","","","6102e88e310c20d8a6144487&order=2&STUDY_ID=61bb98616f28aedf5237274a","3","0","4","lose","no-go","1"
"pit-trial","90","453577","0.0-6.0","battery-v0.2","","885.8999999985099","&#9733;","elianto","#3366ff99","-1","32","0","0","1736.7999999970198","1","1","","","","","","","6102e88e310c20d8a6144487&order=2&STUDY_ID=61bb98616f28aedf5237274a","4","2","2","win","no-go","0"
"pit-trial","91","457722","0.0-7.0","battery-v0.2","","1287.6999999955297","&#9752;","elianto","#f73b6a7A","32","32","1","0","2140.89999999851","1","1","","","","","","","6102e88e310c20d8a6144487&order=2&STUDY_ID=61bb98616f28aedf5237274a","5","3","3","lose","go","0"
"pit-trial","92","461458","0.0-8.0","battery-v0.2","","879.1999999955297","&#9728;","elianto","#f73b6a7A","-1","32","0","-10","1730.7999999970198","1","1","","","","","","","6102e88e310c20d8a6144487&order=2&STUDY_ID=61bb98616f28aedf5237274a","6","0","4","lose","no-go","0"
"pit-trial","93","464955","0.0-9.0","battery-v0.2","","632.3000000044703","&#9733;","elianto","#3366ff99","-1","32","0","+10","1493.2000000029802","1","1","","","","","","","6102e88e310c20d8a6144487&order=2&STUDY_ID=61bb98616f28aedf5237274a","7","2","2","win","no-go","1"
"pit-trial","94","469813","0.0-10.0","battery-v0.2","","-1","&#9730;","elianto","#3366ff99","32","-1","0","0","","0","1","","","","","","","6102e88e310c20d8a6144487&order=2&STUDY_ID=61bb98616f28aedf5237274a","8","1","1","win","go","0"
"pit-trial","95","474672","0.0-11.0","battery-v0.2","","-1","&#9728;","elianto","#f73b6a7A","-1","-1","1","0","","0","1","","","","","","","6102e88e310c20d8a6144487&order=2&STUDY_ID=61bb98616f28aedf5237274a","9","0","4","lose","no-go","0"
"pit-trial","96","478365","0.0-12.0","battery-v0.2","","838.6999999955297","&#9733;","elianto","#3366ff99","-1","32","0","0","1689.3999999985099","1","1","","","","","","","6102e88e310c20d8a6144487&order=2&STUDY_ID=61bb98616f28aedf5237274a","10","2","2","win","no-go","0"
"pit-trial","97","482160","0.0-13.0","battery-v0.2","","937.5","&#9752;","elianto","#f73b6a7A","32","32","1","0","1788.2000000029802","1","1","","","","","","","6102e88e310c20d8a6144487&order=2&STUDY_ID=61bb98616f28aedf5237274a","11","3","3","lose","go","0"
"pit-trial","98","486096","0.0-14.0","battery-v0.2","","1080.1000000014901","&#9730;","elianto","#3366ff99","32","32","1","+10","1930.1999999955297","1","1","","","","","","","6102e88e310c20d8a6144487&order=2&STUDY_ID=61bb98616f28aedf5237274a","12","1","1","win","go","0"
"pit-trial","99","490955","0.0-15.0","battery-v0.2","","-1","&#9728;","elianto","#f73b6a7A","-1","-1","1","0","","0","1","","","","","","","6102e88e310c20d8a6144487&order=2&STUDY_ID=61bb98616f28aedf5237274a","13","0","4","lose","no-go","0"
"pit-trial","100","495815","0.0-16.0","battery-v0.2","","-1","&#9733;","elianto","#3366ff99","-1","-1","1","0","","0","1","","","","","","","6102e88e310c20d8a6144487&order=2&STUDY_ID=61bb98616f28aedf5237274a","14","2","2","win","no-go","1"
"pit-trial","101","499639","0.0-17.0","battery-v0.2","","968.6000000014901","&#9730;","elianto","#3366ff99","32","32","1","+10","1818.8000000044703","1","1","","","","","","","6102e88e310c20d8a6144487&order=2&STUDY_ID=61bb98616f28aedf5237274a","15","1","1","win","go","0"
"pit-trial","102","503227","0.0-18.0","battery-v0.2","","727","&#9752;","elianto","#f73b6a7A","32","32","1","-10","1579.6999999955297","1","1","","","","","","","6102e88e310c20d8a6144487&order=2&STUDY_ID=61bb98616f28aedf5237274a","16","3","3","lose","go","1"
"pit-trial","103","508085","0.0-19.0","battery-v0.2","","-1","&#9728;","elianto","#f73b6a7A","-1","-1","1","0","","0","1","","","","","","","6102e88e310c20d8a6144487&order=2&STUDY_ID=61bb98616f28aedf5237274a","17","0","4","lose","no-go","0"
"pit-trial","104","512944","0.0-20.0","battery-v0.2","","-1","&#9752;","elianto","#f73b6a7A","32","-1","0","-10","3971.1999999955297","1","1","","","","","","","6102e88e310c20d8a6144487&order=2&STUDY_ID=61bb98616f28aedf5237274a","18","3","3","lose","go","0"
"pit-trial","105","516700","0.0-21.0","battery-v0.2","","893.7999999970198","&#9730;","elianto","#3366ff99","32","32","1","+10","1750.6999999955297","1","1","","","","","","","6102e88e310c20d8a6144487&order=2&STUDY_ID=61bb98616f28aedf5237274a","19","1","1","win","go","0"
"pit-trial","106","520798","0.0-22.0","battery-v0.2","","1240.2999999970198","&#9733;","elianto","#3366ff99","-1","32","0","0","2091.7000000029802","1","1","","","","","","","6102e88e310c20d8a6144487&order=2&STUDY_ID=61bb98616f28aedf5237274a","20","2","2","win","no-go","0"
"pit-instructions","107","525239","0.0-23.0","battery-v0.2","[{""page_index"":0,""viewing_time"":2270.2000000029802},{""page_index"":1,""viewing_time"":2168.39999999851}]","4439.30000000447","","","","","","","","","","","","","","","","","","","","","","",""
"pit-trial","108","529012","0.0-24.0","battery-v0.2","","911.8999999985099","y","elianto","#f73b6a7A","-1","32","0","0","1764.5","1","2","","","","","","","6102e88e310c20d8a6144487&order=2&STUDY_ID=61bb98616f28aedf5237274a","21","2","4","lose","no-go","1"
"pit-trial","109","532565","0.0-25.0","battery-v0.2","","695.1999999955297","h","elianto","#3366ff99","32","32","1","0","1546.6000000014901","1","2","","","","","","","6102e88e310c20d8a6144487&order=2&STUDY_ID=61bb98616f28aedf5237274a","22","3","1","win","go","1"
"pit-trial","110","536146","0.0-26.0","battery-v0.2","","723.6000000014901","r","elianto","#f73b6a7A","32","32","1","0","1574.7999999970198","1","2","","","","","","","6102e88e310c20d8a6144487&order=2&STUDY_ID=61bb98616f28aedf5237274a","23","1","3","lose","go","0"
"pit-trial","111","539559","0.0-27.0","battery-v0.2","","554.7999999970198","m","elianto","#3366ff99","-1","32","0","+10","1406.5999999940395","1","2","","","","","","","6102e88e310c20d8a6144487&order=2&STUDY_ID=61bb98616f28aedf5237274a","24","0","2","win","no-go","1"
"pit-trial","112","543043","0.0-28.0","battery-v0.2","","626.1000000014901","r","elianto","#f73b6a7A","32","32","1","-10","1476.5","1","2","","","","","","","6102e88e310c20d8a6144487&order=2&STUDY_ID=61bb98616f28aedf5237274a","25","1","3","lose","go","1"
"pit-trial","113","546595","0.0-29.0","battery-v0.2","","698","h","elianto","#3366ff99","32","32","1","+10","1549","1","2","","","","","","","6102e88e310c20d8a6144487&order=2&STUDY_ID=61bb98616f28aedf5237274a","26","3","1","win","go","0"
"pit-trial","114","550368","0.0-30.0","battery-v0.2","","913.5","y","elianto","#f73b6a7A","-1","32","0","-10","1766.8000000044703","1","2","","","","","","","6102e88e310c20d8a6144487&order=2&STUDY_ID=61bb98616f28aedf5237274a","27","2","4","lose","no-go","0"
"pit-trial","115","553944","0.0-31.0","battery-v0.2","","717","m","elianto","#3366ff99","-1","32","0","0","1569.1000000014901","1","2","","","","","","","6102e88e310c20d8a6144487&order=2&STUDY_ID=61bb98616f28aedf5237274a","28","0","2","win","no-go","0"
"pit-trial","116","557555","0.0-32.0","battery-v0.2","","746.8999999985099","h","elianto","#3366ff99","32","32","1","+10","1604.3999999985099","1","2","","","","","","","6102e88e310c20d8a6144487&order=2&STUDY_ID=61bb98616f28aedf5237274a","29","3","1","win","go","0"
"pit-trial","117","561299","0.0-33.0","battery-v0.2","","885.8999999985099","m","elianto","#3366ff99","-1","32","0","0","1740.2000000029802","1","2","","","","","","","6102e88e310c20d8a6144487&order=2&STUDY_ID=61bb98616f28aedf5237274a","30","0","2","win","no-go","0"
"pit-trial","118","566157","0.0-34.0","battery-v0.2","","-1","y","elianto","#f73b6a7A","-1","-1","1","0","","0","2","","","","","","","6102e88e310c20d8a6144487&order=2&STUDY_ID=61bb98616f28aedf5237274a","31","2","4","lose","no-go","0"
"pit-trial","119","571016","0.0-35.0","battery-v0.2","","-1","r","elianto","#f73b6a7A","32","-1","0","-10","","0","2","","","","","","","6102e88e310c20d8a6144487&order=2&STUDY_ID=61bb98616f28aedf5237274a","32","1","3","lose","go","0"
"pit-trial","120","575875","0.0-36.0","battery-v0.2","","-1","y","elianto","#f73b6a7A","-1","-1","1","0","","0","2","","","","","","","6102e88e310c20d8a6144487&order=2&STUDY_ID=61bb98616f28aedf5237274a","33","2","4","lose","no-go","0"
"pit-trial","121","579694","0.0-37.0","battery-v0.2","","960.5999999940395","r","elianto","#f73b6a7A","32","32","1","0","1811.6999999955297","1","2","","","","","","","6102e88e310c20d8a6144487&order=2&STUDY_ID=61bb98616f28aedf5237274a","34","1","3","lose","go","0"
"pit-trial","122","583369","0.0-38.0","battery-v0.2","","819.8999999985099","h","elianto","#3366ff99","32","32","1","0","1670.2999999970198","1","2","","","","","","","6102e88e310c20d8a6144487&order=2&STUDY_ID=61bb98616f28aedf5237274a","35","3","1","win","go","1"
"pit-trial","123","586893","0.0-39.0","battery-v0.2","","666.7999999970198","m","elianto","#3366ff99","-1","32","0","+10","1517.2000000029802","1","2","","","","","","","6102e88e310c20d8a6144487&order=2&STUDY_ID=61bb98616f28aedf5237274a","36","0","2","win","no-go","1"
"pit-trial","124","590747","0.0-40.0","battery-v0.2","","996.8000000044703","r","elianto","#f73b6a7A","32","32","1","0","1848.2000000029802","1","2","","","","","","","6102e88e310c20d8a6144487&order=2&STUDY_ID=61bb98616f28aedf5237274a","37","1","3","lose","go","0"
"pit-trial","125","595606","0.0-41.0","battery-v0.2","","-1","y","elianto","#f73b6a7A","-1","-1","1","0","","0","2","","","","","","","6102e88e310c20d8a6144487&order=2&STUDY_ID=61bb98616f28aedf5237274a","38","2","4","lose","no-go","0"
"pit-trial","126","599181","0.0-42.0","battery-v0.2","","717.7000000029802","h","elianto","#3366ff99","32","32","1","+10","1568.8000000044703","1","2","","","","","","","6102e88e310c20d8a6144487&order=2&STUDY_ID=61bb98616f28aedf5237274a","39","3","1","win","go","0"
"pit-trial","127","602699","0.0-43.0","battery-v0.2","","662.6999999955297","m","elianto","#3366ff99","-1","32","0","0","1513.1000000014901","1","2","","","","","","","6102e88e310c20d8a6144487&order=2&STUDY_ID=61bb98616f28aedf5237274a","40","0","2","win","no-go","0"
"pit-trial","128","606304","0.0-44.0","battery-v0.2","","747.8999999985099","m","elianto","#3366ff99","-1","32","0","0","1599.3000000044703","1","2","","","","","","","6102e88e310c20d8a6144487&order=2&STUDY_ID=61bb98616f28aedf5237274a","41","0","2","win","no-go","0"
"pit-trial","129","610280","0.0-45.0","battery-v0.2","","1118.3000000044703","r","elianto","#f73b6a7A","32","32","1","0","1968.7000000029802","1","2","","","","","","","6102e88e310c20d8a6144487&order=2&STUDY_ID=61bb98616f28aedf5237274a","42","1","3","lose","go","0"
"pit-trial","130","615139","0.0-46.0","battery-v0.2","","-1","y","elianto","#f73b6a7A","-1","-1","1","0","","0","2","","","","","","","6102e88e310c20d8a6144487&order=2&STUDY_ID=61bb98616f28aedf5237274a","43","2","4","lose","no-go","0"
"pit-trial","131","618773","0.0-47.0","battery-v0.2","","778.1999999955297","h","elianto","#3366ff99","32","32","1","+10","1628.8999999985099","1","2","","","","","","","6102e88e310c20d8a6144487&order=2&STUDY_ID=61bb98616f28aedf5237274a","44","3","1","win","go","0"
"pit-trial","132","622251","0.0-48.0","battery-v0.2","","621.8999999985099","m","elianto","#3366ff99","-1","32","0","0","1472.8999999985099","1","2","","","","","","","6102e88e310c20d8a6144487&order=2&STUDY_ID=61bb98616f28aedf5237274a","45","0","2","win","no-go","0"
"pit-trial","133","626087","0.0-49.0","battery-v0.2","","979.1999999955297","r","elianto","#f73b6a7A","32","32","1","0","1830","1","2","","","","","","","6102e88e310c20d8a6144487&order=2&STUDY_ID=61bb98616f28aedf5237274a","46","1","3","lose","go","0"
"pit-trial","134","630946","0.0-50.0","battery-v0.2","","-1","y","elianto","#f73b6a7A","-1","-1","1","-10","","0","2","","","","","","","6102e88e310c20d8a6144487&order=2&STUDY_ID=61bb98616f28aedf5237274a","47","2","4","lose","no-go","1"
"pit-trial","135","634423","0.0-51.0","battery-v0.2","","619.6999999955297","h","elianto","#3366ff99","32","32","1","0","1470.2999999970198","1","2","","","","","","","6102e88e310c20d8a6144487&order=2&STUDY_ID=61bb98616f28aedf5237274a","48","3","1","win","go","1"
"pit-trial","136","637930","0.0-52.0","battery-v0.2","","644.3999999985099","m","elianto","#3366ff99","-1","32","0","0","1498.7000000029802","1","2","","","","","","","6102e88e310c20d8a6144487&order=2&STUDY_ID=61bb98616f28aedf5237274a","49","0","2","win","no-go","0"
"pit-trial","137","641396","0.0-53.0","battery-v0.2","","611.7999999970198","h","elianto","#3366ff99","32","32","1","+10","1462","1","2","","","","","","","6102e88e310c20d8a6144487&order=2&STUDY_ID=61bb98616f28aedf5237274a","50","3","1","win","go","0"
"pit-trial","138","645516","0.0-54.0","battery-v0.2","","1263.1000000014901","y","elianto","#f73b6a7A","-1","32","0","-10","2113.2000000029802","1","2","","","","","","","6102e88e310c20d8a6144487&order=2&STUDY_ID=61bb98616f28aedf5237274a","51","2","4","lose","no-go","0"
"pit-trial","139","649574","0.0-55.0","battery-v0.2","","1200.3999999985099","r","elianto","#f73b6a7A","32","32","1","0","2051.0999999940395","1","2","","","","","","","6102e88e310c20d8a6144487&order=2&STUDY_ID=61bb98616f28aedf5237274a","52","1","3","lose","go","0"
"pit-trial","140","654433","0.0-56.0","battery-v0.2","","-1","y","elianto","#f73b6a7A","-1","-1","1","-10","","0","2","","","","","","","6102e88e310c20d8a6144487&order=2&STUDY_ID=61bb98616f28aedf5237274a","53","2","4","lose","no-go","1"
"pit-trial","141","658258","0.0-57.0","battery-v0.2","","967.4000000059605","z","elianto","#f73b6a7A","32","32","1","0","1817.9000000059605","1","2","","","","","","","6102e88e310c20d8a6144487&order=2&STUDY_ID=61bb98616f28aedf5237274a","54","4","3","lose","go","0"
"pit-trial","142","662200","0.0-58.0","battery-v0.2","","1088.1000000014901","r","elianto","#f73b6a7A","32","32","1","0","1938.3999999985099","1","2","","","","","","","6102e88e310c20d8a6144487&order=2&STUDY_ID=61bb98616f28aedf5237274a","55","1","3","lose","go","0"
"pit-trial","143","666188","0.0-59.0","battery-v0.2","","1127.5","c","elianto","#f73b6a7A","-1","32","0","-10","1982.7000000029802","1","2","","","","","","","6102e88e310c20d8a6144487&order=2&STUDY_ID=61bb98616f28aedf5237274a","56","5","4","lose","no-go","0"
"pit-trial","144","669984","0.0-60.0","battery-v0.2","","940.7999999970198","r","elianto","#f73b6a7A","32","32","1","-10","1792.5","1","2","","","","","","","6102e88e310c20d8a6144487&order=2&STUDY_ID=61bb98616f28aedf5237274a","57","1","3","lose","go","1"
"pit-trial","145","673769","0.0-61.0","battery-v0.2","","926","z","elianto","#f73b6a7A","32","32","1","0","1777.5","1","2","","","","","","","6102e88e310c20d8a6144487&order=2&STUDY_ID=61bb98616f28aedf5237274a","58","4","3","lose","go","0"
"pit-trial","146","677937","0.0-62.0","battery-v0.2","","1310.8999999985099","y","elianto","#f73b6a7A","-1","32","0","-10","2162.2999999970198","1","2","","","","","","","6102e88e310c20d8a6144487&order=2&STUDY_ID=61bb98616f28aedf5237274a","59","2","4","lose","no-go","0"
"pit-trial","147","681472","0.0-63.0","battery-v0.2","","680.5","c","elianto","#f73b6a7A","-1","32","0","0","1532.1999999955297","1","2","","","","","","","6102e88e310c20d8a6144487&order=2&STUDY_ID=61bb98616f28aedf5237274a","60","5","4","lose","no-go","1"
"pit-trial","148","684438","0.0-64.0","battery-v0.2","","111","b","elianto","#3366ff99","-1","32","0","0","963.7999999970198","1","2","","","","","","","6102e88e310c20d8a6144487&order=2&STUDY_ID=61bb98616f28aedf5237274a","61","6","2","win","no-go","0"
"pit-trial","149","687875","0.0-65.0","battery-v0.2","","582.6000000014901","z","elianto","#f73b6a7A","32","32","1","-10","1432.8000000044703","1","2","","","","","","","6102e88e310c20d8a6144487&order=2&STUDY_ID=61bb98616f28aedf5237274a","62","4","3","lose","go","1"
"pit-trial","150","691090","0.0-66.0","battery-v0.2","","358.70000000298023","y","elianto","#f73b6a7A","-1","32","0","-10","1209.3999999985099","1","2","","","","","","","6102e88e310c20d8a6144487&order=2&STUDY_ID=61bb98616f28aedf5237274a","63","2","4","lose","no-go","0"
"pit-trial","151","694503","0.0-67.0","battery-v0.2","","558.8000000044703","c","elianto","#f73b6a7A","-1","32","0","-10","1409.2000000029802","1","2","","","","","","","6102e88e310c20d8a6144487&order=2&STUDY_ID=61bb98616f28aedf5237274a","64","5","4","lose","no-go","0"
"pit-trial","152","698132","0.0-68.0","battery-v0.2","","771.6000000014901","b","elianto","#3366ff99","-1","32","0","0","1622.7000000029802","1","2","","","","","","","6102e88e310c20d8a6144487&order=2&STUDY_ID=61bb98616f28aedf5237274a","65","6","2","win","no-go","0"
"pit-trial","153","702991","0.0-69.0","battery-v0.2","","-1","c","elianto","#f73b6a7A","-1","-1","1","0","","0","2","","","","","","","6102e88e310c20d8a6144487&order=2&STUDY_ID=61bb98616f28aedf5237274a","66","5","4","lose","no-go","0"
"pit-trial","154","707849","0.0-70.0","battery-v0.2","","-1","y","elianto","#f73b6a7A","-1","-1","1","0","","0","2","","","","","","","6102e88e310c20d8a6144487&order=2&STUDY_ID=61bb98616f28aedf5237274a","67","2","4","lose","no-go","0"
"pit-trial","155","712710","0.0-71.0","battery-v0.2","","-1","z","elianto","#f73b6a7A","32","-1","0","-10","","0","2","","","","","","","6102e88e310c20d8a6144487&order=2&STUDY_ID=61bb98616f28aedf5237274a","68","4","3","lose","go","0"
"pit-trial","156","716313","0.0-72.0","battery-v0.2","","747","t","elianto","#3366ff99","32","32","1","+10","1597.5999999940395","1","2","","","","","","","6102e88e310c20d8a6144487&order=2&STUDY_ID=61bb98616f28aedf5237274a","69","7","1","win","go","0"
"pit-trial","157","719883","0.0-73.0","battery-v0.2","","713.1000000014901","b","elianto","#3366ff99","-1","32","0","0","1563.1999999955297","1","2","","","","","","","6102e88e310c20d8a6144487&order=2&STUDY_ID=61bb98616f28aedf5237274a","70","6","2","win","no-go","0"
"pit-trial","158","723874","0.0-74.0","battery-v0.2","","1132.6000000014901","z","elianto","#f73b6a7A","32","32","1","0","1983.4000000059605","1","2","","","","","","","6102e88e310c20d8a6144487&order=2&STUDY_ID=61bb98616f28aedf5237274a","71","4","3","lose","go","0"
"pit-trial","159","728341","0.0-75.0","battery-v0.2","","1605","c","elianto","#f73b6a7A","-1","32","0","-10","2459.2999999970198","1","2","","","","","","","6102e88e310c20d8a6144487&order=2&STUDY_ID=61bb98616f28aedf5237274a","72","5","4","lose","no-go","0"
"pit-trial","160","732542","0.0-76.0","battery-v0.2","","1344.3999999985099","z","elianto","#f73b6a7A","32","32","1","-10","2194.89999999851","1","2","","","","","","","6102e88e310c20d8a6144487&order=2&STUDY_ID=61bb98616f28aedf5237274a","73","4","3","lose","go","1"
"pit-trial","161","736038","0.0-77.0","battery-v0.2","","637.8000000044703","t","elianto","#3366ff99","32","32","1","+10","1490.8999999985099","1","2","","","","","","","6102e88e310c20d8a6144487&order=2&STUDY_ID=61bb98616f28aedf5237274a","74","7","1","win","go","0"
"pit-trial","162","739956","0.0-78.0","battery-v0.2","","1063.3999999985099","c","elianto","#f73b6a7A","-1","32","0","-10","1914.1999999955297","1","2","","","","","","","6102e88e310c20d8a6144487&order=2&STUDY_ID=61bb98616f28aedf5237274a","75","5","4","lose","no-go","0"
"pit-trial","163","743544","0.0-79.0","battery-v0.2","","728.3000000044703","b","elianto","#3366ff99","-1","32","0","0","1581.6000000014901","1","2","","","","","","","6102e88e310c20d8a6144487&order=2&STUDY_ID=61bb98616f28aedf5237274a","76","6","2","win","no-go","0"
"pit-trial","164","748402","0.0-80.0","battery-v0.2","","-1","c","elianto","#f73b6a7A","-1","-1","1","0","","0","2","","","","","","","6102e88e310c20d8a6144487&order=2&STUDY_ID=61bb98616f28aedf5237274a","77","5","4","lose","no-go","0"
"pit-trial","165","753261","0.0-81.0","battery-v0.2","","-1","z","elianto","#f73b6a7A","32","-1","0","-10","","0","2","","","","","","","6102e88e310c20d8a6144487&order=2&STUDY_ID=61bb98616f28aedf5237274a","78","4","3","lose","go","0"
"pit-trial","166","756792","0.0-82.0","battery-v0.2","","676.6000000014901","b","elianto","#3366ff99","-1","32","0","+10","1526.8999999985099","1","2","","","","","","","6102e88e310c20d8a6144487&order=2&STUDY_ID=61bb98616f28aedf5237274a","79","6","2","win","no-go","1"
"pit-trial","167","761179","0.0-83.0","battery-v0.2","","1531.3999999985099","t","elianto","#3366ff99","32","32","1","+10","2382.39999999851","1","2","","","","","","","6102e88e310c20d8a6144487&order=2&STUDY_ID=61bb98616f28aedf5237274a","80","7","1","win","go","0"
"pit-trial","168","764650","0.0-84.0","battery-v0.2","","614.1000000014901","b","elianto","#3366ff99","-1","32","0","0","1465.5","1","2","","","","","","","6102e88e310c20d8a6144487&order=2&STUDY_ID=61bb98616f28aedf5237274a","81","6","2","win","no-go","0"
"pit-trial","169","769509","0.0-85.0","battery-v0.2","","-1","c","elianto","#f73b6a7A","-1","-1","1","0","","0","2","","","","","","","6102e88e310c20d8a6144487&order=2&STUDY_ID=61bb98616f28aedf5237274a","82","5","4","lose","no-go","0"
"pit-trial","170","772997","0.0-86.0","battery-v0.2","","634.2000000029802","t","elianto","#3366ff99","32","32","1","0","1485.3000000044703","1","2","","","","","","","6102e88e310c20d8a6144487&order=2&STUDY_ID=61bb98616f28aedf5237274a","83","7","1","win","go","1"
"pit-trial","171","777856","0.0-87.0","battery-v0.2","","-1","z","elianto","#f73b6a7A","32","-1","0","-10","","0","2","","","","","","","6102e88e310c20d8a6144487&order=2&STUDY_ID=61bb98616f28aedf5237274a","84","4","3","lose","go","0"
"pit-trial","172","782715","0.0-88.0","battery-v0.2","","-1","c","elianto","#f73b6a7A","-1","-1","1","0","","0","2","","","","","","","6102e88e310c20d8a6144487&order=2&STUDY_ID=61bb98616f28aedf5237274a","85","5","4","lose","no-go","0"
"pit-trial","173","786598","0.0-89.0","battery-v0.2","","1028.3999999985099","b","elianto","#3366ff99","-1","32","0","0","1879.6000000014901","1","2","","","","","","","6102e88e310c20d8a6144487&order=2&STUDY_ID=61bb98616f28aedf5237274a","86","6","2","win","no-go","0"
"pit-trial","174","790285","0.0-90.0","battery-v0.2","","825","t","elianto","#3366ff99","32","32","1","0","1678.7999999970198","1","2","","","","","","","6102e88e310c20d8a6144487&order=2&STUDY_ID=61bb98616f28aedf5237274a","87","7","1","win","go","1"
"pit-trial","175","795143","0.0-91.0","battery-v0.2","","-1","z","elianto","#f73b6a7A","32","-1","0","-10","","0","2","","","","","","","6102e88e310c20d8a6144487&order=2&STUDY_ID=61bb98616f28aedf5237274a","88","4","3","lose","go","0"
"pit-trial","176","800002","0.0-92.0","battery-v0.2","","-1","z","elianto","#f73b6a7A","32","-1","0","-10","","0","2","","","","","","","6102e88e310c20d8a6144487&order=2&STUDY_ID=61bb98616f28aedf5237274a","89","4","3","lose","go","0"
"pit-trial","177","803532","0.0-93.0","battery-v0.2","","676.3999999985099","t","elianto","#3366ff99","32","32","1","0","1527.2000000029802","1","2","","","","","","","6102e88e310c20d8a6144487&order=2&STUDY_ID=61bb98616f28aedf5237274a","90","7","1","win","go","1"
"pit-trial","178","807096","0.0-94.0","battery-v0.2","","706.7000000029802","b","elianto","#3366ff99","-1","32","0","0","1557","1","2","","","","","","","6102e88e310c20d8a6144487&order=2&STUDY_ID=61bb98616f28aedf5237274a","91","6","2","win","no-go","0"
"pit-trial","179","811954","0.0-95.0","battery-v0.2","","-1","c","elianto","#f73b6a7A","-1","-1","1","0","","0","2","","","","","","","6102e88e310c20d8a6144487&order=2&STUDY_ID=61bb98616f28aedf5237274a","92","5","4","lose","no-go","0"
"pit-trial","180","815722","0.0-96.0","battery-v0.2","","909.6000000014901","x","elianto","#3366ff99","32","32","1","+10","1760.1000000014901","1","2","","","","","","","6102e88e310c20d8a6144487&order=2&STUDY_ID=61bb98616f28aedf5237274a","93","8","1","win","go","0"
"pit-trial","181","819321","0.0-97.0","battery-v0.2","","744.5","t","elianto","#3366ff99","32","32","1","0","1595.5","1","2","","","","","","","6102e88e310c20d8a6144487&order=2&STUDY_ID=61bb98616f28aedf5237274a","94","7","1","win","go","1"
"pit-trial","182","823117","0.0-98.0","battery-v0.2","","940.6000000014901","b","elianto","#3366ff99","-1","32","0","0","1791.8000000044703","1","2","","","","","","","6102e88e310c20d8a6144487&order=2&STUDY_ID=61bb98616f28aedf5237274a","95","6","2","win","no-go","0"
"pit-trial","183","827761","0.0-99.0","battery-v0.2","","1787","z","elianto","#f73b6a7A","32","32","1","0","2638.5","1","2","","","","","","","6102e88e310c20d8a6144487&order=2&STUDY_ID=61bb98616f28aedf5237274a","96","4","3","lose","go","0"
"pit-trial","184","831447","0.0-100.0","battery-v0.2","","829.9000000059605","z","elianto","#f73b6a7A","32","32","1","0","1681.3999999985099","1","2","","","","","","","6102e88e310c20d8a6144487&order=2&STUDY_ID=61bb98616f28aedf5237274a","97","4","3","lose","go","0"
"pit-trial","185","834977","0.0-101.0","battery-v0.2","","674.8999999985099","t","elianto","#3366ff99","32","32","1","+10","1526.2999999970198","1","2","","","","","","","6102e88e310c20d8a6144487&order=2&STUDY_ID=61bb98616f28aedf5237274a","98","7","1","win","go","0"
"pit-trial","186","838502","0.0-102.0","battery-v0.2","","662.6000000014901","b","elianto","#3366ff99","-1","32","0","0","1520.7999999970198","1","2","","","","","","","6102e88e310c20d8a6144487&order=2&STUDY_ID=61bb98616f28aedf5237274a","99","6","2","win","no-go","0"
"pit-trial","187","841952","0.0-103.0","battery-v0.2","","593.7999999970198","x","elianto","#3366ff99","32","32","1","+10","1444","1","2","","","","","","","6102e88e310c20d8a6144487&order=2&STUDY_ID=61bb98616f28aedf5237274a","100","8","1","win","go","0"
"pit-trial","188","845989","0.0-104.0","battery-v0.2","","1181.3999999985099","b","elianto","#3366ff99","-1","32","0","0","2031.8999999985099","1","2","","","","","","","6102e88e310c20d8a6144487&order=2&STUDY_ID=61bb98616f28aedf5237274a","101","6","2","win","no-go","0"
"pit-trial","189","849675","0.0-105.0","battery-v0.2","","828.3999999985099","x","elianto","#3366ff99","32","32","1","+10","1678.3999999985099","1","2","","","","","","","6102e88e310c20d8a6144487&order=2&STUDY_ID=61bb98616f28aedf5237274a","102","8","1","win","go","0"
"pit-trial","190","853169","0.0-106.0","battery-v0.2","","637.2999999970198","f","elianto","#3366ff99","-1","32","0","0","1487.6000000014901","1","2","","","","","","","6102e88e310c20d8a6144487&order=2&STUDY_ID=61bb98616f28aedf5237274a","103","9","2","win","no-go","0"
"pit-trial","191","856629","0.0-107.0","battery-v0.2","","606.6000000014901","t","elianto","#3366ff99","32","32","1","0","1456.8999999985099","1","2","","","","","","","6102e88e310c20d8a6144487&order=2&STUDY_ID=61bb98616f28aedf5237274a","104","7","1","win","go","1"
"pit-trial","192","860106","0.0-108.0","battery-v0.2","","623","b","elianto","#3366ff99","-1","32","0","0","1474.2000000029802","1","2","","","","","","","6102e88e310c20d8a6144487&order=2&STUDY_ID=61bb98616f28aedf5237274a","105","6","2","win","no-go","0"
"pit-trial","193","863531","0.0-109.0","battery-v0.2","","566.6000000014901","x","elianto","#3366ff99","32","32","1","0","1417.1999999955297","1","2","","","","","","","6102e88e310c20d8a6144487&order=2&STUDY_ID=61bb98616f28aedf5237274a","106","8","1","win","go","1"
"pit-trial","194","866927","0.0-110.0","battery-v0.2","","541","t","elianto","#3366ff99","32","32","1","+10","1392","1","2","","","","","","","6102e88e310c20d8a6144487&order=2&STUDY_ID=61bb98616f28aedf5237274a","107","7","1","win","go","0"
"pit-trial","195","870526","0.0-111.0","battery-v0.2","","741.2999999970198","f","elianto","#3366ff99","-1","32","0","0","1592","1","2","","","","","","","6102e88e310c20d8a6144487&order=2&STUDY_ID=61bb98616f28aedf5237274a","108","9","2","win","no-go","0"
"pit-trial","196","875385","0.0-112.0","battery-v0.2","","-1","f","elianto","#3366ff99","-1","-1","1","0","","0","2","","","","","","","6102e88e310c20d8a6144487&order=2&STUDY_ID=61bb98616f28aedf5237274a","109","9","2","win","no-go","1"
"pit-trial","197","880243","0.0-113.0","battery-v0.2","","-1","q","elianto","#f73b6a7A","-1","-1","1","-10","","0","2","","","","","","","6102e88e310c20d8a6144487&order=2&STUDY_ID=61bb98616f28aedf5237274a","110","11","4","lose","no-go","1"
"pit-trial","198","884184","0.0-114.0","battery-v0.2","","1084.5","n","elianto","#f73b6a7A","32","32","1","0","1935.9000000059605","1","2","","","","","","","6102e88e310c20d8a6144487&order=2&STUDY_ID=61bb98616f28aedf5237274a","111","10","3","lose","go","0"
"pit-trial","199","887772","0.0-115.0","battery-v0.2","","726.8999999985099","x","elianto","#3366ff99","32","32","1","0","1580.5999999940395","1","2","","","","","","","6102e88e310c20d8a6144487&order=2&STUDY_ID=61bb98616f28aedf5237274a","112","8","1","win","go","1"
"pit-trial","200","892631","0.0-116.0","battery-v0.2","","-1","x","elianto","#3366ff99","32","-1","0","0","","0","2","","","","","","","6102e88e310c20d8a6144487&order=2&STUDY_ID=61bb98616f28aedf5237274a","113","8","1","win","go","0"
"pit-trial","201","896282","0.0-117.0","battery-v0.2","","791.3999999985099","f","elianto","#3366ff99","-1","32","0","+10","1643.5999999940395","1","2","","","","","","","6102e88e310c20d8a6144487&order=2&STUDY_ID=61bb98616f28aedf5237274a","114","9","2","win","no-go","1"
"pit-trial","202","901141","0.0-118.0","battery-v0.2","","-1","n","elianto","#f73b6a7A","32","-1","0","-10","","0","2","","","","","","","6102e88e310c20d8a6144487&order=2&STUDY_ID=61bb98616f28aedf5237274a","115","10","3","lose","go","0"
"pit-trial","203","905071","0.0-119.0","battery-v0.2","","1073.5999999940395","q","elianto","#f73b6a7A","-1","32","0","0","1923.9000000059605","1","2","","","","","","","6102e88e310c20d8a6144487&order=2&STUDY_ID=61bb98616f28aedf5237274a","116","11","4","lose","no-go","1"
"pit-trial","204","908591","0.0-120.0","battery-v0.2","","663.2999999970198","x","elianto","#3366ff99","32","32","1","0","1514.8000000044703","1","2","","","","","","","6102e88e310c20d8a6144487&order=2&STUDY_ID=61bb98616f28aedf5237274a","117","8","1","win","go","1"
"pit-trial","205","912147","0.0-121.0","battery-v0.2","","697","n","elianto","#f73b6a7A","32","32","1","-10","1550.2000000029802","1","2","","","","","","","6102e88e310c20d8a6144487&order=2&STUDY_ID=61bb98616f28aedf5237274a","118","10","3","lose","go","1"
"pit-trial","206","915723","0.0-122.0","battery-v0.2","","718.9000000059605","q","elianto","#f73b6a7A","-1","32","0","-10","1570.1000000014901","1","2","","","","","","","6102e88e310c20d8a6144487&order=2&STUDY_ID=61bb98616f28aedf5237274a","119","11","4","lose","no-go","0"
"pit-trial","207","919101","0.0-123.0","battery-v0.2","","520.5","f","elianto","#3366ff99","-1","32","0","0","1371.3999999985099","1","2","","","","","","","6102e88e310c20d8a6144487&order=2&STUDY_ID=61bb98616f28aedf5237274a","120","9","2","win","no-go","0"
"pit-trial","208","922636","0.0-124.0","battery-v0.2","","676.9000000059605","x","elianto","#3366ff99","32","32","1","+10","1530.8999999985099","1","2","","","","","","","6102e88e310c20d8a6144487&order=2&STUDY_ID=61bb98616f28aedf5237274a","121","8","1","win","go","0"
"pit-trial","209","926230","0.0-125.0","battery-v0.2","","732.3000000044703","q","elianto","#f73b6a7A","-1","32","0","-10","1587.4000000059605","1","2","","","","","","","6102e88e310c20d8a6144487&order=2&STUDY_ID=61bb98616f28aedf5237274a","122","11","4","lose","no-go","0"
"pit-trial","210","929736","0.0-126.0","battery-v0.2","","651.1000000014901","n","elianto","#f73b6a7A","32","32","1","0","1501.6000000014901","1","2","","","","","","","6102e88e310c20d8a6144487&order=2&STUDY_ID=61bb98616f28aedf5237274a","123","10","3","lose","go","0"
"pit-trial","211","933155","0.0-127.0","battery-v0.2","","560","f","elianto","#3366ff99","-1","32","0","0","1411.7000000029802","1","2","","","","","","","6102e88e310c20d8a6144487&order=2&STUDY_ID=61bb98616f28aedf5237274a","124","9","2","win","no-go","0"
"pit-trial","212","936510","0.0-128.0","battery-v0.2","","498.69999999552965","q","elianto","#f73b6a7A","-1","32","0","-10","1349.5","1","2","","","","","","","6102e88e310c20d8a6144487&order=2&STUDY_ID=61bb98616f28aedf5237274a","125","11","4","lose","no-go","0"
"pit-trial","213","941369","0.0-129.0","battery-v0.2","","-1","n","elianto","#f73b6a7A","32","-1","0","-10","4205.30000000447","1","2","","","","","","","6102e88e310c20d8a6144487&order=2&STUDY_ID=61bb98616f28aedf5237274a","126","10","3","lose","go","0"
"pit-trial","214","944833","0.0-130.0","battery-v0.2","","606.2999999970198","f","elianto","#3366ff99","-1","32","0","0","1456.7999999970198","1","2","","","","","","","6102e88e310c20d8a6144487&order=2&STUDY_ID=61bb98616f28aedf5237274a","127","9","2","win","no-go","0"
"pit-trial","215","948208","0.0-131.0","battery-v0.2","","519.1000000014901","x","elianto","#3366ff99","32","32","1","0","1372.2999999970198","1","2","","","","","","","6102e88e310c20d8a6144487&order=2&STUDY_ID=61bb98616f28aedf5237274a","128","8","1","win","go","1"
"pit-trial","216","951545","0.0-132.0","battery-v0.2","","483.30000000447035","x","elianto","#3366ff99","32","32","1","0","1333.9000000059605","1","2","","","","","","","6102e88e310c20d8a6144487&order=2&STUDY_ID=61bb98616f28aedf5237274a","129","8","1","win","go","1"
"pit-trial","217","954929","0.0-133.0","battery-v0.2","","526.6000000014901","f","elianto","#3366ff99","-1","32","0","0","1377.8000000044703","1","2","","","","","","","6102e88e310c20d8a6144487&order=2&STUDY_ID=61bb98616f28aedf5237274a","130","9","2","win","no-go","0"
"pit-trial","218","958621","0.0-134.0","battery-v0.2","","834.5","q","elianto","#f73b6a7A","-1","32","0","0","1685.2000000029802","1","2","","","","","","","6102e88e310c20d8a6144487&order=2&STUDY_ID=61bb98616f28aedf5237274a","131","11","4","lose","no-go","1"
"pit-trial","219","962081","0.0-135.0","battery-v0.2","","601.6999999955297","n","elianto","#f73b6a7A","32","32","1","0","1451.8000000044703","1","2","","","","","","","6102e88e310c20d8a6144487&order=2&STUDY_ID=61bb98616f28aedf5237274a","132","10","3","lose","go","0"
"pit-trial","220","965628","0.0-136.0","battery-v0.2","","689.8999999985099","n","elianto","#f73b6a7A","32","32","1","0","1541","1","2","","","","","","","6102e88e310c20d8a6144487&order=2&STUDY_ID=61bb98616f28aedf5237274a","133","10","3","lose","go","0"
"pit-trial","221","968977","0.0-137.0","battery-v0.2","","490.79999999701977","x","elianto","#3366ff99","32","32","1","+10","1342.6999999955297","1","2","","","","","","","6102e88e310c20d8a6144487&order=2&STUDY_ID=61bb98616f28aedf5237274a","134","8","1","win","go","0"
"pit-trial","222","972687","0.0-138.0","battery-v0.2","","852.7999999970198","q","elianto","#f73b6a7A","-1","32","0","0","1705.8999999985099","1","2","","","","","","","6102e88e310c20d8a6144487&order=2&STUDY_ID=61bb98616f28aedf5237274a","135","11","4","lose","no-go","1"
"pit-trial","223","976280","0.0-139.0","battery-v0.2","","739.8000000044703","f","elianto","#3366ff99","-1","32","0","0","1590.3000000044703","1","2","","","","","","","6102e88e310c20d8a6144487&order=2&STUDY_ID=61bb98616f28aedf5237274a","136","9","2","win","no-go","0"
"pit-trial","224","979809","0.0-140.0","battery-v0.2","","672.2000000029802","q","elianto","#f73b6a7A","-1","32","0","-10","1523.5","1","2","","","","","","","6102e88e310c20d8a6144487&order=2&STUDY_ID=61bb98616f28aedf5237274a","137","11","4","lose","no-go","0"
"pit-trial","225","983217","0.0-141.0","battery-v0.2","","549.2000000029802","f","elianto","#3366ff99","-1","32","0","0","1400.3000000044703","1","2","","","","","","","6102e88e310c20d8a6144487&order=2&STUDY_ID=61bb98616f28aedf5237274a","138","9","2","win","no-go","0"
"pit-trial","226","986519","0.0-142.0","battery-v0.2","","445.29999999701977","x","elianto","#3366ff99","32","32","1","0","1296.2999999970198","1","2","","","","","","","6102e88e310c20d8a6144487&order=2&STUDY_ID=61bb98616f28aedf5237274a","139","8","1","win","go","1"
"pit-trial","227","990066","0.0-143.0","battery-v0.2","","686.6000000014901","n","elianto","#f73b6a7A","32","32","1","-10","1537.8000000044703","1","2","","","","","","","6102e88e310c20d8a6144487&order=2&STUDY_ID=61bb98616f28aedf5237274a","140","10","3","lose","go","1"
"pit-instructions","228","1003589","0.0-144.0","battery-v0.2","[{""page_index"":0,""viewing_time"":9874.5},{""page_index"":1,""viewing_time"":3646.39999999851}]","13521.30000000447","","","","","","","","","","","","","","","","","","","","","","",""
"pit-trial","229","1007423","0.0-145.0","battery-v0.2","","972.7999999970198","d","elianto","#3366ff99","32","32","1","+10","1823","1","3","","","","","","","6102e88e310c20d8a6144487&order=2&STUDY_ID=61bb98616f28aedf5237274a","141","2","1","win","go","0"
"pit-trial","230","1012060","0.0-146.0","battery-v0.2","","1779.2000000029802","j","elianto","#3366ff99","-1","32","0","+10","2630.60000000149","1","3","","","","","","","6102e88e310c20d8a6144487&order=2&STUDY_ID=61bb98616f28aedf5237274a","142","1","2","win","no-go","1"
"pit-trial","231","1016165","0.0-147.0","battery-v0.2","","1243.8000000044703","v","elianto","#3366ff99","-1","32","0","0","2099.60000000149","1","3","","","","","","","6102e88e310c20d8a6144487&order=2&STUDY_ID=61bb98616f28aedf5237274a","143","0","2","win","no-go","0"
"pit-trial","232","1021024","0.0-148.0","battery-v0.2","","-1","k","elianto","#f73b6a7A","32","-1","0","-10","","0","3","","","","","","","6102e88e310c20d8a6144487&order=2&STUDY_ID=61bb98616f28aedf5237274a","144","3","3","lose","go","0"
"pit-trial","233","1025134","0.0-149.0","battery-v0.2","","1252","j","elianto","#3366ff99","-1","32","0","0","2102.89999999851","1","3","","","","","","","6102e88e310c20d8a6144487&order=2&STUDY_ID=61bb98616f28aedf5237274a","145","1","2","win","no-go","0"
"pit-trial","234","1028686","0.0-150.0","battery-v0.2","","694.5","v","elianto","#3366ff99","-1","32","0","+10","1544.7999999970198","1","3","","","","","","","6102e88e310c20d8a6144487&order=2&STUDY_ID=61bb98616f28aedf5237274a","146","0","2","win","no-go","1"
"pit-trial","235","1032628","0.0-151.0","battery-v0.2","","1080.5","d","elianto","#3366ff99","32","32","1","+10","1934.3999999985099","1","3","","","","","","","6102e88e310c20d8a6144487&order=2&STUDY_ID=61bb98616f28aedf5237274a","147","2","1","win","go","0"
"pit-trial","236","1037487","0.0-152.0","battery-v0.2","","-1","k","elianto","#f73b6a7A","32","-1","0","-10","","0","3","","","","","","","6102e88e310c20d8a6144487&order=2&STUDY_ID=61bb98616f28aedf5237274a","148","3","3","lose","go","0"
"pit-trial","237","1041115","0.0-153.0","battery-v0.2","","770.2999999970198","d","elianto","#3366ff99","32","32","1","+10","1620.7999999970198","1","3","","","","","","","6102e88e310c20d8a6144487&order=2&STUDY_ID=61bb98616f28aedf5237274a","149","2","1","win","go","0"
"pit-trial","238","1044685","0.0-154.0","battery-v0.2","","715.2999999970198","v","elianto","#3366ff99","-1","32","0","0","1566","1","3","","","","","","","6102e88e310c20d8a6144487&order=2&STUDY_ID=61bb98616f28aedf5237274a","150","0","2","win","no-go","0"
"pit-trial","239","1048611","0.0-155.0","battery-v0.2","","1068","k","elianto","#f73b6a7A","32","32","1","-10","1918.5999999940395","1","3","","","","","","","6102e88e310c20d8a6144487&order=2&STUDY_ID=61bb98616f28aedf5237274a","151","3","3","lose","go","1"
"pit-trial","240","1052149","0.0-156.0","battery-v0.2","","682.5999999940395","j","elianto","#3366ff99","-1","32","0","0","1533","1","3","","","","","","","6102e88e310c20d8a6144487&order=2&STUDY_ID=61bb98616f28aedf5237274a","152","1","2","win","no-go","0"
"pit-trial","241","1055685","0.0-157.0","battery-v0.2","","678.3999999985099","v","elianto","#3366ff99","-1","32","0","0","1530","1","3","","","","","","","6102e88e310c20d8a6144487&order=2&STUDY_ID=61bb98616f28aedf5237274a","153","0","2","win","no-go","0"
"pit-trial","242","1060543","0.0-158.0","battery-v0.2","","-1","k","elianto","#f73b6a7A","32","-1","0","-10","","0","3","","","","","","","6102e88e310c20d8a6144487&order=2&STUDY_ID=61bb98616f28aedf5237274a","154","3","3","lose","go","0"
"pit-trial","243","1064056","0.0-159.0","battery-v0.2","","656.5","j","elianto","#3366ff99","-1","32","0","0","1507.3999999985099","1","3","","","","","","","6102e88e310c20d8a6144487&order=2&STUDY_ID=61bb98616f28aedf5237274a","155","1","2","win","no-go","0"
"pit-trial","244","1067438","0.0-160.0","battery-v0.2","","522","d","elianto","#3366ff99","32","32","1","0","1374.6000000014901","1","3","","","","","","","6102e88e310c20d8a6144487&order=2&STUDY_ID=61bb98616f28aedf5237274a","156","2","1","win","go","1"
"pit-trial","245","1072043","0.0-161.0","battery-v0.2","","1746.7000000029802","d","elianto","#3366ff99","32","32","1","+10","2598.5","1","3","","","","","","","6102e88e310c20d8a6144487&order=2&STUDY_ID=61bb98616f28aedf5237274a","157","2","1","win","go","0"
"pit-trial","246","1075955","0.0-162.0","battery-v0.2","","1053.8999999985099","j","elianto","#3366ff99","-1","32","0","0","1904.3000000044703","1","3","","","","","","","6102e88e310c20d8a6144487&order=2&STUDY_ID=61bb98616f28aedf5237274a","158","1","2","win","no-go","0"
"pit-trial","247","1079386","0.0-163.0","battery-v0.2","","574.2000000029802","v","elianto","#3366ff99","-1","32","0","+10","1424.5","1","3","","","","","","","6102e88e310c20d8a6144487&order=2&STUDY_ID=61bb98616f28aedf5237274a","159","0","2","win","no-go","1"
"pit-trial","248","1083258","0.0-164.0","battery-v0.2","","1007.9000000059605","k","elianto","#f73b6a7A","32","32","1","-10","1864.5","1","3","","","","","","","6102e88e310c20d8a6144487&order=2&STUDY_ID=61bb98616f28aedf5237274a","160","3","3","lose","go","1"
"pit-trial","249","1087316","0.0-165.0","battery-v0.2","","1199.2999999970198","v","elianto","#3366ff99","-1","32","0","0","2050.60000000149","1","3","","","","","","","6102e88e310c20d8a6144487&order=2&STUDY_ID=61bb98616f28aedf5237274a","161","0","2","win","no-go","0"
"pit-trial","250","1091495","0.0-166.0","battery-v0.2","","1324.4000000059605","k","elianto","#f73b6a7A","32","32","1","0","2175.10000000149","1","3","","","","","","","6102e88e310c20d8a6144487&order=2&STUDY_ID=61bb98616f28aedf5237274a","162","3","3","lose","go","0"
"pit-trial","251","1095060","0.0-167.0","battery-v0.2","","708.4000000059605","j","elianto","#3366ff99","-1","32","0","+10","1559.2000000029802","1","3","","","","","","","6102e88e310c20d8a6144487&order=2&STUDY_ID=61bb98616f28aedf5237274a","163","1","2","win","no-go","1"
"pit-trial","252","1098548","0.0-168.0","battery-v0.2","","629.9000000059605","d","elianto","#3366ff99","32","32","1","+10","1481.1000000014901","1","3","","","","","","","6102e88e310c20d8a6144487&order=2&STUDY_ID=61bb98616f28aedf5237274a","164","2","1","win","go","0"
"pit-trial","253","1101985","0.0-169.0","battery-v0.2","","574.2999999970198","j","elianto","#3366ff99","-1","32","0","0","1429.3999999985099","1","3","","","","","","","6102e88e310c20d8a6144487&order=2&STUDY_ID=61bb98616f28aedf5237274a","165","1","2","win","no-go","0"
"pit-trial","254","1106843","0.0-170.0","battery-v0.2","","-1","k","elianto","#f73b6a7A","32","-1","0","-10","","0","3","","","","","","","6102e88e310c20d8a6144487&order=2&STUDY_ID=61bb98616f28aedf5237274a","166","3","3","lose","go","0"
"pit-trial","255","1110268","0.0-171.0","battery-v0.2","","566.9000000059605","v","elianto","#3366ff99","-1","32","0","0","1418","1","3","","","","","","","6102e88e310c20d8a6144487&order=2&STUDY_ID=61bb98616f28aedf5237274a","167","0","2","win","no-go","0"
"pit-trial","256","1113624","0.0-172.0","battery-v0.2","","498.19999999552965","d","elianto","#3366ff99","32","32","1","+10","1349","1","3","","","","","","","6102e88e310c20d8a6144487&order=2&STUDY_ID=61bb98616f28aedf5237274a","168","2","1","win","go","0"
"pit-trial","257","1116990","0.0-173.0","battery-v0.2","","508.29999999701977","d","elianto","#3366ff99","32","32","1","+10","1360.5999999940395","1","3","","","","","","","6102e88e310c20d8a6144487&order=2&STUDY_ID=61bb98616f28aedf5237274a","169","2","1","win","go","0"
"pit-trial","258","1120357","0.0-174.0","battery-v0.2","","509.8999999985099","k","elianto","#f73b6a7A","32","32","1","0","1361.3999999985099","1","3","","","","","","","6102e88e310c20d8a6144487&order=2&STUDY_ID=61bb98616f28aedf5237274a","170","3","3","lose","go","0"
"pit-trial","259","1123649","0.0-175.0","battery-v0.2","","437.5","v","elianto","#3366ff99","-1","32","0","0","1288.1000000014901","1","3","","","","","","","6102e88e310c20d8a6144487&order=2&STUDY_ID=61bb98616f28aedf5237274a","171","0","2","win","no-go","0"
"pit-trial","260","1126928","0.0-176.0","battery-v0.2","","423.5","j","elianto","#3366ff99","-1","32","0","0","1273.8000000044703","1","3","","","","","","","6102e88e310c20d8a6144487&order=2&STUDY_ID=61bb98616f28aedf5237274a","172","1","2","win","no-go","0"
"pit-trial","261","1130638","0.0-177.0","battery-v0.2","","853.6999999955297","e","elianto","#f73b6a7A","-1","32","0","-10","1704.0999999940395","1","3","","","","","","","6102e88e310c20d8a6144487&order=2&STUDY_ID=61bb98616f28aedf5237274a","173","4","4","lose","no-go","0"
"pit-trial","262","1133993","0.0-178.0","battery-v0.2","","496.8999999985099","w","elianto","#f73b6a7A","32","32","1","0","1348","1","3","","","","","","","6102e88e310c20d8a6144487&order=2&STUDY_ID=61bb98616f28aedf5237274a","174","5","3","lose","go","0"
"pit-trial","263","1137534","0.0-179.0","battery-v0.2","","684","v","elianto","#3366ff99","-1","32","0","0","1534.8999999985099","1","3","","","","","","","6102e88e310c20d8a6144487&order=2&STUDY_ID=61bb98616f28aedf5237274a","175","0","2","win","no-go","0"
"pit-trial","264","1141069","0.0-180.0","battery-v0.2","","678.3000000044703","d","elianto","#3366ff99","32","32","1","+10","1528.6000000014901","1","3","","","","","","","6102e88e310c20d8a6144487&order=2&STUDY_ID=61bb98616f28aedf5237274a","176","2","1","win","go","0"
"pit-trial","265","1145928","0.0-181.0","battery-v0.2","","-1","w","elianto","#f73b6a7A","32","-1","0","-10","","0","3","","","","","","","6102e88e310c20d8a6144487&order=2&STUDY_ID=61bb98616f28aedf5237274a","177","5","3","lose","go","0"
"pit-trial","266","1149364","0.0-182.0","battery-v0.2","","581.4000000059605","v","elianto","#3366ff99","-1","32","0","0","1432.6000000014901","1","3","","","","","","","6102e88e310c20d8a6144487&order=2&STUDY_ID=61bb98616f28aedf5237274a","178","0","2","win","no-go","0"
"pit-trial","267","1152847","0.0-183.0","battery-v0.2","","628.8999999985099","d","elianto","#3366ff99","32","32","1","+10","1479.3999999985099","1","3","","","","","","","6102e88e310c20d8a6144487&order=2&STUDY_ID=61bb98616f28aedf5237274a","179","2","1","win","go","0"
"pit-trial","268","1157705","0.0-184.0","battery-v0.2","","-1","e","elianto","#f73b6a7A","-1","-1","1","-10","","0","3","","","","","","","6102e88e310c20d8a6144487&order=2&STUDY_ID=61bb98616f28aedf5237274a","180","4","4","lose","no-go","1"
"pit-trial","269","1160696","0.0-185.0","battery-v0.2","","134.80000000447035","e","elianto","#f73b6a7A","-1","32","0","-10","986.6000000014901","1","3","","","","","","","6102e88e310c20d8a6144487&order=2&STUDY_ID=61bb98616f28aedf5237274a","181","4","4","lose","no-go","0"
"pit-trial","270","1164097","0.0-186.0","battery-v0.2","","546.8999999985099","d","elianto","#3366ff99","32","32","1","+10","1397.8999999985099","1","3","","","","","","","6102e88e310c20d8a6144487&order=2&STUDY_ID=61bb98616f28aedf5237274a","182","2","1","win","go","0"
"pit-trial","271","1168956","0.0-187.0","battery-v0.2","","-1","s","elianto","#3366ff99","-1","-1","1","+10","4358.29999999702","1","3","","","","","","","6102e88e310c20d8a6144487&order=2&STUDY_ID=61bb98616f28aedf5237274a","183","6","2","win","no-go","0"
"pit-trial","272","1172724","0.0-188.0","battery-v0.2","","908.8999999985099","w","elianto","#f73b6a7A","32","32","1","-10","1760.1999999955297","1","3","","","","","","","6102e88e310c20d8a6144487&order=2&STUDY_ID=61bb98616f28aedf5237274a","184","5","3","lose","go","1"
"pit-trial","273","1176224","0.0-189.0","battery-v0.2","","646.5999999940395","s","elianto","#3366ff99","-1","32","0","0","1497.5","1","3","","","","","","","6102e88e310c20d8a6144487&order=2&STUDY_ID=61bb98616f28aedf5237274a","185","6","2","win","no-go","0"
"pit-trial","274","1179886","0.0-190.0","battery-v0.2","","805.7000000029802","e","elianto","#f73b6a7A","-1","32","0","0","1656.4000000059605","1","3","","","","","","","6102e88e310c20d8a6144487&order=2&STUDY_ID=61bb98616f28aedf5237274a","186","4","4","lose","no-go","1"
"pit-trial","275","1183474","0.0-191.0","battery-v0.2","","726.3000000044703","d","elianto","#3366ff99","32","32","1","0","1584.7000000029802","1","3","","","","","","","6102e88e310c20d8a6144487&order=2&STUDY_ID=61bb98616f28aedf5237274a","187","2","1","win","go","1"
"pit-trial","276","1188333","0.0-192.0","battery-v0.2","","-1","w","elianto","#f73b6a7A","32","-1","0","-10","","0","3","","","","","","","6102e88e310c20d8a6144487&order=2&STUDY_ID=61bb98616f28aedf5237274a","188","5","3","lose","go","0"
"pit-trial","277","1191827","0.0-193.0","battery-v0.2","","636.1000000014901","e","elianto","#f73b6a7A","-1","32","0","-10","1486.3999999985099","1","3","","","","","","","6102e88e310c20d8a6144487&order=2&STUDY_ID=61bb98616f28aedf5237274a","189","4","4","lose","no-go","0"
"pit-trial","278","1195194","0.0-194.0","battery-v0.2","","509.3999999985099","p","elianto","#f73b6a7A","-1","32","0","0","1360.5","1","3","","","","","","","6102e88e310c20d8a6144487&order=2&STUDY_ID=61bb98616f28aedf5237274a","190","7","4","lose","no-go","1"
"pit-trial","279","1198764","0.0-195.0","battery-v0.2","","711.9000000059605","w","elianto","#f73b6a7A","32","32","1","0","1563.2000000029802","1","3","","","","","","","6102e88e310c20d8a6144487&order=2&STUDY_ID=61bb98616f28aedf5237274a","191","5","3","lose","go","0"
"pit-trial","280","1202212","0.0-196.0","battery-v0.2","","592.3000000044703","s","elianto","#3366ff99","-1","32","0","0","1444.3000000044703","1","3","","","","","","","6102e88e310c20d8a6144487&order=2&STUDY_ID=61bb98616f28aedf5237274a","192","6","2","win","no-go","0"
"pit-trial","281","1205962","0.0-197.0","battery-v0.2","","892","w","elianto","#f73b6a7A","32","32","1","0","1742.3999999985099","1","3","","","","","","","6102e88e310c20d8a6144487&order=2&STUDY_ID=61bb98616f28aedf5237274a","193","5","3","lose","go","0"
"pit-trial","282","1209364","0.0-198.0","battery-v0.2","","546.6000000014901","s","elianto","#3366ff99","-1","32","0","0","431.5,1396.8999999985099","2","3","","","","","","","6102e88e310c20d8a6144487&order=2&STUDY_ID=61bb98616f28aedf5237274a","194","6","2","win","no-go","0"
"pit-trial","283","1214222","0.0-199.0","battery-v0.2","","-1","e","elianto","#f73b6a7A","-1","-1","1","-10","","0","3","","","","","","","6102e88e310c20d8a6144487&order=2&STUDY_ID=61bb98616f28aedf5237274a","195","4","4","lose","no-go","1"
"pit-trial","284","1217694","0.0-200.0","battery-v0.2","","609.8000000044703","p","elianto","#f73b6a7A","-1","32","0","-10","563.1999999955297,1465.5","2","3","","","","","","","6102e88e310c20d8a6144487&order=2&STUDY_ID=61bb98616f28aedf5237274a","196","7","4","lose","no-go","0"
"pit-trial","285","1221449","0.0-201.0","battery-v0.2","","897.9000000059605","e","elianto","#f73b6a7A","-1","32","0","-10","1750.3000000044703","1","3","","","","","","","6102e88e310c20d8a6144487&order=2&STUDY_ID=61bb98616f28aedf5237274a","197","4","4","lose","no-go","0"
"pit-trial","286","1226308","0.0-202.0","battery-v0.2","","-1","w","elianto","#f73b6a7A","32","-1","0","-10","3120","1","3","","","","","","","6102e88e310c20d8a6144487&order=2&STUDY_ID=61bb98616f28aedf5237274a","198","5","3","lose","go","0"
"pit-trial","287","1229640","0.0-203.0","battery-v0.2","","475.79999999701977","s","elianto","#3366ff99","-1","32","0","0","1326.5","1","3","","","","","","","6102e88e310c20d8a6144487&order=2&STUDY_ID=61bb98616f28aedf5237274a","199","6","2","win","no-go","0"
"pit-trial","288","1233477","0.0-204.0","battery-v0.2","","981","p","elianto","#f73b6a7A","-1","32","0","-10","1831.8999999985099","1","3","","","","","","","6102e88e310c20d8a6144487&order=2&STUDY_ID=61bb98616f28aedf5237274a","200","7","4","lose","no-go","0"
"pit-trial","289","1236896","0.0-205.0","battery-v0.2","","561.3999999985099","e","elianto","#f73b6a7A","-1","32","0","0","1414.1000000014901","1","3","","","","","","","6102e88e310c20d8a6144487&order=2&STUDY_ID=61bb98616f28aedf5237274a","201","4","4","lose","no-go","1"
"pit-trial","290","1240339","0.0-206.0","battery-v0.2","","589.3999999985099","s","elianto","#3366ff99","-1","32","0","0","1440.6000000014901","1","3","","","","","","","6102e88e310c20d8a6144487&order=2&STUDY_ID=61bb98616f28aedf5237274a","202","6","2","win","no-go","0"
"pit-trial","291","1243822","0.0-207.0","battery-v0.2","","615.5","w","elianto","#f73b6a7A","32","32","1","-10","1477.6999999955297","1","3","","","","","","","6102e88e310c20d8a6144487&order=2&STUDY_ID=61bb98616f28aedf5237274a","203","5","3","lose","go","1"
"pit-trial","292","1247101","0.0-208.0","battery-v0.2","","418.40000000596046","p","elianto","#f73b6a7A","-1","32","0","-10","1275.2000000029802","1","3","","","","","","","6102e88e310c20d8a6144487&order=2&STUDY_ID=61bb98616f28aedf5237274a","204","7","4","lose","no-go","0"
"pit-trial","293","1251960","0.0-209.0","battery-v0.2","","-1","p","elianto","#f73b6a7A","-1","-1","1","0","","0","3","","","","","","","6102e88e310c20d8a6144487&order=2&STUDY_ID=61bb98616f28aedf5237274a","205","7","4","lose","no-go","0"
"pit-trial","294","1256819","0.0-210.0","battery-v0.2","","-1","w","elianto","#f73b6a7A","32","-1","0","-10","","0","3","","","","","","","6102e88e310c20d8a6144487&order=2&STUDY_ID=61bb98616f28aedf5237274a","206","5","3","lose","go","0"
"pit-trial","295","1260663","0.0-211.0","battery-v0.2","","983.2999999970198","e","elianto","#f73b6a7A","-1","32","0","-10","1840.8000000044703","1","3","","","","","","","6102e88e310c20d8a6144487&order=2&STUDY_ID=61bb98616f28aedf5237274a","207","4","4","lose","no-go","0"
"pit-trial","296","1264069","0.0-212.0","battery-v0.2","","549.6999999955297","s","elianto","#3366ff99","-1","32","0","0","1400","1","3","","","","","","","6102e88e310c20d8a6144487&order=2&STUDY_ID=61bb98616f28aedf5237274a","208","6","2","win","no-go","0"
"pit-trial","297","1267563","0.0-213.0","battery-v0.2","","640.5","s","elianto","#3366ff99","-1","32","0","0","1491.1000000014901","1","3","","","","","","","6102e88e310c20d8a6144487&order=2&STUDY_ID=61bb98616f28aedf5237274a","209","6","2","win","no-go","0"
"pit-trial","298","1272423","0.0-214.0","battery-v0.2","","-1","e","elianto","#f73b6a7A","-1","-1","1","0","","0","3","","","","","","","6102e88e310c20d8a6144487&order=2&STUDY_ID=61bb98616f28aedf5237274a","210","4","4","lose","no-go","0"
"pit-trial","299","1276178","0.0-215.0","battery-v0.2","","900.2999999970198","w","elianto","#f73b6a7A","32","32","1","0","1750.5","1","3","","","","","","","6102e88e310c20d8a6144487&order=2&STUDY_ID=61bb98616f28aedf5237274a","211","5","3","lose","go","0"
"pit-trial","300","1281037","0.0-216.0","battery-v0.2","","-1","p","elianto","#f73b6a7A","-1","-1","1","0","","0","3","","","","","","","6102e88e310c20d8a6144487&order=2&STUDY_ID=61bb98616f28aedf5237274a","212","7","4","lose","no-go","0"
"pit-trial","301","1285896","0.0-217.0","battery-v0.2","","-1","g","elianto","#f73b6a7A","-1","-1","1","0","","0","3","","","","","","","6102e88e310c20d8a6144487&order=2&STUDY_ID=61bb98616f28aedf5237274a","213","8","4","lose","no-go","0"
"pit-trial","302","1289466","0.0-218.0","battery-v0.2","","711.1000000014901","s","elianto","#3366ff99","-1","32","0","0","1564.2000000029802","1","3","","","","","","","6102e88e310c20d8a6144487&order=2&STUDY_ID=61bb98616f28aedf5237274a","214","6","2","win","no-go","0"
"pit-trial","303","1294324","0.0-219.0","battery-v0.2","","-1","w","elianto","#f73b6a7A","32","-1","0","-10","","0","3","","","","","","","6102e88e310c20d8a6144487&order=2&STUDY_ID=61bb98616f28aedf5237274a","215","5","3","lose","go","0"
"pit-trial","304","1298097","0.0-220.0","battery-v0.2","","910.1000000014901","p","elianto","#f73b6a7A","-1","32","0","-10","1767.5","1","3","","","","","","","6102e88e310c20d8a6144487&order=2&STUDY_ID=61bb98616f28aedf5237274a","216","7","4","lose","no-go","0"
"pit-trial","305","1301725","0.0-221.0","battery-v0.2","","771.3999999985099","s","elianto","#3366ff99","-1","32","0","0","1622.6000000014901","1","3","","","","","","","6102e88e310c20d8a6144487&order=2&STUDY_ID=61bb98616f28aedf5237274a","217","6","2","win","no-go","0"
"pit-trial","306","1306584","0.0-222.0","battery-v0.2","","-1","g","elianto","#f73b6a7A","-1","-1","1","0","","0","3","","","","","","","6102e88e310c20d8a6144487&order=2&STUDY_ID=61bb98616f28aedf5237274a","218","8","4","lose","no-go","0"
"pit-trial","307","1310427","0.0-223.0","battery-v0.2","","983.7000000029802","w","elianto","#f73b6a7A","32","32","1","0","1834.6999999955297","1","3","","","","","","","6102e88e310c20d8a6144487&order=2&STUDY_ID=61bb98616f28aedf5237274a","219","5","3","lose","go","0"
"pit-trial","308","1315286","0.0-224.0","battery-v0.2","","-1","p","elianto","#f73b6a7A","-1","-1","1","0","","0","3","","","","","","","6102e88e310c20d8a6144487&order=2&STUDY_ID=61bb98616f28aedf5237274a","220","7","4","lose","no-go","0"
"pit-trial","309","1320145","0.0-225.0","battery-v0.2","","-1","s","elianto","#3366ff99","-1","-1","1","+10","","0","3","","","","","","","6102e88e310c20d8a6144487&order=2&STUDY_ID=61bb98616f28aedf5237274a","221","6","2","win","no-go","0"
"pit-trial","310","1323940","0.0-226.0","battery-v0.2","","938.8999999985099","l","elianto","#f73b6a7A","32","32","1","0","1789.6000000014901","1","3","","","","","","","6102e88e310c20d8a6144487&order=2&STUDY_ID=61bb98616f28aedf5237274a","222","10","3","lose","go","0"
"pit-trial","311","1328004","0.0-227.0","battery-v0.2","","1206.3999999985099","a","elianto","#3366ff99","32","32","1","+10","2057","1","3","","","","","","","6102e88e310c20d8a6144487&order=2&STUDY_ID=61bb98616f28aedf5237274a","223","9","1","win","go","0"
"pit-trial","312","1332863","0.0-228.0","battery-v0.2","","-1","g","elianto","#f73b6a7A","-1","-1","1","0","","0","3","","","","","","","6102e88e310c20d8a6144487&order=2&STUDY_ID=61bb98616f28aedf5237274a","224","8","4","lose","no-go","0"
"pit-trial","313","1336875","0.0-229.0","battery-v0.2","","1158.1000000014901","a","elianto","#3366ff99","32","32","1","+10","2009","1","3","","","","","","","6102e88e310c20d8a6144487&order=2&STUDY_ID=61bb98616f28aedf5237274a","225","9","1","win","go","0"
"pit-trial","314","1341732","0.0-230.0","battery-v0.2","","-1","g","elianto","#f73b6a7A","-1","-1","1","0","","0","3","","","","","","","6102e88e310c20d8a6144487&order=2&STUDY_ID=61bb98616f28aedf5237274a","226","8","4","lose","no-go","0"
"pit-trial","315","1346473","0.0-231.0","battery-v0.2","","1882.6999999955297","l","elianto","#f73b6a7A","32","32","1","0","2734.2999999970198","1","3","","","","","","","6102e88e310c20d8a6144487&order=2&STUDY_ID=61bb98616f28aedf5237274a","227","10","3","lose","go","0"
"pit-trial","316","1350562","0.0-232.0","battery-v0.2","","1228.7999999970198","s","elianto","#3366ff99","-1","32","0","0","2081.7999999970198","1","3","","","","","","","6102e88e310c20d8a6144487&order=2&STUDY_ID=61bb98616f28aedf5237274a","228","6","2","win","no-go","0"
"pit-trial","317","1355421","0.0-233.0","battery-v0.2","","-1","l","elianto","#f73b6a7A","32","-1","0","-10","","0","3","","","","","","","6102e88e310c20d8a6144487&order=2&STUDY_ID=61bb98616f28aedf5237274a","229","10","3","lose","go","0"
"pit-trial","318","1360280","0.0-234.0","battery-v0.2","","-1","a","elianto","#3366ff99","32","-1","0","0","","0","3","","","","","","","6102e88e310c20d8a6144487&order=2&STUDY_ID=61bb98616f28aedf5237274a","230","9","1","win","go","0"
"pit-trial","319","1365138","0.0-235.0","battery-v0.2","","-1","u","elianto","#3366ff99","32","-1","0","0","","0","3","","","","","","","6102e88e310c20d8a6144487&order=2&STUDY_ID=61bb98616f28aedf5237274a","231","11","1","win","go","0"
"pit-trial","320","1369997","0.0-236.0","battery-v0.2","","-1","g","elianto","#f73b6a7A","-1","-1","1","0","","0","3","","","","","","","6102e88e310c20d8a6144487&order=2&STUDY_ID=61bb98616f28aedf5237274a","232","8","4","lose","no-go","0"
"pit-trial","321","1374855","0.0-237.0","battery-v0.2","","-1","g","elianto","#f73b6a7A","-1","-1","1","0","","0","3","","","","","","","6102e88e310c20d8a6144487&order=2&STUDY_ID=61bb98616f28aedf5237274a","233","8","4","lose","no-go","0"
"pit-trial","322","1378704","0.0-238.0","battery-v0.2","","985.7999999970198","a","elianto","#3366ff99","32","32","1","+10","1843.1999999955297","1","3","","","","","","","6102e88e310c20d8a6144487&order=2&STUDY_ID=61bb98616f28aedf5237274a","234","9","1","win","go","0"
"pit-trial","323","1383563","0.0-239.0","battery-v0.2","","-1","l","elianto","#f73b6a7A","32","-1","0","-10","","0","3","","","","","","","6102e88e310c20d8a6144487&order=2&STUDY_ID=61bb98616f28aedf5237274a","235","10","3","lose","go","0"
"pit-trial","324","1387644","0.0-240.0","battery-v0.2","","1222.2000000029802","u","elianto","#3366ff99","32","32","1","+10","2074.39999999851","1","3","","","","","","","6102e88e310c20d8a6144487&order=2&STUDY_ID=61bb98616f28aedf5237274a","236","11","1","win","go","0"
"pit-trial","325","1391109","0.0-241.0","battery-v0.2","","604.6000000014901","l","elianto","#f73b6a7A","32","32","1","0","1458.5","1","3","","","","","","","6102e88e310c20d8a6144487&order=2&STUDY_ID=61bb98616f28aedf5237274a","237","10","3","lose","go","0"
"pit-trial","326","1395393","0.0-242.0","battery-v0.2","","1424.3000000044703","a","elianto","#3366ff99","32","32","1","+10","2275.60000000149","1","3","","","","","","","6102e88e310c20d8a6144487&order=2&STUDY_ID=61bb98616f28aedf5237274a","238","9","1","win","go","0"
"pit-trial","327","1400252","0.0-243.0","battery-v0.2","","-1","g","elianto","#f73b6a7A","-1","-1","1","0","","0","3","","","","","","","6102e88e310c20d8a6144487&order=2&STUDY_ID=61bb98616f28aedf5237274a","239","8","4","lose","no-go","0"
"pit-trial","328","1403996","0.0-244.0","battery-v0.2","","887.3999999985099","u","elianto","#3366ff99","32","32","1","+10","1738.8000000044703","1","3","","","","","","","6102e88e310c20d8a6144487&order=2&STUDY_ID=61bb98616f28aedf5237274a","240","11","1","win","go","0"
"pit-trial","329","1408855","0.0-245.0","battery-v0.2","","-1","g","elianto","#f73b6a7A","-1","-1","1","0","","0","3","","","","","","","6102e88e310c20d8a6144487&order=2&STUDY_ID=61bb98616f28aedf5237274a","241","8","4","lose","no-go","0"
"pit-trial","330","1413296","0.0-246.0","battery-v0.2","","1585","u","elianto","#3366ff99","32","32","1","+10","2435.2000000029802","1","3","","","","","","","6102e88e310c20d8a6144487&order=2&STUDY_ID=61bb98616f28aedf5237274a","242","11","1","win","go","0"
"pit-trial","331","1417167","0.0-247.0","battery-v0.2","","1016.5","a","elianto","#3366ff99","32","32","1","+10","1866.6000000014901","1","3","","","","","","","6102e88e310c20d8a6144487&order=2&STUDY_ID=61bb98616f28aedf5237274a","243","9","1","win","go","0"
"pit-trial","332","1422026","0.0-248.0","battery-v0.2","","-1","l","elianto","#f73b6a7A","32","-1","0","-10","","0","3","","","","","","","6102e88e310c20d8a6144487&order=2&STUDY_ID=61bb98616f28aedf5237274a","244","10","3","lose","go","0"
"pit-trial","333","1425686","0.0-249.0","battery-v0.2","","802.7000000029802","g","elianto","#f73b6a7A","-1","32","0","-10","1654.2000000029802","1","3","","","","","","","6102e88e310c20d8a6144487&order=2&STUDY_ID=61bb98616f28aedf5237274a","245","8","4","lose","no-go","0"
"pit-trial","334","1429340","0.0-250.0","battery-v0.2","","798.6000000014901","u","elianto","#3366ff99","32","32","1","+10","1649","1","3","","","","","","","6102e88e310c20d8a6144487&order=2&STUDY_ID=61bb98616f28aedf5237274a","246","11","1","win","go","0"
"pit-trial","335","1433051","0.0-251.0","battery-v0.2","","854.6999999955297","a","elianto","#3366ff99","32","32","1","+10","1705.6999999955297","1","3","","","","","","","6102e88e310c20d8a6144487&order=2&STUDY_ID=61bb98616f28aedf5237274a","247","9","1","win","go","0"
"pit-trial","336","1436893","0.0-252.0","battery-v0.2","","986","l","elianto","#f73b6a7A","32","32","1","0","1837.1000000014901","1","3","","","","","","","6102e88e310c20d8a6144487&order=2&STUDY_ID=61bb98616f28aedf5237274a","248","10","3","lose","go","0"
"pit-trial","337","1440399","0.0-253.0","battery-v0.2","","650.7999999970198","l","elianto","#f73b6a7A","32","32","1","-10","1501.8999999985099","1","3","","","","","","","6102e88e310c20d8a6144487&order=2&STUDY_ID=61bb98616f28aedf5237274a","249","10","3","lose","go","1"
"pit-trial","338","1443941","0.0-254.0","battery-v0.2","","681.1000000014901","a","elianto","#3366ff99","32","32","1","+10","1537.1999999955297","1","3","","","","","","","6102e88e310c20d8a6144487&order=2&STUDY_ID=61bb98616f28aedf5237274a","250","9","1","win","go","0"
"pit-trial","339","1448799","0.0-255.0","battery-v0.2","","-1","g","elianto","#f73b6a7A","-1","-1","1","0","","0","3","","","","","","","6102e88e310c20d8a6144487&order=2&STUDY_ID=61bb98616f28aedf5237274a","251","8","4","lose","no-go","0"
"pit-trial","340","1452410","0.0-256.0","battery-v0.2","","752.6999999955297","u","elianto","#3366ff99","32","32","1","+10","1603.5","1","3","","","","","","","6102e88e310c20d8a6144487&order=2&STUDY_ID=61bb98616f28aedf5237274a","252","11","1","win","go","0"
"pit-trial","341","1457268","0.0-257.0","battery-v0.2","","-1","g","elianto","#f73b6a7A","-1","-1","1","0","","0","3","","","","","","","6102e88e310c20d8a6144487&order=2&STUDY_ID=61bb98616f28aedf5237274a","253","8","4","lose","no-go","0"
"pit-trial","342","1460843","0.0-258.0","battery-v0.2","","715.8999999985099","u","elianto","#3366ff99","32","32","1","+10","1567.3999999985099","1","3","","","","","","","6102e88e310c20d8a6144487&order=2&STUDY_ID=61bb98616f28aedf5237274a","254","11","1","win","go","0"
"pit-trial","343","1464826","0.0-259.0","battery-v0.2","","1124","a","elianto","#3366ff99","32","32","1","+10","1975.3999999985099","1","3","","","","","","","6102e88e310c20d8a6144487&order=2&STUDY_ID=61bb98616f28aedf5237274a","255","9","1","win","go","0"
"pit-trial","344","1469255","0.0-260.0","battery-v0.2","","1571","l","elianto","#f73b6a7A","32","32","1","-10","2422.7999999970198","1","3","","","","","","","6102e88e310c20d8a6144487&order=2&STUDY_ID=61bb98616f28aedf5237274a","256","10","3","lose","go","1"
"pit-trial","345","1474114","0.0-261.0","battery-v0.2","","-1","g","elianto","#f73b6a7A","-1","-1","1","-10","","0","3","","","","","","","6102e88e310c20d8a6144487&order=2&STUDY_ID=61bb98616f28aedf5237274a","257","8","4","lose","no-go","1"
"pit-trial","346","1477777","0.0-262.0","battery-v0.2","","804.7000000029802","u","elianto","#3366ff99","32","32","1","+10","1655.7000000029802","1","3","","","","","","","6102e88e310c20d8a6144487&order=2&STUDY_ID=61bb98616f28aedf5237274a","258","11","1","win","go","0"
"pit-trial","347","1482280","0.0-263.0","battery-v0.2","","1650.2000000029802","l","elianto","#f73b6a7A","32","32","1","-10","2500.9000000059605","1","3","","","","","","","6102e88e310c20d8a6144487&order=2&STUDY_ID=61bb98616f28aedf5237274a","259","10","3","lose","go","1"
"pit-trial","348","1487139","0.0-264.0","battery-v0.2","","-1","a","elianto","#3366ff99","32","-1","0","+10","3544.60000000149","1","3","","","","","","","6102e88e310c20d8a6144487&order=2&STUDY_ID=61bb98616f28aedf5237274a","260","9","1","win","go","1"
