"trial_type","trial_index","time_elapsed","internal_node_id","task_version","success","view_history","rt","rune","rune_set","hex","correct","choice","accuracy","outcome","keys","total_keys","block","practice","subject","participantId","value","responses","num_errors","sub","trial","stimulus","robot","valence","action","sham"
"pavlovia","0","11","0.0-0.0","battery-v0.2","","","","","","","","","","","","","","","","","","","","","","","","","",""
"fullscreen","1","3517","0.0-1.0","battery-v0.2","true","","","","","","","","","","","","","","","","","","","","","","","","",""
"pit-instructions","2","72445","0.0-2.0-0.0","battery-v0.2","","[{""page_index"":0,""viewing_time"":4995.999999999999},{""page_index"":1,""viewing_time"":5525},{""page_index"":2,""viewing_time"":3668},{""page_index"":3,""viewing_time"":2630.0000000000036},{""page_index"":4,""viewing_time"":4067.9999999999964},{""page_index"":5,""viewing_time"":4268},{""page_index"":6,""viewing_time"":2945},{""page_index"":7,""viewing_time"":4060},{""page_index"":8,""viewing_time"":3407},{""page_index"":9,""viewing_time"":3792},{""page_index"":10,""viewing_time"":7324},{""page_index"":11,""viewing_time"":3889},{""page_index"":12,""viewing_time"":10481.000000000015},{""page_index"":13,""viewing_time"":4053.9999999999854},{""page_index"":14,""viewing_time"":3815}]","68924","","","","","","","","","","","","","","","","","","","","","","",""
"pit-trial","3","75722","0.0-2.0-1.0-0.0","battery-v0.2","","","416","&#9784;","elianto","#FFFFF080","32","32","1","&#10004","1269.9999999999854","1","0","0","6109852c8ba8cc2fd06b4253&order=&STUDY_ID=61f02a8661f82b834564f044","999","","","","","","","","","",""
"pit-trial","4","79193","0.0-2.0-1.1-0.1","battery-v0.2","","","612","&#9784;","elianto","#FFFFF080","32","32","1","&#10004","1463","1","0","0","6109852c8ba8cc2fd06b4253&order=&STUDY_ID=61f02a8661f82b834564f044","999","","","","","","","","","",""
"pit-trial","5","82528","0.0-2.0-1.2-0.2","battery-v0.2","","","477","&#9784;","elianto","#FFFFF080","32","32","1","&#10004","1327","1","0","0","6109852c8ba8cc2fd06b4253&order=&STUDY_ID=61f02a8661f82b834564f044","999","","","","","","","","","",""
"pit-trial","6","85804","0.0-2.0-1.3-0.3","battery-v0.2","","","418","&#9784;","elianto","#FFFFF080","32","32","1","&#10004","1268","1","0","0","6109852c8ba8cc2fd06b4253&order=&STUDY_ID=61f02a8661f82b834564f044","999","","","","","","","","","",""
"pit-trial","7","89102","0.0-2.0-1.4-0.4","battery-v0.2","","","440","&#9784;","elianto","#FFFFF080","32","32","1","&#10004","1291","1","0","0","6109852c8ba8cc2fd06b4253&order=&STUDY_ID=61f02a8661f82b834564f044","999","","","","","","","","","",""
"pit-instructions","8","102615","0.0-2.0-2.0","battery-v0.2","","[{""page_index"":0,""viewing_time"":3334},{""page_index"":1,""viewing_time"":5131.000000000015},{""page_index"":2,""viewing_time"":2604.9999999999854},{""page_index"":3,""viewing_time"":2438}]","13508","","","","","","","","","","","","","","","","","","","","","","",""
"pit-trial","9","107471","0.0-2.0-3.0-0.0","battery-v0.2","","","-1","&#9854;","elianto","#FFFFF080","-1","-1","1","&#10004","","0","0","1","6109852c8ba8cc2fd06b4253&order=&STUDY_ID=61f02a8661f82b834564f044","999","","","","","","","","","",""
"pit-trial","10","112329","0.0-2.0-3.1-0.1","battery-v0.2","","","-1","&#9854;","elianto","#FFFFF080","-1","-1","1","&#10004","","0","0","1","6109852c8ba8cc2fd06b4253&order=&STUDY_ID=61f02a8661f82b834564f044","999","","","","","","","","","",""
"pit-trial","11","117187","0.0-2.0-3.2-0.2","battery-v0.2","","","-1","&#9854;","elianto","#FFFFF080","-1","-1","1","&#10004","","0","0","1","6109852c8ba8cc2fd06b4253&order=&STUDY_ID=61f02a8661f82b834564f044","999","","","","","","","","","",""
"pit-trial","12","122045","0.0-2.0-3.3-0.3","battery-v0.2","","","-1","&#9854;","elianto","#FFFFF080","-1","-1","1","&#10004","","0","0","1","6109852c8ba8cc2fd06b4253&order=&STUDY_ID=61f02a8661f82b834564f044","999","","","","","","","","","",""
"pit-trial","13","126902","0.0-2.0-3.4-0.4","battery-v0.2","","","-1","&#9854;","elianto","#FFFFF080","-1","-1","1","&#10004","","0","0","1","6109852c8ba8cc2fd06b4253&order=&STUDY_ID=61f02a8661f82b834564f044","999","","","","","","","","","",""
"pit-instructions","14","188532","0.0-2.0-4.0","battery-v0.2","","[{""page_index"":0,""viewing_time"":2484},{""page_index"":1,""viewing_time"":4649},{""page_index"":2,""viewing_time"":4572},{""page_index"":3,""viewing_time"":1700},{""page_index"":4,""viewing_time"":1908},{""page_index"":5,""viewing_time"":2533},{""page_index"":6,""viewing_time"":3582},{""page_index"":7,""viewing_time"":5840},{""page_index"":8,""viewing_time"":3015},{""page_index"":9,""viewing_time"":2846.000000000029},{""page_index"":10,""viewing_time"":4318.999999999971},{""page_index"":11,""viewing_time"":1738},{""page_index"":12,""viewing_time"":3422},{""page_index"":13,""viewing_time"":1644},{""page_index"":14,""viewing_time"":3931.000000000029},{""page_index"":15,""viewing_time"":2934.999999999971},{""page_index"":16,""viewing_time"":6875},{""page_index"":17,""viewing_time"":3632}]","61626","","","","","","","","","","","","","","","","","","","","","","",""
"pit-trial","15","191809","0.0-2.0-5.0-0.0","battery-v0.2","","","421","&#9776;","elianto","#3366ff99","32","32","1","+10","1270.999999999971","1","0","1","6109852c8ba8cc2fd06b4253&order=&STUDY_ID=61f02a8661f82b834564f044","999","","","","","","","","","",""
"pit-trial","16","195060","0.0-2.0-5.0-1.0","battery-v0.2","","","394","&#9776;","elianto","#3366ff99","32","32","1","+10","1244","1","0","1","6109852c8ba8cc2fd06b4253&order=&STUDY_ID=61f02a8661f82b834564f044","999","","","","","","","","","",""
"pit-trial","17","198298","0.0-2.0-5.0-2.0","battery-v0.2","","","381","&#9776;","elianto","#3366ff99","32","32","1","+10","1231","1","0","1","6109852c8ba8cc2fd06b4253&order=&STUDY_ID=61f02a8661f82b834564f044","999","","","","","","","","","",""
"pit-trial","18","201572","0.0-2.0-5.0-3.0","battery-v0.2","","","417","&#9776;","elianto","#3366ff99","32","32","1","0","1267","1","0","1","6109852c8ba8cc2fd06b4253&order=&STUDY_ID=61f02a8661f82b834564f044","999","","","","","","","","","",""
"pit-trial","19","204867","0.0-2.0-5.0-4.0","battery-v0.2","","","437","&#9776;","elianto","#3366ff99","32","32","1","+10","1288","1","0","1","6109852c8ba8cc2fd06b4253&order=&STUDY_ID=61f02a8661f82b834564f044","999","","","","","","","","","",""
"call-function","20","204871","0.0-2.0-6.0","battery-v0.2","","","","","","","","","","","","","","","","","","","","","","","","","",""
"pit-instructions","21","227436","0.0-2.0-7.0","battery-v0.2","","[{""page_index"":0,""viewing_time"":3411},{""page_index"":1,""viewing_time"":4201},{""page_index"":2,""viewing_time"":2333},{""page_index"":3,""viewing_time"":3950.000000000029},{""page_index"":4,""viewing_time"":4203.999999999971},{""page_index"":5,""viewing_time"":4465}]","22564","","","","","","","","","","","","","","","","","","","","","","",""
"pit-trial","22","230715","0.0-2.0-8.0-0.0","battery-v0.2","","","421.9999999999709","&#9761;","elianto","#3366ff99","-1","32","0","0","1272.999999999971","1","0","2","6109852c8ba8cc2fd06b4253&order=&STUDY_ID=61f02a8661f82b834564f044","999","","","","","","","","","",""
"pit-trial","23","234009","0.0-2.0-8.0-1.0","battery-v0.2","","","435.9999999999709","&#9761;","elianto","#3366ff99","-1","32","0","0","1286.999999999971","1","0","2","6109852c8ba8cc2fd06b4253&order=&STUDY_ID=61f02a8661f82b834564f044","999","","","","","","","","","",""
"pit-trial","24","238867","0.0-2.0-8.0-2.0","battery-v0.2","","","-1","&#9761;","elianto","#3366ff99","-1","-1","1","+10","","0","0","2","6109852c8ba8cc2fd06b4253&order=&STUDY_ID=61f02a8661f82b834564f044","999","","","","","","","","","",""
"pit-trial","25","243724","0.0-2.0-8.0-3.0","battery-v0.2","","","-1","&#9761;","elianto","#3366ff99","-1","-1","1","0","","0","0","2","6109852c8ba8cc2fd06b4253&order=&STUDY_ID=61f02a8661f82b834564f044","999","","","","","","","","","",""
"pit-trial","26","248581","0.0-2.0-8.0-4.0","battery-v0.2","","","-1","&#9761;","elianto","#3366ff99","-1","-1","1","+10","","0","0","2","6109852c8ba8cc2fd06b4253&order=&STUDY_ID=61f02a8661f82b834564f044","999","","","","","","","","","",""
"pit-trial","27","253439","0.0-2.0-8.1-0.1","battery-v0.2","","","-1","&#9761;","elianto","#3366ff99","-1","-1","1","+10","","0","0","2","6109852c8ba8cc2fd06b4253&order=&STUDY_ID=61f02a8661f82b834564f044","999","","","","","","","","","",""
"pit-trial","28","258297","0.0-2.0-8.1-1.1","battery-v0.2","","","-1","&#9761;","elianto","#3366ff99","-1","-1","1","+10","","0","0","2","6109852c8ba8cc2fd06b4253&order=&STUDY_ID=61f02a8661f82b834564f044","999","","","","","","","","","",""
"pit-trial","29","263154","0.0-2.0-8.1-2.1","battery-v0.2","","","-1","&#9761;","elianto","#3366ff99","-1","-1","1","+10","","0","0","2","6109852c8ba8cc2fd06b4253&order=&STUDY_ID=61f02a8661f82b834564f044","999","","","","","","","","","",""
"pit-trial","30","268012","0.0-2.0-8.1-3.1","battery-v0.2","","","-1","&#9761;","elianto","#3366ff99","-1","-1","1","0","","0","0","2","6109852c8ba8cc2fd06b4253&order=&STUDY_ID=61f02a8661f82b834564f044","999","","","","","","","","","",""
"pit-trial","31","272870","0.0-2.0-8.1-4.1","battery-v0.2","","","-1","&#9761;","elianto","#3366ff99","-1","-1","1","+10","","0","0","2","6109852c8ba8cc2fd06b4253&order=&STUDY_ID=61f02a8661f82b834564f044","999","","","","","","","","","",""
"call-function","32","272873","0.0-2.0-9.0","battery-v0.2","","","","","","","","","","","","","","","","","","","","","","","","","",""
"pit-instructions","33","287533","0.0-2.0-10.0","battery-v0.2","","[{""page_index"":0,""viewing_time"":3413},{""page_index"":1,""viewing_time"":2446},{""page_index"":2,""viewing_time"":2109},{""page_index"":3,""viewing_time"":3875},{""page_index"":4,""viewing_time"":2815}]","14659","","","","","","","","","","","","","","","","","","","","","","",""
"pit-trial","34","290854","0.0-2.0-11.0-0.0","battery-v0.2","","","464","&#9826;","elianto","#f73b6a7A","-1","32","0","-10","1314","1","0","3","6109852c8ba8cc2fd06b4253&order=&STUDY_ID=61f02a8661f82b834564f044","999","","","","","","","","","",""
"pit-trial","35","295711","0.0-2.0-11.0-1.0","battery-v0.2","","","-1","&#9826;","elianto","#f73b6a7A","-1","-1","1","0","","0","0","3","6109852c8ba8cc2fd06b4253&order=&STUDY_ID=61f02a8661f82b834564f044","999","","","","","","","","","",""
"pit-trial","36","300568","0.0-2.0-11.0-2.0","battery-v0.2","","","-1","&#9826;","elianto","#f73b6a7A","-1","-1","1","0","","0","0","3","6109852c8ba8cc2fd06b4253&order=&STUDY_ID=61f02a8661f82b834564f044","999","","","","","","","","","",""
"pit-trial","37","305426","0.0-2.0-11.0-3.0","battery-v0.2","","","-1","&#9826;","elianto","#f73b6a7A","-1","-1","1","-10","","0","0","3","6109852c8ba8cc2fd06b4253&order=&STUDY_ID=61f02a8661f82b834564f044","999","","","","","","","","","",""
"pit-trial","38","310286","0.0-2.0-11.0-4.0","battery-v0.2","","","-1","&#9826;","elianto","#f73b6a7A","-1","-1","1","0","","0","0","3","6109852c8ba8cc2fd06b4253&order=&STUDY_ID=61f02a8661f82b834564f044","999","","","","","","","","","",""
"call-function","39","310290","0.0-2.0-12.0","battery-v0.2","","","","","","","","","","","","","","","","","","","","","","","","","",""
"pit-instructions","40","320619","0.0-2.0-13.0","battery-v0.2","","[{""page_index"":0,""viewing_time"":3842},{""page_index"":1,""viewing_time"":2566},{""page_index"":2,""viewing_time"":1305},{""page_index"":3,""viewing_time"":2614.000000000058}]","10328","","","","","","","","","","","","","","","","","","","","","","",""
"pit-trial","41","323899","0.0-2.0-14.0-0.0","battery-v0.2","","","422","&#9789;","elianto","#f73b6a7A","32","32","1","0","1273","1","0","4","6109852c8ba8cc2fd06b4253&order=&STUDY_ID=61f02a8661f82b834564f044","999","","","","","","","","","",""
"pit-trial","42","327143","0.0-2.0-14.0-1.0","battery-v0.2","","","388","&#9789;","elianto","#f73b6a7A","32","32","1","0","1239","1","0","4","6109852c8ba8cc2fd06b4253&order=&STUDY_ID=61f02a8661f82b834564f044","999","","","","","","","","","",""
"pit-trial","43","330352","0.0-2.0-14.0-2.0","battery-v0.2","","","353","&#9789;","elianto","#f73b6a7A","32","32","1","0","1202.9999999999418","1","0","4","6109852c8ba8cc2fd06b4253&order=&STUDY_ID=61f02a8661f82b834564f044","999","","","","","","","","","",""
"pit-trial","44","333626","0.0-2.0-14.0-3.0","battery-v0.2","","","415","&#9789;","elianto","#f73b6a7A","32","32","1","-10","1266","1","0","4","6109852c8ba8cc2fd06b4253&order=&STUDY_ID=61f02a8661f82b834564f044","999","","","","","","","","","",""
"pit-trial","45","336919","0.0-2.0-14.0-4.0","battery-v0.2","","","437","&#9789;","elianto","#f73b6a7A","32","32","1","0","1286.9999999999418","1","0","4","6109852c8ba8cc2fd06b4253&order=&STUDY_ID=61f02a8661f82b834564f044","999","","","","","","","","","",""
"call-function","46","336924","0.0-2.0-15.0","battery-v0.2","","","","","","","","","","","","","","","","","","","","","","","","","",""
"pit-instructions","47","369291","0.0-2.0-16.0","battery-v0.2","","[{""page_index"":0,""viewing_time"":1923},{""page_index"":1,""viewing_time"":1956},{""page_index"":2,""viewing_time"":6726},{""page_index"":3,""viewing_time"":5834},{""page_index"":4,""viewing_time"":4883},{""page_index"":5,""viewing_time"":1916},{""page_index"":6,""viewing_time"":4053},{""page_index"":7,""viewing_time"":3303},{""page_index"":8,""viewing_time"":1773}]","32367","","","","","","","","","","","","","","","","","","","","","","",""
"pit-comprehension","48","373669","0.0-2.0-17.0-0.0","battery-v0.2","","","4372","","","","","","","","","","","","","","","SPACE","0","","","","","","",""
"pit-instructions","49","375109","0.0-2.0-17.0-1.0","battery-v0.2","","[{""page_index"":0,""viewing_time"":1406}]","1407","","","","","","","","","","","","","","","","","","","","","","",""
"pit-comprehension","50","381486","0.0-2.0-18.0-0.0","battery-v0.2","","","6371","","","","","","","","","","","","","","","10","0","","","","","","",""
"pit-instructions","51","382917","0.0-2.0-18.0-1.0","battery-v0.2","","[{""page_index"":0,""viewing_time"":1398}]","1399","","","","","","","","","","","","","","","","","","","","","","",""
"pit-comprehension","52","390826","0.0-2.0-19.0-0.0","battery-v0.2","","","7903.000000000058","","","","","","","","","","","","","","","0","0","","","","","","",""
"pit-instructions","53","392201","0.0-2.0-19.0-1.0","battery-v0.2","","[{""page_index"":0,""viewing_time"":1343.0000000000582}]","1344","","","","","","","","","","","","","","","","","","","","","","",""
"pit-comprehension","54","408958","0.0-2.0-20.0-0.0","battery-v0.2","","","16751","","","","","","","","","","","","","","","True","0","","","","","","",""
"pit-instructions","55","410317","0.0-2.0-20.0-1.0","battery-v0.2","","[{""page_index"":0,""viewing_time"":1325.9999999999418}]","1327","","","","","","","","","","","","","","","","","","","","","","",""
"pit-comprehension","56","415347","0.0-2.0-21.0-0.0","battery-v0.2","","","5023","","","","","","","","","","","","","","","True","0","","","","","","",""
"pit-instructions","57","416707","0.0-2.0-21.0-1.0","battery-v0.2","","[{""page_index"":0,""viewing_time"":1324}]","1325","","","","","","","","","","","","","","","","","","","","","","",""
"pit-comprehension","58","422854","0.0-2.0-22.0-0.0","battery-v0.2","","","6139.000000000058","","","","","","","","","","","","","","","True","0","","","","","","",""
"pit-instructions","59","424262","0.0-2.0-22.0-1.0","battery-v0.2","","[{""page_index"":0,""viewing_time"":1372.9999999999418}]","1372.9999999999418","","","","","","","","","","","","","","","","","","","","","","",""
"pit-comprehension","60","428049","0.0-2.0-23.0-0.0","battery-v0.2","","","3781","","","","","","","","","","","","","","","False","0","","","","","","",""
"pit-instructions","61","429328","0.0-2.0-23.0-1.0","battery-v0.2","","[{""page_index"":0,""viewing_time"":1242}]","1243","","","","","","","","","","","","","","","","","","","","","","",""
"pit-instructions","62","438411","0.0-3.0","battery-v0.2","","[{""page_index"":0,""viewing_time"":1613},{""page_index"":1,""viewing_time"":2758},{""page_index"":2,""viewing_time"":4706}]","9077","","","","","","","","","","","","","","","","","","","","","","",""
"pit-trial","63","441726","0.0-4.0","battery-v0.2","","","454","&#9730;","elianto","#3366ff99","32","32","1","+10","1305","1","1","","","","","","","6109852c8ba8cc2fd06b4253&order=&STUDY_ID=61f02a8661f82b834564f044","1","1","1","win","go","0"
"pit-trial","64","445035","0.0-5.0","battery-v0.2","","","448","&#9733;","elianto","#3366ff99","-1","32","0","0","1299","1","1","","","","","","","6109852c8ba8cc2fd06b4253&order=&STUDY_ID=61f02a8661f82b834564f044","2","2","2","win","no-go","0"
"pit-trial","65","448957","0.0-6.0","battery-v0.2","","","1061.9999999999418","&#9752;","elianto","#f73b6a7A","32","32","1","0","1911.9999999999418","1","1","","","","","","","6109852c8ba8cc2fd06b4253&order=&STUDY_ID=61f02a8661f82b834564f044","3","3","3","lose","go","0"
"pit-trial","66","452381","0.0-7.0","battery-v0.2","","","565","&#9728;","elianto","#f73b6a7A","-1","32","0","-10","1416","1","1","","","","","","","6109852c8ba8cc2fd06b4253&order=&STUDY_ID=61f02a8661f82b834564f044","4","0","4","lose","no-go","0"
"pit-trial","67","457242","0.0-8.0","battery-v0.2","","","-1","&#9728;","elianto","#f73b6a7A","-1","-1","1","-10","","0","1","","","","","","","6109852c8ba8cc2fd06b4253&order=&STUDY_ID=61f02a8661f82b834564f044","5","0","4","lose","no-go","1"
"pit-trial","68","460922","0.0-9.0","battery-v0.2","","","820","&#9730;","elianto","#3366ff99","32","32","1","+10","1671","1","1","","","","","","","6109852c8ba8cc2fd06b4253&order=&STUDY_ID=61f02a8661f82b834564f044","6","1","1","win","go","0"
"pit-trial","69","464633","0.0-10.0","battery-v0.2","","","853","&#9752;","elianto","#f73b6a7A","32","32","1","-10","1702.9999999999418","1","1","","","","","","","6109852c8ba8cc2fd06b4253&order=&STUDY_ID=61f02a8661f82b834564f044","7","3","3","lose","go","1"
"pit-trial","70","468308","0.0-11.0","battery-v0.2","","","807","&#9733;","elianto","#3366ff99","-1","32","0","0","1658","1","1","","","","","","","6109852c8ba8cc2fd06b4253&order=&STUDY_ID=61f02a8661f82b834564f044","8","2","2","win","no-go","0"
"pit-trial","71","473169","0.0-12.0","battery-v0.2","","","-1","&#9752;","elianto","#f73b6a7A","32","-1","0","0","","0","1","","","","","","","6109852c8ba8cc2fd06b4253&order=&STUDY_ID=61f02a8661f82b834564f044","9","3","3","lose","go","1"
"pit-trial","72","476905","0.0-13.0","battery-v0.2","","","875","&#9730;","elianto","#3366ff99","32","32","1","0","1727","1","1","","","","","","","6109852c8ba8cc2fd06b4253&order=&STUDY_ID=61f02a8661f82b834564f044","10","1","1","win","go","1"
"pit-trial","73","480480","0.0-14.0","battery-v0.2","","","715","&#9733;","elianto","#3366ff99","-1","32","0","0","1565","1","1","","","","","","","6109852c8ba8cc2fd06b4253&order=&STUDY_ID=61f02a8661f82b834564f044","11","2","2","win","no-go","0"
"pit-trial","74","484002","0.0-15.0","battery-v0.2","","","661","&#9728;","elianto","#f73b6a7A","-1","32","0","-10","1512","1","1","","","","","","","6109852c8ba8cc2fd06b4253&order=&STUDY_ID=61f02a8661f82b834564f044","12","0","4","lose","no-go","0"
"pit-trial","75","487592","0.0-16.0","battery-v0.2","","","729","&#9752;","elianto","#f73b6a7A","32","32","1","0","1581","1","1","","","","","","","6109852c8ba8cc2fd06b4253&order=&STUDY_ID=61f02a8661f82b834564f044","13","3","3","lose","go","0"
"pit-trial","76","490983","0.0-17.0","battery-v0.2","","","530","&#9733;","elianto","#3366ff99","-1","32","0","0","1381","1","1","","","","","","","6109852c8ba8cc2fd06b4253&order=&STUDY_ID=61f02a8661f82b834564f044","14","2","2","win","no-go","0"
"pit-trial","77","495843","0.0-18.0","battery-v0.2","","","-1","&#9728;","elianto","#f73b6a7A","-1","-1","1","0","","0","1","","","","","","","6109852c8ba8cc2fd06b4253&order=&STUDY_ID=61f02a8661f82b834564f044","15","0","4","lose","no-go","0"
"pit-trial","78","499393","0.0-19.0","battery-v0.2","","","688.9999999999418","&#9730;","elianto","#3366ff99","32","32","1","+10","1539.9999999999418","1","1","","","","","","","6109852c8ba8cc2fd06b4253&order=&STUDY_ID=61f02a8661f82b834564f044","16","1","1","win","go","0"
"pit-trial","79","504254","0.0-20.0","battery-v0.2","","","-1","&#9728;","elianto","#f73b6a7A","-1","-1","1","0","","0","1","","","","","","","6109852c8ba8cc2fd06b4253&order=&STUDY_ID=61f02a8661f82b834564f044","17","0","4","lose","no-go","0"
"pit-trial","80","508014","0.0-21.0","battery-v0.2","","","901","&#9752;","elianto","#f73b6a7A","32","32","1","0","1750.9999999999418","1","1","","","","","","","6109852c8ba8cc2fd06b4253&order=&STUDY_ID=61f02a8661f82b834564f044","18","3","3","lose","go","0"
"pit-trial","81","511589","0.0-22.0","battery-v0.2","","","715","&#9730;","elianto","#3366ff99","32","32","1","+10","1566","1","1","","","","","","","6109852c8ba8cc2fd06b4253&order=&STUDY_ID=61f02a8661f82b834564f044","19","1","1","win","go","0"
"pit-trial","82","516448","0.0-23.0","battery-v0.2","","","-1","&#9733;","elianto","#3366ff99","-1","-1","1","+10","","0","1","","","","","","","6109852c8ba8cc2fd06b4253&order=&STUDY_ID=61f02a8661f82b834564f044","20","2","2","win","no-go","0"
"pit-instructions","83","521546","0.0-24.0","battery-v0.2","","[{""page_index"":0,""viewing_time"":2260},{""page_index"":1,""viewing_time"":2830.000000000058}]","5091.000000000058","","","","","","","","","","","","","","","","","","","","","","",""
"pit-trial","84","525025","0.0-25.0","battery-v0.2","","","617.0000000000582","v","elianto","#3366ff99","-1","32","0","0","1468.0000000000582","1","2","","","","","","","6109852c8ba8cc2fd06b4253&order=&STUDY_ID=61f02a8661f82b834564f044","21","0","2","win","no-go","0"
"pit-trial","85","528504","0.0-26.0","battery-v0.2","","","617","d","elianto","#f73b6a7A","-1","32","0","-10","1468","1","2","","","","","","","6109852c8ba8cc2fd06b4253&order=&STUDY_ID=61f02a8661f82b834564f044","22","2","4","lose","no-go","0"
"pit-trial","86","531965","0.0-27.0","battery-v0.2","","","599","j","elianto","#f73b6a7A","32","32","1","0","1450","1","2","","","","","","","6109852c8ba8cc2fd06b4253&order=&STUDY_ID=61f02a8661f82b834564f044","23","1","3","lose","go","0"
"pit-trial","87","535503","0.0-28.0","battery-v0.2","","","678","k","elianto","#3366ff99","32","32","1","0","1529","1","2","","","","","","","6109852c8ba8cc2fd06b4253&order=&STUDY_ID=61f02a8661f82b834564f044","24","3","1","win","go","1"
"pit-trial","88","538929","0.0-29.0","battery-v0.2","","","567","d","elianto","#f73b6a7A","-1","32","0","-10","1417","1","2","","","","","","","6109852c8ba8cc2fd06b4253&order=&STUDY_ID=61f02a8661f82b834564f044","25","2","4","lose","no-go","0"
"pit-trial","89","542501","0.0-30.0","battery-v0.2","","","715","j","elianto","#f73b6a7A","32","32","1","0","1566","1","2","","","","","","","6109852c8ba8cc2fd06b4253&order=&STUDY_ID=61f02a8661f82b834564f044","26","1","3","lose","go","0"
"pit-trial","90","545841","0.0-31.0","battery-v0.2","","","479","k","elianto","#3366ff99","32","32","1","+10","1330","1","2","","","","","","","6109852c8ba8cc2fd06b4253&order=&STUDY_ID=61f02a8661f82b834564f044","27","3","1","win","go","0"
"pit-trial","91","549261","0.0-32.0","battery-v0.2","","","560","v","elianto","#3366ff99","-1","32","0","0","1410","1","2","","","","","","","6109852c8ba8cc2fd06b4253&order=&STUDY_ID=61f02a8661f82b834564f044","28","0","2","win","no-go","0"
"pit-trial","92","552769","0.0-33.0","battery-v0.2","","","648","v","elianto","#3366ff99","-1","32","0","0","1499","1","2","","","","","","","6109852c8ba8cc2fd06b4253&order=&STUDY_ID=61f02a8661f82b834564f044","29","0","2","win","no-go","0"
"pit-trial","93","556215","0.0-34.0","battery-v0.2","","","587","k","elianto","#3366ff99","32","32","1","+10","1436.0000000001164","1","2","","","","","","","6109852c8ba8cc2fd06b4253&order=&STUDY_ID=61f02a8661f82b834564f044","30","3","1","win","go","0"
"pit-trial","94","561076","0.0-35.0","battery-v0.2","","","-1","d","elianto","#f73b6a7A","-1","-1","1","0","","0","2","","","","","","","6109852c8ba8cc2fd06b4253&order=&STUDY_ID=61f02a8661f82b834564f044","31","2","4","lose","no-go","0"
"pit-trial","95","564654","0.0-36.0","battery-v0.2","","","718","j","elianto","#f73b6a7A","32","32","1","-10","1569","1","2","","","","","","","6109852c8ba8cc2fd06b4253&order=&STUDY_ID=61f02a8661f82b834564f044","32","1","3","lose","go","1"
"pit-trial","96","569515","0.0-37.0","battery-v0.2","","","-1","d","elianto","#f73b6a7A","-1","-1","1","0","","0","2","","","","","","","6109852c8ba8cc2fd06b4253&order=&STUDY_ID=61f02a8661f82b834564f044","33","2","4","lose","no-go","0"
"pit-trial","97","574375","0.0-38.0","battery-v0.2","","","-1","v","elianto","#3366ff99","-1","-1","1","+10","","0","2","","","","","","","6109852c8ba8cc2fd06b4253&order=&STUDY_ID=61f02a8661f82b834564f044","34","0","2","win","no-go","0"
"pit-trial","98","579235","0.0-39.0","battery-v0.2","","","-1","j","elianto","#f73b6a7A","32","-1","0","-10","","0","2","","","","","","","6109852c8ba8cc2fd06b4253&order=&STUDY_ID=61f02a8661f82b834564f044","35","1","3","lose","go","0"
"pit-trial","99","582921","0.0-40.0","battery-v0.2","","","827","k","elianto","#3366ff99","32","32","1","+10","1677.0000000001164","1","2","","","","","","","6109852c8ba8cc2fd06b4253&order=&STUDY_ID=61f02a8661f82b834564f044","36","3","1","win","go","0"
"pit-trial","100","587781","0.0-41.0","battery-v0.2","","","-1","v","elianto","#3366ff99","-1","-1","1","+10","","0","2","","","","","","","6109852c8ba8cc2fd06b4253&order=&STUDY_ID=61f02a8661f82b834564f044","37","0","2","win","no-go","0"
"pit-trial","101","592641","0.0-42.0","battery-v0.2","","","-1","d","elianto","#f73b6a7A","-1","-1","1","0","","0","2","","","","","","","6109852c8ba8cc2fd06b4253&order=&STUDY_ID=61f02a8661f82b834564f044","38","2","4","lose","no-go","0"
"pit-trial","102","596409","0.0-43.0","battery-v0.2","","","908","k","elianto","#3366ff99","32","32","1","+10","1759","1","2","","","","","","","6109852c8ba8cc2fd06b4253&order=&STUDY_ID=61f02a8661f82b834564f044","39","3","1","win","go","0"
"pit-trial","103","601269","0.0-44.0","battery-v0.2","","","-1","j","elianto","#f73b6a7A","32","-1","0","-10","","0","2","","","","","","","6109852c8ba8cc2fd06b4253&order=&STUDY_ID=61f02a8661f82b834564f044","40","1","3","lose","go","0"
"pit-trial","104","606130","0.0-45.0","battery-v0.2","","","-1","v","elianto","#3366ff99","-1","-1","1","+10","","0","2","","","","","","","6109852c8ba8cc2fd06b4253&order=&STUDY_ID=61f02a8661f82b834564f044","41","0","2","win","no-go","0"
"pit-trial","105","610991","0.0-46.0","battery-v0.2","","","-1","d","elianto","#f73b6a7A","-1","-1","1","0","","0","2","","","","","","","6109852c8ba8cc2fd06b4253&order=&STUDY_ID=61f02a8661f82b834564f044","42","2","4","lose","no-go","0"
"pit-trial","106","614372","0.0-47.0","battery-v0.2","","","522","j","elianto","#f73b6a7A","32","32","1","-10","1372","1","2","","","","","","","6109852c8ba8cc2fd06b4253&order=&STUDY_ID=61f02a8661f82b834564f044","43","1","3","lose","go","1"
"pit-trial","107","617961","0.0-48.0","battery-v0.2","","","730","k","elianto","#3366ff99","32","32","1","+10","1580","1","2","","","","","","","6109852c8ba8cc2fd06b4253&order=&STUDY_ID=61f02a8661f82b834564f044","44","3","1","win","go","0"
"pit-trial","108","621820","0.0-49.0","battery-v0.2","","","1000","v","elianto","#3366ff99","-1","32","0","0","1850","1","2","","","","","","","6109852c8ba8cc2fd06b4253&order=&STUDY_ID=61f02a8661f82b834564f044","45","0","2","win","no-go","0"
"pit-trial","109","625437","0.0-50.0","battery-v0.2","","","756","k","elianto","#3366ff99","32","32","1","+10","1607","1","2","","","","","","","6109852c8ba8cc2fd06b4253&order=&STUDY_ID=61f02a8661f82b834564f044","46","3","1","win","go","0"
"pit-trial","110","630296","0.0-51.0","battery-v0.2","","","-1","d","elianto","#f73b6a7A","-1","-1","1","0","","0","2","","","","","","","6109852c8ba8cc2fd06b4253&order=&STUDY_ID=61f02a8661f82b834564f044","47","2","4","lose","no-go","0"
"pit-trial","111","634536","0.0-52.0","battery-v0.2","","","1378","j","elianto","#f73b6a7A","32","32","1","0","2229","1","2","","","","","","","6109852c8ba8cc2fd06b4253&order=&STUDY_ID=61f02a8661f82b834564f044","48","1","3","lose","go","0"
"pit-trial","112","639396","0.0-53.0","battery-v0.2","","","-1","d","elianto","#f73b6a7A","-1","-1","1","-10","","0","2","","","","","","","6109852c8ba8cc2fd06b4253&order=&STUDY_ID=61f02a8661f82b834564f044","49","2","4","lose","no-go","1"
"pit-trial","113","643209","0.0-54.0","battery-v0.2","","","953","j","elianto","#f73b6a7A","32","32","1","0","1804","1","2","","","","","","","6109852c8ba8cc2fd06b4253&order=&STUDY_ID=61f02a8661f82b834564f044","50","1","3","lose","go","0"
"pit-trial","114","648070","0.0-55.0","battery-v0.2","","","-1","v","elianto","#3366ff99","-1","-1","1","0","","0","2","","","","","","","6109852c8ba8cc2fd06b4253&order=&STUDY_ID=61f02a8661f82b834564f044","51","0","2","win","no-go","1"
"pit-trial","115","651740","0.0-56.0","battery-v0.2","","","811.0000000001164","k","elianto","#3366ff99","32","32","1","+10","1661.0000000001164","1","2","","","","","","","6109852c8ba8cc2fd06b4253&order=&STUDY_ID=61f02a8661f82b834564f044","52","3","1","win","go","0"
"pit-trial","116","656601","0.0-57.0","battery-v0.2","","","-1","d","elianto","#f73b6a7A","-1","-1","1","0","","0","2","","","","","","","6109852c8ba8cc2fd06b4253&order=&STUDY_ID=61f02a8661f82b834564f044","53","2","4","lose","no-go","0"
"pit-trial","117","660318","0.0-58.0","battery-v0.2","","","856","e","elianto","#f73b6a7A","32","32","1","-10","1707","1","2","","","","","","","6109852c8ba8cc2fd06b4253&order=&STUDY_ID=61f02a8661f82b834564f044","54","4","3","lose","go","1"
"pit-trial","118","663950","0.0-59.0","battery-v0.2","","","773","j","elianto","#f73b6a7A","32","32","1","-10","1623","1","2","","","","","","","6109852c8ba8cc2fd06b4253&order=&STUDY_ID=61f02a8661f82b834564f044","55","1","3","lose","go","1"
"pit-trial","119","667588","0.0-60.0","battery-v0.2","","","777","w","elianto","#f73b6a7A","-1","32","0","-10","1628","1","2","","","","","","","6109852c8ba8cc2fd06b4253&order=&STUDY_ID=61f02a8661f82b834564f044","56","5","4","lose","no-go","0"
"pit-trial","120","672449","0.0-61.0","battery-v0.2","","","-1","d","elianto","#f73b6a7A","-1","-1","1","0","","0","2","","","","","","","6109852c8ba8cc2fd06b4253&order=&STUDY_ID=61f02a8661f82b834564f044","57","2","4","lose","no-go","0"
"pit-trial","121","677309","0.0-62.0","battery-v0.2","","","-1","w","elianto","#f73b6a7A","-1","-1","1","0","","0","2","","","","","","","6109852c8ba8cc2fd06b4253&order=&STUDY_ID=61f02a8661f82b834564f044","58","5","4","lose","no-go","0"
"pit-trial","122","682098","0.0-63.0","battery-v0.2","","","1928","j","elianto","#f73b6a7A","32","32","1","0","2779","1","2","","","","","","","6109852c8ba8cc2fd06b4253&order=&STUDY_ID=61f02a8661f82b834564f044","59","1","3","lose","go","0"
"pit-trial","123","686957","0.0-64.0","battery-v0.2","","","-1","e","elianto","#f73b6a7A","32","-1","0","0","","0","2","","","","","","","6109852c8ba8cc2fd06b4253&order=&STUDY_ID=61f02a8661f82b834564f044","60","4","3","lose","go","1"
"pit-trial","124","690618","0.0-65.0","battery-v0.2","","","801","s","elianto","#3366ff99","-1","32","0","0","1652","1","2","","","","","","","6109852c8ba8cc2fd06b4253&order=&STUDY_ID=61f02a8661f82b834564f044","61","6","2","win","no-go","0"
"pit-trial","125","695478","0.0-66.0","battery-v0.2","","","-1","e","elianto","#f73b6a7A","32","-1","0","-10","","0","2","","","","","","","6109852c8ba8cc2fd06b4253&order=&STUDY_ID=61f02a8661f82b834564f044","62","4","3","lose","go","0"
"pit-trial","126","699200","0.0-67.0","battery-v0.2","","","861","w","elianto","#f73b6a7A","-1","32","0","0","1712","1","2","","","","","","","6109852c8ba8cc2fd06b4253&order=&STUDY_ID=61f02a8661f82b834564f044","63","5","4","lose","no-go","1"
"pit-trial","127","704059","0.0-68.0","battery-v0.2","","","-1","d","elianto","#f73b6a7A","-1","-1","1","0","","0","2","","","","","","","6109852c8ba8cc2fd06b4253&order=&STUDY_ID=61f02a8661f82b834564f044","64","2","4","lose","no-go","0"
"pit-trial","128","708919","0.0-69.0","battery-v0.2","","","-1","s","elianto","#3366ff99","-1","-1","1","0","","0","2","","","","","","","6109852c8ba8cc2fd06b4253&order=&STUDY_ID=61f02a8661f82b834564f044","65","6","2","win","no-go","1"
"pit-trial","129","713545","0.0-70.0","battery-v0.2","","","1765","e","elianto","#f73b6a7A","32","32","1","0","2616","1","2","","","","","","","6109852c8ba8cc2fd06b4253&order=&STUDY_ID=61f02a8661f82b834564f044","66","4","3","lose","go","0"
"pit-trial","130","717166","0.0-71.0","battery-v0.2","","","761.0000000001164","w","elianto","#f73b6a7A","-1","32","0","-10","1613.0000000001164","1","2","","","","","","","6109852c8ba8cc2fd06b4253&order=&STUDY_ID=61f02a8661f82b834564f044","67","5","4","lose","no-go","0"
"pit-trial","131","722027","0.0-72.0","battery-v0.2","","","-1","d","elianto","#f73b6a7A","-1","-1","1","0","","0","2","","","","","","","6109852c8ba8cc2fd06b4253&order=&STUDY_ID=61f02a8661f82b834564f044","68","2","4","lose","no-go","0"
"pit-trial","132","725451","0.0-73.0","battery-v0.2","","","563","s","elianto","#3366ff99","-1","32","0","0","1414","1","2","","","","","","","6109852c8ba8cc2fd06b4253&order=&STUDY_ID=61f02a8661f82b834564f044","69","6","2","win","no-go","0"
"pit-trial","133","729580","0.0-74.0","battery-v0.2","","","1269.9999999998836","p","elianto","#3366ff99","32","32","1","+10","2120","1","2","","","","","","","6109852c8ba8cc2fd06b4253&order=&STUDY_ID=61f02a8661f82b834564f044","70","7","1","win","go","0"
"pit-trial","134","734441","0.0-75.0","battery-v0.2","","","-1","w","elianto","#f73b6a7A","-1","-1","1","0","","0","2","","","","","","","6109852c8ba8cc2fd06b4253&order=&STUDY_ID=61f02a8661f82b834564f044","71","5","4","lose","no-go","0"
"pit-trial","135","738586","0.0-76.0","battery-v0.2","","","1285","e","elianto","#f73b6a7A","32","32","1","0","2136","1","2","","","","","","","6109852c8ba8cc2fd06b4253&order=&STUDY_ID=61f02a8661f82b834564f044","72","4","3","lose","go","0"
"pit-trial","136","742218","0.0-77.0","battery-v0.2","","","774","e","elianto","#f73b6a7A","32","32","1","0","1623","1","2","","","","","","","6109852c8ba8cc2fd06b4253&order=&STUDY_ID=61f02a8661f82b834564f044","73","4","3","lose","go","0"
"pit-trial","137","747079","0.0-78.0","battery-v0.2","","","-1","w","elianto","#f73b6a7A","-1","-1","1","0","3040.9999999998836","1","2","","","","","","","6109852c8ba8cc2fd06b4253&order=&STUDY_ID=61f02a8661f82b834564f044","74","5","4","lose","no-go","0"
"pit-trial","138","750745","0.0-79.0","battery-v0.2","","","805.9999999998836","s","elianto","#3366ff99","-1","32","0","0","1656.9999999998836","1","2","","","","","","","6109852c8ba8cc2fd06b4253&order=&STUDY_ID=61f02a8661f82b834564f044","75","6","2","win","no-go","0"
"pit-trial","139","754395","0.0-80.0","battery-v0.2","","","789","p","elianto","#3366ff99","32","32","1","+10","1641","1","2","","","","","","","6109852c8ba8cc2fd06b4253&order=&STUDY_ID=61f02a8661f82b834564f044","76","7","1","win","go","0"
"pit-trial","140","759254","0.0-81.0","battery-v0.2","","","-1","w","elianto","#f73b6a7A","-1","-1","1","0","","0","2","","","","","","","6109852c8ba8cc2fd06b4253&order=&STUDY_ID=61f02a8661f82b834564f044","77","5","4","lose","no-go","0"
"pit-trial","141","762752","0.0-82.0","battery-v0.2","","","638","p","elianto","#3366ff99","32","32","1","+10","1489","1","2","","","","","","","6109852c8ba8cc2fd06b4253&order=&STUDY_ID=61f02a8661f82b834564f044","78","7","1","win","go","0"
"pit-trial","142","767425","0.0-83.0","battery-v0.2","","","1813","e","elianto","#f73b6a7A","32","32","1","0","2664","1","2","","","","","","","6109852c8ba8cc2fd06b4253&order=&STUDY_ID=61f02a8661f82b834564f044","79","4","3","lose","go","0"
"pit-trial","143","770897","0.0-84.0","battery-v0.2","","","612","s","elianto","#3366ff99","-1","32","0","0","1462","1","2","","","","","","","6109852c8ba8cc2fd06b4253&order=&STUDY_ID=61f02a8661f82b834564f044","80","6","2","win","no-go","0"
"pit-trial","144","774971","0.0-85.0","battery-v0.2","","","1211","e","elianto","#f73b6a7A","32","32","1","0","2064","1","2","","","","","","","6109852c8ba8cc2fd06b4253&order=&STUDY_ID=61f02a8661f82b834564f044","81","4","3","lose","go","0"
"pit-trial","145","778622","0.0-86.0","battery-v0.2","","","792","p","elianto","#3366ff99","32","32","1","0","1643","1","2","","","","","","","6109852c8ba8cc2fd06b4253&order=&STUDY_ID=61f02a8661f82b834564f044","82","7","1","win","go","1"
"pit-trial","146","782182","0.0-87.0","battery-v0.2","","","700","s","elianto","#3366ff99","-1","32","0","+10","1551","1","2","","","","","","","6109852c8ba8cc2fd06b4253&order=&STUDY_ID=61f02a8661f82b834564f044","83","6","2","win","no-go","1"
"pit-trial","147","786323","0.0-88.0","battery-v0.2","","","1282","w","elianto","#f73b6a7A","-1","32","0","-10","2132","1","2","","","","","","","6109852c8ba8cc2fd06b4253&order=&STUDY_ID=61f02a8661f82b834564f044","84","5","4","lose","no-go","0"
"pit-trial","148","789863","0.0-89.0","battery-v0.2","","","679","s","elianto","#3366ff99","-1","32","0","0","1530","1","2","","","","","","","6109852c8ba8cc2fd06b4253&order=&STUDY_ID=61f02a8661f82b834564f044","85","6","2","win","no-go","0"
"pit-trial","149","794724","0.0-90.0","battery-v0.2","","","-1","w","elianto","#f73b6a7A","-1","-1","1","0","","0","2","","","","","","","6109852c8ba8cc2fd06b4253&order=&STUDY_ID=61f02a8661f82b834564f044","86","5","4","lose","no-go","0"
"pit-trial","150","799115","0.0-91.0","battery-v0.2","","","1532","e","elianto","#f73b6a7A","32","32","1","0","2383","1","2","","","","","","","6109852c8ba8cc2fd06b4253&order=&STUDY_ID=61f02a8661f82b834564f044","87","4","3","lose","go","0"
"pit-trial","151","802841","0.0-92.0","battery-v0.2","","","865.9999999998836","p","elianto","#3366ff99","32","32","1","+10","1716.9999999998836","1","2","","","","","","","6109852c8ba8cc2fd06b4253&order=&STUDY_ID=61f02a8661f82b834564f044","88","7","1","win","go","0"
"pit-trial","152","806827","0.0-93.0","battery-v0.2","","","1125","e","elianto","#f73b6a7A","32","32","1","0","1976","1","2","","","","","","","6109852c8ba8cc2fd06b4253&order=&STUDY_ID=61f02a8661f82b834564f044","89","4","3","lose","go","0"
"pit-trial","153","810358","0.0-94.0","battery-v0.2","","","669.9999999998836","p","elianto","#3366ff99","32","32","1","+10","1520.9999999998836","1","2","","","","","","","6109852c8ba8cc2fd06b4253&order=&STUDY_ID=61f02a8661f82b834564f044","90","7","1","win","go","0"
"pit-trial","154","813824","0.0-95.0","battery-v0.2","","","606","s","elianto","#3366ff99","-1","32","0","0","1457","1","2","","","","","","","6109852c8ba8cc2fd06b4253&order=&STUDY_ID=61f02a8661f82b834564f044","91","6","2","win","no-go","0"
"pit-trial","155","818684","0.0-96.0","battery-v0.2","","","-1","w","elianto","#f73b6a7A","-1","-1","1","0","","0","2","","","","","","","6109852c8ba8cc2fd06b4253&order=&STUDY_ID=61f02a8661f82b834564f044","92","5","4","lose","no-go","0"
"pit-trial","156","823544","0.0-97.0","battery-v0.2","","","-1","s","elianto","#3366ff99","-1","-1","1","0","","0","2","","","","","","","6109852c8ba8cc2fd06b4253&order=&STUDY_ID=61f02a8661f82b834564f044","93","6","2","win","no-go","1"
"pit-trial","157","827250","0.0-98.0","battery-v0.2","","","845","p","elianto","#3366ff99","32","32","1","+10","1696","1","2","","","","","","","6109852c8ba8cc2fd06b4253&order=&STUDY_ID=61f02a8661f82b834564f044","94","7","1","win","go","0"
"pit-trial","158","831173","0.0-99.0","battery-v0.2","","","1062.9999999998836","e","elianto","#f73b6a7A","32","32","1","0","1913","1","2","","","","","","","6109852c8ba8cc2fd06b4253&order=&STUDY_ID=61f02a8661f82b834564f044","95","4","3","lose","go","0"
"pit-trial","159","834883","0.0-100.0","battery-v0.2","","","850.0000000001164","g","elianto","#3366ff99","32","32","1","+10","1701.0000000001164","1","2","","","","","","","6109852c8ba8cc2fd06b4253&order=&STUDY_ID=61f02a8661f82b834564f044","96","8","1","win","go","0"
"pit-trial","160","839021","0.0-101.0","battery-v0.2","","","1279","e","elianto","#f73b6a7A","32","32","1","0","2129","1","2","","","","","","","6109852c8ba8cc2fd06b4253&order=&STUDY_ID=61f02a8661f82b834564f044","97","4","3","lose","go","0"
"pit-trial","161","843882","0.0-102.0","battery-v0.2","","","-1","s","elianto","#3366ff99","-1","-1","1","0","","0","2","","","","","","","6109852c8ba8cc2fd06b4253&order=&STUDY_ID=61f02a8661f82b834564f044","98","6","2","win","no-go","1"
"pit-trial","162","847486","0.0-103.0","battery-v0.2","","","744","g","elianto","#3366ff99","32","32","1","0","1594","1","2","","","","","","","6109852c8ba8cc2fd06b4253&order=&STUDY_ID=61f02a8661f82b834564f044","99","8","1","win","go","1"
"pit-trial","163","850988","0.0-104.0","battery-v0.2","","","642","p","elianto","#3366ff99","32","32","1","+10","1492","1","2","","","","","","","6109852c8ba8cc2fd06b4253&order=&STUDY_ID=61f02a8661f82b834564f044","100","7","1","win","go","0"
"pit-trial","164","854654","0.0-105.0","battery-v0.2","","","806","a","elianto","#3366ff99","-1","32","0","0","1657","1","2","","","","","","","6109852c8ba8cc2fd06b4253&order=&STUDY_ID=61f02a8661f82b834564f044","101","9","2","win","no-go","0"
"pit-trial","165","858174","0.0-106.0","battery-v0.2","","","660","p","elianto","#3366ff99","32","32","1","0","1511","1","2","","","","","","","6109852c8ba8cc2fd06b4253&order=&STUDY_ID=61f02a8661f82b834564f044","102","7","1","win","go","1"
"pit-trial","166","862670","0.0-107.0","battery-v0.2","","","1636.0000000001164","s","elianto","#3366ff99","-1","32","0","0","2488.0000000001164","1","2","","","","","","","6109852c8ba8cc2fd06b4253&order=&STUDY_ID=61f02a8661f82b834564f044","103","6","2","win","no-go","0"
"pit-trial","167","866192","0.0-108.0","battery-v0.2","","","663","g","elianto","#3366ff99","32","32","1","+10","1513","1","2","","","","","","","6109852c8ba8cc2fd06b4253&order=&STUDY_ID=61f02a8661f82b834564f044","104","8","1","win","go","0"
"pit-trial","168","869846","0.0-109.0","battery-v0.2","","","793","a","elianto","#3366ff99","-1","32","0","0","1645","1","2","","","","","","","6109852c8ba8cc2fd06b4253&order=&STUDY_ID=61f02a8661f82b834564f044","105","9","2","win","no-go","0"
"pit-trial","169","873449","0.0-110.0","battery-v0.2","","","741.0000000001164","g","elianto","#3366ff99","32","32","1","+10","1592","1","2","","","","","","","6109852c8ba8cc2fd06b4253&order=&STUDY_ID=61f02a8661f82b834564f044","106","8","1","win","go","0"
"pit-trial","170","878309","0.0-111.0","battery-v0.2","","","-1","s","elianto","#3366ff99","-1","-1","1","+10","","0","2","","","","","","","6109852c8ba8cc2fd06b4253&order=&STUDY_ID=61f02a8661f82b834564f044","107","6","2","win","no-go","0"
"pit-trial","171","881711","0.0-112.0","battery-v0.2","","","542","p","elianto","#3366ff99","32","32","1","+10","1391.9999999998836","1","2","","","","","","","6109852c8ba8cc2fd06b4253&order=&STUDY_ID=61f02a8661f82b834564f044","108","7","1","win","go","0"
"pit-trial","172","885539","0.0-113.0","battery-v0.2","","","969","l","elianto","#f73b6a7A","32","32","1","0","1819","1","2","","","","","","","6109852c8ba8cc2fd06b4253&order=&STUDY_ID=61f02a8661f82b834564f044","109","10","3","lose","go","0"
"pit-trial","173","889073","0.0-114.0","battery-v0.2","","","674.0000000001164","g","elianto","#3366ff99","32","32","1","+10","1525.0000000001164","1","2","","","","","","","6109852c8ba8cc2fd06b4253&order=&STUDY_ID=61f02a8661f82b834564f044","110","8","1","win","go","0"
"pit-trial","174","892806","0.0-115.0","battery-v0.2","","","872","u","elianto","#f73b6a7A","-1","32","0","-10","1724","1","2","","","","","","","6109852c8ba8cc2fd06b4253&order=&STUDY_ID=61f02a8661f82b834564f044","111","11","4","lose","no-go","0"
"pit-trial","175","896312","0.0-116.0","battery-v0.2","","","645","a","elianto","#3366ff99","-1","32","0","0","1496","1","2","","","","","","","6109852c8ba8cc2fd06b4253&order=&STUDY_ID=61f02a8661f82b834564f044","112","9","2","win","no-go","0"
"pit-trial","176","901172","0.0-117.0","battery-v0.2","","","-1","l","elianto","#f73b6a7A","32","-1","0","-10","3056.0000000001164","1","2","","","","","","","6109852c8ba8cc2fd06b4253&order=&STUDY_ID=61f02a8661f82b834564f044","113","10","3","lose","go","0"
"pit-trial","177","904790","0.0-118.0","battery-v0.2","","","758","g","elianto","#3366ff99","32","32","1","+10","1609","1","2","","","","","","","6109852c8ba8cc2fd06b4253&order=&STUDY_ID=61f02a8661f82b834564f044","114","8","1","win","go","0"
"pit-trial","178","909650","0.0-119.0","battery-v0.2","","","-1","a","elianto","#3366ff99","-1","-1","1","0","","0","2","","","","","","","6109852c8ba8cc2fd06b4253&order=&STUDY_ID=61f02a8661f82b834564f044","115","9","2","win","no-go","1"
"pit-trial","179","913500","0.0-120.0","battery-v0.2","","","990","u","elianto","#f73b6a7A","-1","32","0","-10","1839.9999999998836","1","2","","","","","","","6109852c8ba8cc2fd06b4253&order=&STUDY_ID=61f02a8661f82b834564f044","116","11","4","lose","no-go","0"
"pit-trial","180","918360","0.0-121.0","battery-v0.2","","","-1","u","elianto","#f73b6a7A","-1","-1","1","-10","","0","2","","","","","","","6109852c8ba8cc2fd06b4253&order=&STUDY_ID=61f02a8661f82b834564f044","117","11","4","lose","no-go","1"
"pit-trial","181","923221","0.0-122.0","battery-v0.2","","","-1","a","elianto","#3366ff99","-1","-1","1","+10","","0","2","","","","","","","6109852c8ba8cc2fd06b4253&order=&STUDY_ID=61f02a8661f82b834564f044","118","9","2","win","no-go","0"
"pit-trial","182","926890","0.0-123.0","battery-v0.2","","","809","g","elianto","#3366ff99","32","32","1","0","1660","1","2","","","","","","","6109852c8ba8cc2fd06b4253&order=&STUDY_ID=61f02a8661f82b834564f044","119","8","1","win","go","1"
"pit-trial","183","931426","0.0-124.0","battery-v0.2","","","1675.9999999998836","l","elianto","#f73b6a7A","32","32","1","0","2526.9999999998836","1","2","","","","","","","6109852c8ba8cc2fd06b4253&order=&STUDY_ID=61f02a8661f82b834564f044","120","10","3","lose","go","0"
"pit-trial","184","935220","0.0-125.0","battery-v0.2","","","933","l","elianto","#f73b6a7A","32","32","1","0","1785","1","2","","","","","","","6109852c8ba8cc2fd06b4253&order=&STUDY_ID=61f02a8661f82b834564f044","121","10","3","lose","go","0"
"pit-trial","185","940081","0.0-126.0","battery-v0.2","","","-1","a","elianto","#3366ff99","-1","-1","1","+10","","0","2","","","","","","","6109852c8ba8cc2fd06b4253&order=&STUDY_ID=61f02a8661f82b834564f044","122","9","2","win","no-go","0"
"pit-trial","186","943659","0.0-127.0","battery-v0.2","","","716.0000000001164","g","elianto","#3366ff99","32","32","1","+10","1567.0000000001164","1","2","","","","","","","6109852c8ba8cc2fd06b4253&order=&STUDY_ID=61f02a8661f82b834564f044","123","8","1","win","go","0"
"pit-trial","187","948519","0.0-128.0","battery-v0.2","","","-1","u","elianto","#f73b6a7A","-1","-1","1","0","","0","2","","","","","","","6109852c8ba8cc2fd06b4253&order=&STUDY_ID=61f02a8661f82b834564f044","124","11","4","lose","no-go","0"
"pit-trial","188","952033","0.0-129.0","battery-v0.2","","","656.0000000001164","g","elianto","#3366ff99","32","32","1","+10","1507.0000000001164","1","2","","","","","","","6109852c8ba8cc2fd06b4253&order=&STUDY_ID=61f02a8661f82b834564f044","125","8","1","win","go","0"
"pit-trial","189","956894","0.0-130.0","battery-v0.2","","","-1","l","elianto","#f73b6a7A","32","-1","0","-10","","0","2","","","","","","","6109852c8ba8cc2fd06b4253&order=&STUDY_ID=61f02a8661f82b834564f044","126","10","3","lose","go","0"
"pit-trial","190","961754","0.0-131.0","battery-v0.2","","","-1","u","elianto","#f73b6a7A","-1","-1","1","0","","0","2","","","","","","","6109852c8ba8cc2fd06b4253&order=&STUDY_ID=61f02a8661f82b834564f044","127","11","4","lose","no-go","0"
"pit-trial","191","966615","0.0-132.0","battery-v0.2","","","-1","a","elianto","#3366ff99","-1","-1","1","+10","","0","2","","","","","","","6109852c8ba8cc2fd06b4253&order=&STUDY_ID=61f02a8661f82b834564f044","128","9","2","win","no-go","0"
"pit-trial","192","970237","0.0-133.0","battery-v0.2","","","761.9999999998836","g","elianto","#3366ff99","32","32","1","+10","1612","1","2","","","","","","","6109852c8ba8cc2fd06b4253&order=&STUDY_ID=61f02a8661f82b834564f044","129","8","1","win","go","0"
"pit-trial","193","975096","0.0-134.0","battery-v0.2","","","-1","u","elianto","#f73b6a7A","-1","-1","1","0","","0","2","","","","","","","6109852c8ba8cc2fd06b4253&order=&STUDY_ID=61f02a8661f82b834564f044","130","11","4","lose","no-go","0"
"pit-trial","194","979957","0.0-135.0","battery-v0.2","","","-1","a","elianto","#3366ff99","-1","-1","1","+10","","0","2","","","","","","","6109852c8ba8cc2fd06b4253&order=&STUDY_ID=61f02a8661f82b834564f044","131","9","2","win","no-go","0"
"pit-trial","195","983386","0.0-136.0","battery-v0.2","","","569","l","elianto","#f73b6a7A","32","32","1","0","1420","1","2","","","","","","","6109852c8ba8cc2fd06b4253&order=&STUDY_ID=61f02a8661f82b834564f044","132","10","3","lose","go","0"
"pit-trial","196","988246","0.0-137.0","battery-v0.2","","","-1","a","elianto","#3366ff99","-1","-1","1","+10","","0","2","","","","","","","6109852c8ba8cc2fd06b4253&order=&STUDY_ID=61f02a8661f82b834564f044","133","9","2","win","no-go","0"
"pit-trial","197","991853","0.0-138.0","battery-v0.2","","","747","l","elianto","#f73b6a7A","32","32","1","0","1598","1","2","","","","","","","6109852c8ba8cc2fd06b4253&order=&STUDY_ID=61f02a8661f82b834564f044","134","10","3","lose","go","0"
"pit-trial","198","996713","0.0-139.0","battery-v0.2","","","-1","u","elianto","#f73b6a7A","-1","-1","1","0","","0","2","","","","","","","6109852c8ba8cc2fd06b4253&order=&STUDY_ID=61f02a8661f82b834564f044","135","11","4","lose","no-go","0"
"pit-trial","199","1000297","0.0-140.0","battery-v0.2","","","724","g","elianto","#3366ff99","32","32","1","+10","1574","1","2","","","","","","","6109852c8ba8cc2fd06b4253&order=&STUDY_ID=61f02a8661f82b834564f044","136","8","1","win","go","0"
"pit-trial","200","1004509","0.0-141.0","battery-v0.2","","","1353","l","elianto","#f73b6a7A","32","32","1","0","2202.9999999998836","1","2","","","","","","","6109852c8ba8cc2fd06b4253&order=&STUDY_ID=61f02a8661f82b834564f044","137","10","3","lose","go","0"
"pit-trial","201","1008059","0.0-142.0","battery-v0.2","","","690","g","elianto","#3366ff99","32","32","1","+10","1541","1","2","","","","","","","6109852c8ba8cc2fd06b4253&order=&STUDY_ID=61f02a8661f82b834564f044","138","8","1","win","go","0"
"pit-trial","202","1012919","0.0-143.0","battery-v0.2","","","-1","a","elianto","#3366ff99","-1","-1","1","+10","","0","2","","","","","","","6109852c8ba8cc2fd06b4253&order=&STUDY_ID=61f02a8661f82b834564f044","139","9","2","win","no-go","0"
"pit-trial","203","1017780","0.0-144.0","battery-v0.2","","","-1","u","elianto","#f73b6a7A","-1","-1","1","0","","0","2","","","","","","","6109852c8ba8cc2fd06b4253&order=&STUDY_ID=61f02a8661f82b834564f044","140","11","4","lose","no-go","0"
"pit-instructions","204","1023283","0.0-145.0","battery-v0.2","","[{""page_index"":0,""viewing_time"":2823.9999999998836},{""page_index"":1,""viewing_time"":2670.0000000001164}]","5495","","","","","","","","","","","","","","","","","","","","","","",""
"pit-trial","205","1027093","0.0-146.0","battery-v0.2","","","950.0000000001164","n","elianto","#3366ff99","-1","32","0","0","1801.0000000002328","1","3","","","","","","","6109852c8ba8cc2fd06b4253&order=&STUDY_ID=61f02a8661f82b834564f044","141","1","2","win","no-go","0"
"pit-trial","206","1030862","0.0-147.0","battery-v0.2","","","909.0000000001164","q","elianto","#3366ff99","-1","32","0","0","1760","1","3","","","","","","","6109852c8ba8cc2fd06b4253&order=&STUDY_ID=61f02a8661f82b834564f044","142","0","2","win","no-go","0"
"pit-trial","207","1034721","0.0-148.0","battery-v0.2","","","998","x","elianto","#f73b6a7A","32","32","1","0","1848.9999999998836","1","3","","","","","","","6109852c8ba8cc2fd06b4253&order=&STUDY_ID=61f02a8661f82b834564f044","143","3","3","lose","go","0"
"pit-trial","208","1038349","0.0-149.0","battery-v0.2","","","766.9999999997672","f","elianto","#3366ff99","32","32","1","+10","1618.9999999998836","1","3","","","","","","","6109852c8ba8cc2fd06b4253&order=&STUDY_ID=61f02a8661f82b834564f044","144","2","1","win","go","0"
"pit-trial","209","1042007","0.0-150.0","battery-v0.2","","","798","f","elianto","#3366ff99","32","32","1","+10","1649","1","3","","","","","","","6109852c8ba8cc2fd06b4253&order=&STUDY_ID=61f02a8661f82b834564f044","145","2","1","win","go","0"
"pit-trial","210","1045678","0.0-151.0","battery-v0.2","","","810.0000000002328","x","elianto","#f73b6a7A","32","32","1","0","1661.0000000001164","1","3","","","","","","","6109852c8ba8cc2fd06b4253&order=&STUDY_ID=61f02a8661f82b834564f044","146","3","3","lose","go","0"
"pit-trial","211","1050538","0.0-152.0","battery-v0.2","","","-1","q","elianto","#3366ff99","-1","-1","1","+10","","0","3","","","","","","","6109852c8ba8cc2fd06b4253&order=&STUDY_ID=61f02a8661f82b834564f044","147","0","2","win","no-go","0"
"pit-trial","212","1055399","0.0-153.0","battery-v0.2","","","-1","n","elianto","#3366ff99","-1","-1","1","0","","0","3","","","","","","","6109852c8ba8cc2fd06b4253&order=&STUDY_ID=61f02a8661f82b834564f044","148","1","2","win","no-go","1"
"pit-trial","213","1059005","0.0-154.0","battery-v0.2","","","747","x","elianto","#f73b6a7A","32","32","1","0","1596","1","3","","","","","","","6109852c8ba8cc2fd06b4253&order=&STUDY_ID=61f02a8661f82b834564f044","149","3","3","lose","go","0"
"pit-trial","214","1062640","0.0-155.0","battery-v0.2","","","776","f","elianto","#3366ff99","32","32","1","0","1627","1","3","","","","","","","6109852c8ba8cc2fd06b4253&order=&STUDY_ID=61f02a8661f82b834564f044","150","2","1","win","go","1"
"pit-trial","215","1067501","0.0-156.0","battery-v0.2","","","-1","q","elianto","#3366ff99","-1","-1","1","+10","","0","3","","","","","","","6109852c8ba8cc2fd06b4253&order=&STUDY_ID=61f02a8661f82b834564f044","151","0","2","win","no-go","0"
"pit-trial","216","1070907","0.0-157.0","battery-v0.2","","","546.0000000002328","n","elianto","#3366ff99","-1","32","0","0","1396.0000000002328","1","3","","","","","","","6109852c8ba8cc2fd06b4253&order=&STUDY_ID=61f02a8661f82b834564f044","152","1","2","win","no-go","0"
"pit-trial","217","1074810","0.0-158.0","battery-v0.2","","","1042","n","elianto","#3366ff99","-1","32","0","0","1893","1","3","","","","","","","6109852c8ba8cc2fd06b4253&order=&STUDY_ID=61f02a8661f82b834564f044","153","1","2","win","no-go","0"
"pit-trial","218","1078370","0.0-159.0","battery-v0.2","","","701","f","elianto","#3366ff99","32","32","1","+10","1552","1","3","","","","","","","6109852c8ba8cc2fd06b4253&order=&STUDY_ID=61f02a8661f82b834564f044","154","2","1","win","go","0"
"pit-trial","219","1081886","0.0-160.0","battery-v0.2","","","657","x","elianto","#f73b6a7A","32","32","1","0","1507","1","3","","","","","","","6109852c8ba8cc2fd06b4253&order=&STUDY_ID=61f02a8661f82b834564f044","155","3","3","lose","go","0"
"pit-trial","220","1086746","0.0-161.0","battery-v0.2","","","-1","q","elianto","#3366ff99","-1","-1","1","0","","0","3","","","","","","","6109852c8ba8cc2fd06b4253&order=&STUDY_ID=61f02a8661f82b834564f044","156","0","2","win","no-go","1"
"pit-trial","221","1091607","0.0-162.0","battery-v0.2","","","-1","q","elianto","#3366ff99","-1","-1","1","0","","0","3","","","","","","","6109852c8ba8cc2fd06b4253&order=&STUDY_ID=61f02a8661f82b834564f044","157","0","2","win","no-go","1"
"pit-trial","222","1096467","0.0-163.0","battery-v0.2","","","-1","n","elianto","#3366ff99","-1","-1","1","+10","","0","3","","","","","","","6109852c8ba8cc2fd06b4253&order=&STUDY_ID=61f02a8661f82b834564f044","158","1","2","win","no-go","0"
"pit-trial","223","1100809","0.0-164.0","battery-v0.2","","","1482.0000000002328","x","elianto","#f73b6a7A","32","32","1","0","2333.000000000233","1","3","","","","","","","6109852c8ba8cc2fd06b4253&order=&STUDY_ID=61f02a8661f82b834564f044","159","3","3","lose","go","0"
"pit-trial","224","1104247","0.0-165.0","battery-v0.2","","","579","f","elianto","#3366ff99","32","32","1","+10","1430","1","3","","","","","","","6109852c8ba8cc2fd06b4253&order=&STUDY_ID=61f02a8661f82b834564f044","160","2","1","win","go","0"
"pit-trial","225","1108239","0.0-166.0","battery-v0.2","","","1133","n","elianto","#3366ff99","-1","32","0","0","1983","1","3","","","","","","","6109852c8ba8cc2fd06b4253&order=&STUDY_ID=61f02a8661f82b834564f044","161","1","2","win","no-go","0"
"pit-trial","226","1111958","0.0-167.0","battery-v0.2","","","859","f","elianto","#3366ff99","32","32","1","+10","1710","1","3","","","","","","","6109852c8ba8cc2fd06b4253&order=&STUDY_ID=61f02a8661f82b834564f044","162","2","1","win","go","0"
"pit-trial","227","1115359","0.0-168.0","battery-v0.2","","","538","x","elianto","#f73b6a7A","32","32","1","0","1391","1","3","","","","","","","6109852c8ba8cc2fd06b4253&order=&STUDY_ID=61f02a8661f82b834564f044","163","3","3","lose","go","0"
"pit-trial","228","1119319","0.0-169.0","battery-v0.2","","","1100","q","elianto","#3366ff99","-1","32","0","0","1951,2472","2","3","","","","","","","6109852c8ba8cc2fd06b4253&order=&STUDY_ID=61f02a8661f82b834564f044","164","0","2","win","no-go","0"
"pit-trial","229","1122886","0.0-170.0","battery-v0.2","","","708","f","elianto","#3366ff99","32","32","1","+10","1558.9999999997672","1","3","","","","","","","6109852c8ba8cc2fd06b4253&order=&STUDY_ID=61f02a8661f82b834564f044","165","2","1","win","go","0"
"pit-trial","230","1127746","0.0-171.0","battery-v0.2","","","-1","q","elianto","#3366ff99","-1","-1","1","+10","","0","3","","","","","","","6109852c8ba8cc2fd06b4253&order=&STUDY_ID=61f02a8661f82b834564f044","166","0","2","win","no-go","0"
"pit-trial","231","1132606","0.0-172.0","battery-v0.2","","","-1","n","elianto","#3366ff99","-1","-1","1","+10","","0","3","","","","","","","6109852c8ba8cc2fd06b4253&order=&STUDY_ID=61f02a8661f82b834564f044","167","1","2","win","no-go","0"
"pit-trial","232","1136123","0.0-173.0","battery-v0.2","","","657","x","elianto","#f73b6a7A","32","32","1","0","1507","1","3","","","","","","","6109852c8ba8cc2fd06b4253&order=&STUDY_ID=61f02a8661f82b834564f044","168","3","3","lose","go","0"
"pit-trial","233","1140983","0.0-174.0","battery-v0.2","","","-1","n","elianto","#3366ff99","-1","-1","1","+10","","0","3","","","","","","","6109852c8ba8cc2fd06b4253&order=&STUDY_ID=61f02a8661f82b834564f044","169","1","2","win","no-go","0"
"pit-trial","234","1144565","0.0-175.0","battery-v0.2","","","722","f","elianto","#3366ff99","32","32","1","+10","1573","1","3","","","","","","","6109852c8ba8cc2fd06b4253&order=&STUDY_ID=61f02a8661f82b834564f044","170","2","1","win","go","0"
"pit-trial","235","1148117","0.0-176.0","battery-v0.2","","","691","x","elianto","#f73b6a7A","32","32","1","0","1542","1","3","","","","","","","6109852c8ba8cc2fd06b4253&order=&STUDY_ID=61f02a8661f82b834564f044","171","3","3","lose","go","0"
"pit-trial","236","1152977","0.0-177.0","battery-v0.2","","","-1","q","elianto","#3366ff99","-1","-1","1","+10","","0","3","","","","","","","6109852c8ba8cc2fd06b4253&order=&STUDY_ID=61f02a8661f82b834564f044","172","0","2","win","no-go","0"
"pit-trial","237","1156864","0.0-178.0","battery-v0.2","","","1026","b","elianto","#f73b6a7A","32","32","1","0","1877","1","3","","","","","","","6109852c8ba8cc2fd06b4253&order=&STUDY_ID=61f02a8661f82b834564f044","173","5","3","lose","go","0"
"pit-trial","238","1161724","0.0-179.0","battery-v0.2","","","-1","q","elianto","#3366ff99","-1","-1","1","+10","","0","3","","","","","","","6109852c8ba8cc2fd06b4253&order=&STUDY_ID=61f02a8661f82b834564f044","174","0","2","win","no-go","0"
"pit-trial","239","1165207","0.0-180.0","battery-v0.2","","","623","f","elianto","#3366ff99","32","32","1","+10","1474","1","3","","","","","","","6109852c8ba8cc2fd06b4253&order=&STUDY_ID=61f02a8661f82b834564f044","175","2","1","win","go","0"
"pit-trial","240","1168876","0.0-181.0","battery-v0.2","","","808","t","elianto","#f73b6a7A","-1","32","0","-10","1659","1","3","","","","","","","6109852c8ba8cc2fd06b4253&order=&STUDY_ID=61f02a8661f82b834564f044","176","4","4","lose","no-go","0"
"pit-trial","241","1172436","0.0-182.0","battery-v0.2","","","699","f","elianto","#3366ff99","32","32","1","+10","1551","1","3","","","","","","","6109852c8ba8cc2fd06b4253&order=&STUDY_ID=61f02a8661f82b834564f044","177","2","1","win","go","0"
"pit-trial","242","1176541","0.0-183.0","battery-v0.2","","","1244","b","elianto","#f73b6a7A","32","32","1","0","2095","1","3","","","","","","","6109852c8ba8cc2fd06b4253&order=&STUDY_ID=61f02a8661f82b834564f044","178","5","3","lose","go","0"
"pit-trial","243","1181401","0.0-184.0","battery-v0.2","","","-1","q","elianto","#3366ff99","-1","-1","1","0","","0","3","","","","","","","6109852c8ba8cc2fd06b4253&order=&STUDY_ID=61f02a8661f82b834564f044","179","0","2","win","no-go","1"
"pit-trial","244","1185300","0.0-185.0","battery-v0.2","","","1038","t","elianto","#f73b6a7A","-1","32","0","-10","1889","1","3","","","","","","","6109852c8ba8cc2fd06b4253&order=&STUDY_ID=61f02a8661f82b834564f044","180","4","4","lose","no-go","0"
"pit-trial","245","1190160","0.0-186.0","battery-v0.2","","","-1","t","elianto","#f73b6a7A","-1","-1","1","0","","0","3","","","","","","","6109852c8ba8cc2fd06b4253&order=&STUDY_ID=61f02a8661f82b834564f044","181","4","4","lose","no-go","0"
"pit-trial","246","1194232","0.0-187.0","battery-v0.2","","","1212","b","elianto","#f73b6a7A","32","32","1","0","2062","1","3","","","","","","","6109852c8ba8cc2fd06b4253&order=&STUDY_ID=61f02a8661f82b834564f044","182","5","3","lose","go","0"
"pit-trial","247","1197950","0.0-188.0","battery-v0.2","","","859.0000000002328","c","elianto","#3366ff99","-1","32","0","0","1708","1","3","","","","","","","6109852c8ba8cc2fd06b4253&order=&STUDY_ID=61f02a8661f82b834564f044","183","6","2","win","no-go","0"
"pit-trial","248","1201540","0.0-189.0","battery-v0.2","","","730","f","elianto","#3366ff99","32","32","1","+10","1581","1","3","","","","","","","6109852c8ba8cc2fd06b4253&order=&STUDY_ID=61f02a8661f82b834564f044","184","2","1","win","go","0"
"pit-trial","249","1205205","0.0-190.0","battery-v0.2","","","803","b","elianto","#f73b6a7A","32","32","1","-10","1654","1","3","","","","","","","6109852c8ba8cc2fd06b4253&order=&STUDY_ID=61f02a8661f82b834564f044","185","5","3","lose","go","1"
"pit-trial","250","1210064","0.0-191.0","battery-v0.2","","","-1","t","elianto","#f73b6a7A","-1","-1","1","0","","0","3","","","","","","","6109852c8ba8cc2fd06b4253&order=&STUDY_ID=61f02a8661f82b834564f044","186","4","4","lose","no-go","0"
"pit-trial","251","1214925","0.0-192.0","battery-v0.2","","","-1","c","elianto","#3366ff99","-1","-1","1","0","","0","3","","","","","","","6109852c8ba8cc2fd06b4253&order=&STUDY_ID=61f02a8661f82b834564f044","187","6","2","win","no-go","1"
"pit-trial","252","1218500","0.0-193.0","battery-v0.2","","","714","f","elianto","#3366ff99","32","32","1","+10","1564","1","3","","","","","","","6109852c8ba8cc2fd06b4253&order=&STUDY_ID=61f02a8661f82b834564f044","188","2","1","win","go","0"
"pit-trial","253","1222483","0.0-194.0","battery-v0.2","","","1122","b","elianto","#f73b6a7A","32","32","1","-10","1973","1","3","","","","","","","6109852c8ba8cc2fd06b4253&order=&STUDY_ID=61f02a8661f82b834564f044","189","5","3","lose","go","1"
"pit-trial","254","1226474","0.0-195.0","battery-v0.2","","","1129.9999999997672","c","elianto","#3366ff99","-1","32","0","0","1981","1","3","","","","","","","6109852c8ba8cc2fd06b4253&order=&STUDY_ID=61f02a8661f82b834564f044","190","6","2","win","no-go","0"
"pit-trial","255","1230356","0.0-196.0","battery-v0.2","","","1023","z","elianto","#f73b6a7A","-1","32","0","-10","1873","1","3","","","","","","","6109852c8ba8cc2fd06b4253&order=&STUDY_ID=61f02a8661f82b834564f044","191","7","4","lose","no-go","0"
"pit-trial","256","1235216","0.0-197.0","battery-v0.2","","","-1","t","elianto","#f73b6a7A","-1","-1","1","0","","0","3","","","","","","","6109852c8ba8cc2fd06b4253&order=&STUDY_ID=61f02a8661f82b834564f044","192","4","4","lose","no-go","0"
"pit-trial","257","1240077","0.0-198.0","battery-v0.2","","","-1","z","elianto","#f73b6a7A","-1","-1","1","0","","0","3","","","","","","","6109852c8ba8cc2fd06b4253&order=&STUDY_ID=61f02a8661f82b834564f044","193","7","4","lose","no-go","0"
"pit-trial","258","1244937","0.0-199.0","battery-v0.2","","","-1","t","elianto","#f73b6a7A","-1","-1","1","0","","0","3","","","","","","","6109852c8ba8cc2fd06b4253&order=&STUDY_ID=61f02a8661f82b834564f044","194","4","4","lose","no-go","0"
"pit-trial","259","1249797","0.0-200.0","battery-v0.2","","","-1","c","elianto","#3366ff99","-1","-1","1","+10","","0","3","","","","","","","6109852c8ba8cc2fd06b4253&order=&STUDY_ID=61f02a8661f82b834564f044","195","6","2","win","no-go","0"
"pit-trial","260","1253230","0.0-201.0","battery-v0.2","","","573","b","elianto","#f73b6a7A","32","32","1","0","1422","1","3","","","","","","","6109852c8ba8cc2fd06b4253&order=&STUDY_ID=61f02a8661f82b834564f044","196","5","3","lose","go","0"
"pit-trial","261","1258090","0.0-202.0","battery-v0.2","","","-1","t","elianto","#f73b6a7A","-1","-1","1","0","","0","3","","","","","","","6109852c8ba8cc2fd06b4253&order=&STUDY_ID=61f02a8661f82b834564f044","197","4","4","lose","no-go","0"
"pit-trial","262","1261863","0.0-203.0","battery-v0.2","","","913","b","elianto","#f73b6a7A","32","32","1","0","1764","1","3","","","","","","","6109852c8ba8cc2fd06b4253&order=&STUDY_ID=61f02a8661f82b834564f044","198","5","3","lose","go","0"
"pit-trial","263","1266723","0.0-204.0","battery-v0.2","","","-1","z","elianto","#f73b6a7A","-1","-1","1","0","","0","3","","","","","","","6109852c8ba8cc2fd06b4253&order=&STUDY_ID=61f02a8661f82b834564f044","199","7","4","lose","no-go","0"
"pit-trial","264","1271583","0.0-205.0","battery-v0.2","","","-1","c","elianto","#3366ff99","-1","-1","1","0","","0","3","","","","","","","6109852c8ba8cc2fd06b4253&order=&STUDY_ID=61f02a8661f82b834564f044","200","6","2","win","no-go","1"
"pit-trial","265","1276444","0.0-206.0","battery-v0.2","","","-1","z","elianto","#f73b6a7A","-1","-1","1","0","","0","3","","","","","","","6109852c8ba8cc2fd06b4253&order=&STUDY_ID=61f02a8661f82b834564f044","201","7","4","lose","no-go","0"
"pit-trial","266","1280188","0.0-207.0","battery-v0.2","","","885.0000000002328","b","elianto","#f73b6a7A","32","32","1","0","1736.0000000002328","1","3","","","","","","","6109852c8ba8cc2fd06b4253&order=&STUDY_ID=61f02a8661f82b834564f044","202","5","3","lose","go","0"
"pit-trial","267","1285048","0.0-208.0","battery-v0.2","","","-1","t","elianto","#f73b6a7A","-1","-1","1","-10","","0","3","","","","","","","6109852c8ba8cc2fd06b4253&order=&STUDY_ID=61f02a8661f82b834564f044","203","4","4","lose","no-go","1"
"pit-trial","268","1289908","0.0-209.0","battery-v0.2","","","-1","c","elianto","#3366ff99","-1","-1","1","+10","","0","3","","","","","","","6109852c8ba8cc2fd06b4253&order=&STUDY_ID=61f02a8661f82b834564f044","204","6","2","win","no-go","0"
"pit-trial","269","1294768","0.0-210.0","battery-v0.2","","","-1","z","elianto","#f73b6a7A","-1","-1","1","0","","0","3","","","","","","","6109852c8ba8cc2fd06b4253&order=&STUDY_ID=61f02a8661f82b834564f044","205","7","4","lose","no-go","0"
"pit-trial","270","1298606","0.0-211.0","battery-v0.2","","","977","b","elianto","#f73b6a7A","32","32","1","0","1828","1","3","","","","","","","6109852c8ba8cc2fd06b4253&order=&STUDY_ID=61f02a8661f82b834564f044","206","5","3","lose","go","0"
"pit-trial","271","1303465","0.0-212.0","battery-v0.2","","","-1","c","elianto","#3366ff99","-1","-1","1","+10","","0","3","","","","","","","6109852c8ba8cc2fd06b4253&order=&STUDY_ID=61f02a8661f82b834564f044","207","6","2","win","no-go","0"
"pit-trial","272","1308326","0.0-213.0","battery-v0.2","","","-1","t","elianto","#f73b6a7A","-1","-1","1","0","","0","3","","","","","","","6109852c8ba8cc2fd06b4253&order=&STUDY_ID=61f02a8661f82b834564f044","208","4","4","lose","no-go","0"
"pit-trial","273","1313186","0.0-214.0","battery-v0.2","","","-1","z","elianto","#f73b6a7A","-1","-1","1","-10","","0","3","","","","","","","6109852c8ba8cc2fd06b4253&order=&STUDY_ID=61f02a8661f82b834564f044","209","7","4","lose","no-go","1"
"pit-trial","274","1316856","0.0-215.0","battery-v0.2","","","810","b","elianto","#f73b6a7A","32","32","1","0","1661","1","3","","","","","","","6109852c8ba8cc2fd06b4253&order=&STUDY_ID=61f02a8661f82b834564f044","210","5","3","lose","go","0"
"pit-trial","275","1321715","0.0-216.0","battery-v0.2","","","-1","c","elianto","#3366ff99","-1","-1","1","0","","0","3","","","","","","","6109852c8ba8cc2fd06b4253&order=&STUDY_ID=61f02a8661f82b834564f044","211","6","2","win","no-go","1"
"pit-trial","276","1326576","0.0-217.0","battery-v0.2","","","-1","t","elianto","#f73b6a7A","-1","-1","1","0","","0","3","","","","","","","6109852c8ba8cc2fd06b4253&order=&STUDY_ID=61f02a8661f82b834564f044","212","4","4","lose","no-go","0"
"pit-trial","277","1330136","0.0-218.0","battery-v0.2","","","699","b","elianto","#f73b6a7A","32","32","1","0","1549","1","3","","","","","","","6109852c8ba8cc2fd06b4253&order=&STUDY_ID=61f02a8661f82b834564f044","213","5","3","lose","go","0"
"pit-trial","278","1334996","0.0-219.0","battery-v0.2","","","-1","c","elianto","#3366ff99","-1","-1","1","0","","0","3","","","","","","","6109852c8ba8cc2fd06b4253&order=&STUDY_ID=61f02a8661f82b834564f044","214","6","2","win","no-go","1"
"pit-trial","279","1339856","0.0-220.0","battery-v0.2","","","-1","z","elianto","#f73b6a7A","-1","-1","1","0","","0","3","","","","","","","6109852c8ba8cc2fd06b4253&order=&STUDY_ID=61f02a8661f82b834564f044","215","7","4","lose","no-go","0"
"pit-trial","280","1343778","0.0-221.0","battery-v0.2","","","1001","h","elianto","#f73b6a7A","-1","32","0","0","1852","1","3","","","","","","","6109852c8ba8cc2fd06b4253&order=&STUDY_ID=61f02a8661f82b834564f044","216","8","4","lose","no-go","1"
"pit-trial","281","1347372","0.0-222.0","battery-v0.2","","","738","h","elianto","#f73b6a7A","-1","32","0","-10","1589","1","3","","","","","","","6109852c8ba8cc2fd06b4253&order=&STUDY_ID=61f02a8661f82b834564f044","217","8","4","lose","no-go","0"
"pit-trial","282","1351519","0.0-223.0","battery-v0.2","","","1288","c","elianto","#3366ff99","-1","32","0","0","2138","1","3","","","","","","","6109852c8ba8cc2fd06b4253&order=&STUDY_ID=61f02a8661f82b834564f044","218","6","2","win","no-go","0"
"pit-trial","283","1355153","0.0-224.0","battery-v0.2","","","773","b","elianto","#f73b6a7A","32","32","1","0","1626","1","3","","","","","","","6109852c8ba8cc2fd06b4253&order=&STUDY_ID=61f02a8661f82b834564f044","219","5","3","lose","go","0"
"pit-trial","284","1360014","0.0-225.0","battery-v0.2","","","-1","z","elianto","#f73b6a7A","-1","-1","1","0","","0","3","","","","","","","6109852c8ba8cc2fd06b4253&order=&STUDY_ID=61f02a8661f82b834564f044","220","7","4","lose","no-go","0"
"pit-trial","285","1364875","0.0-226.0","battery-v0.2","","","-1","c","elianto","#3366ff99","-1","-1","1","0","","0","3","","","","","","","6109852c8ba8cc2fd06b4253&order=&STUDY_ID=61f02a8661f82b834564f044","221","6","2","win","no-go","1"
"pit-trial","286","1368655","0.0-227.0","battery-v0.2","","","921","y","elianto","#3366ff99","32","32","1","+10","1771","1","3","","","","","","","6109852c8ba8cc2fd06b4253&order=&STUDY_ID=61f02a8661f82b834564f044","222","9","1","win","go","0"
"pit-trial","287","1372567","0.0-228.0","battery-v0.2","","","1052","r","elianto","#f73b6a7A","32","32","1","0","1903","1","3","","","","","","","6109852c8ba8cc2fd06b4253&order=&STUDY_ID=61f02a8661f82b834564f044","223","10","3","lose","go","0"
"pit-trial","288","1376653","0.0-229.0","battery-v0.2","","","1225","h","elianto","#f73b6a7A","-1","32","0","-10","2076","1","3","","","","","","","6109852c8ba8cc2fd06b4253&order=&STUDY_ID=61f02a8661f82b834564f044","224","8","4","lose","no-go","0"
"pit-trial","289","1381513","0.0-230.0","battery-v0.2","","","-1","h","elianto","#f73b6a7A","-1","-1","1","0","","0","3","","","","","","","6109852c8ba8cc2fd06b4253&order=&STUDY_ID=61f02a8661f82b834564f044","225","8","4","lose","no-go","0"
"pit-trial","290","1385165","0.0-231.0","battery-v0.2","","","790","r","elianto","#f73b6a7A","32","32","1","0","1642","1","3","","","","","","","6109852c8ba8cc2fd06b4253&order=&STUDY_ID=61f02a8661f82b834564f044","226","10","3","lose","go","0"
"pit-trial","291","1390025","0.0-232.0","battery-v0.2","","","-1","c","elianto","#3366ff99","-1","-1","1","+10","","0","3","","","","","","","6109852c8ba8cc2fd06b4253&order=&STUDY_ID=61f02a8661f82b834564f044","227","6","2","win","no-go","0"
"pit-trial","292","1393608","0.0-233.0","battery-v0.2","","","724","y","elianto","#3366ff99","32","32","1","+10","1573","1","3","","","","","","","6109852c8ba8cc2fd06b4253&order=&STUDY_ID=61f02a8661f82b834564f044","228","9","1","win","go","0"
"pit-trial","293","1397213","0.0-234.0","battery-v0.2","","","746","y","elianto","#3366ff99","32","32","1","+10","1596","1","3","","","","","","","6109852c8ba8cc2fd06b4253&order=&STUDY_ID=61f02a8661f82b834564f044","229","9","1","win","go","0"
"pit-trial","294","1400939","0.0-235.0","battery-v0.2","","","864.9999999997672","m","elianto","#3366ff99","32","32","1","+10","1716","1","3","","","","","","","6109852c8ba8cc2fd06b4253&order=&STUDY_ID=61f02a8661f82b834564f044","230","11","1","win","go","0"
"pit-trial","295","1405800","0.0-236.0","battery-v0.2","","","-1","h","elianto","#f73b6a7A","-1","-1","1","0","","0","3","","","","","","","6109852c8ba8cc2fd06b4253&order=&STUDY_ID=61f02a8661f82b834564f044","231","8","4","lose","no-go","0"
"pit-trial","296","1409443","0.0-237.0","battery-v0.2","","","783","r","elianto","#f73b6a7A","32","32","1","0","1634","1","3","","","","","","","6109852c8ba8cc2fd06b4253&order=&STUDY_ID=61f02a8661f82b834564f044","232","10","3","lose","go","0"
"pit-trial","297","1412835","0.0-238.0","battery-v0.2","","","532","m","elianto","#3366ff99","32","32","1","0","1382","1","3","","","","","","","6109852c8ba8cc2fd06b4253&order=&STUDY_ID=61f02a8661f82b834564f044","233","11","1","win","go","1"
"pit-trial","298","1417695","0.0-239.0","battery-v0.2","","","-1","h","elianto","#f73b6a7A","-1","-1","1","0","","0","3","","","","","","","6109852c8ba8cc2fd06b4253&order=&STUDY_ID=61f02a8661f82b834564f044","234","8","4","lose","no-go","0"
"pit-trial","299","1421388","0.0-240.0","battery-v0.2","","","833","r","elianto","#f73b6a7A","32","32","1","0","1684","1","3","","","","","","","6109852c8ba8cc2fd06b4253&order=&STUDY_ID=61f02a8661f82b834564f044","235","10","3","lose","go","0"
"pit-trial","300","1424842","0.0-241.0","battery-v0.2","","","595.0000000002328","y","elianto","#3366ff99","32","32","1","+10","1445.0000000002328","1","3","","","","","","","6109852c8ba8cc2fd06b4253&order=&STUDY_ID=61f02a8661f82b834564f044","236","9","1","win","go","0"
"pit-trial","301","1428408","0.0-242.0","battery-v0.2","","","706","r","elianto","#f73b6a7A","32","32","1","0","1557","1","3","","","","","","","6109852c8ba8cc2fd06b4253&order=&STUDY_ID=61f02a8661f82b834564f044","237","10","3","lose","go","0"
"pit-trial","302","1431840","0.0-243.0","battery-v0.2","","","571","m","elianto","#3366ff99","32","32","1","+10","1422","1","3","","","","","","","6109852c8ba8cc2fd06b4253&order=&STUDY_ID=61f02a8661f82b834564f044","238","11","1","win","go","0"
"pit-trial","303","1436699","0.0-244.0","battery-v0.2","","","-1","h","elianto","#f73b6a7A","-1","-1","1","0","","0","3","","","","","","","6109852c8ba8cc2fd06b4253&order=&STUDY_ID=61f02a8661f82b834564f044","239","8","4","lose","no-go","0"
"pit-trial","304","1440186","0.0-245.0","battery-v0.2","","","626","y","elianto","#3366ff99","32","32","1","+10","1476.9999999997672","1","3","","","","","","","6109852c8ba8cc2fd06b4253&order=&STUDY_ID=61f02a8661f82b834564f044","240","9","1","win","go","0"
"pit-trial","305","1443766","0.0-246.0","battery-v0.2","","","718.0000000002328","y","elianto","#3366ff99","32","32","1","+10","1570.0000000002328","1","3","","","","","","","6109852c8ba8cc2fd06b4253&order=&STUDY_ID=61f02a8661f82b834564f044","241","9","1","win","go","0"
"pit-trial","306","1448626","0.0-247.0","battery-v0.2","","","-1","r","elianto","#f73b6a7A","32","-1","0","0","","0","3","","","","","","","6109852c8ba8cc2fd06b4253&order=&STUDY_ID=61f02a8661f82b834564f044","242","10","3","lose","go","1"
"pit-trial","307","1453486","0.0-248.0","battery-v0.2","","","-1","h","elianto","#f73b6a7A","-1","-1","1","0","","0","3","","","","","","","6109852c8ba8cc2fd06b4253&order=&STUDY_ID=61f02a8661f82b834564f044","243","8","4","lose","no-go","0"
"pit-trial","308","1456964","0.0-249.0","battery-v0.2","","","618","m","elianto","#3366ff99","32","32","1","+10","1467.9999999997672","1","3","","","","","","","6109852c8ba8cc2fd06b4253&order=&STUDY_ID=61f02a8661f82b834564f044","244","11","1","win","go","0"
"pit-trial","309","1460386","0.0-250.0","battery-v0.2","","","562","y","elianto","#3366ff99","32","32","1","+10","1413","1","3","","","","","","","6109852c8ba8cc2fd06b4253&order=&STUDY_ID=61f02a8661f82b834564f044","245","9","1","win","go","0"
"pit-trial","310","1465247","0.0-251.0","battery-v0.2","","","-1","h","elianto","#f73b6a7A","-1","-1","1","0","","0","3","","","","","","","6109852c8ba8cc2fd06b4253&order=&STUDY_ID=61f02a8661f82b834564f044","246","8","4","lose","no-go","0"
"pit-trial","311","1468737","0.0-252.0","battery-v0.2","","","629.0000000002328","m","elianto","#3366ff99","32","32","1","+10","1480.0000000002328","1","3","","","","","","","6109852c8ba8cc2fd06b4253&order=&STUDY_ID=61f02a8661f82b834564f044","247","11","1","win","go","0"
"pit-trial","312","1473598","0.0-253.0","battery-v0.2","","","-1","r","elianto","#f73b6a7A","32","-1","0","0","","0","3","","","","","","","6109852c8ba8cc2fd06b4253&order=&STUDY_ID=61f02a8661f82b834564f044","248","10","3","lose","go","1"
"pit-trial","313","1478458","0.0-254.0","battery-v0.2","","","-1","h","elianto","#f73b6a7A","-1","-1","1","0","","0","3","","","","","","","6109852c8ba8cc2fd06b4253&order=&STUDY_ID=61f02a8661f82b834564f044","249","8","4","lose","no-go","0"
"pit-trial","314","1481906","0.0-255.0","battery-v0.2","","","588","m","elianto","#3366ff99","32","32","1","+10","1438","1","3","","","","","","","6109852c8ba8cc2fd06b4253&order=&STUDY_ID=61f02a8661f82b834564f044","250","11","1","win","go","0"
"pit-trial","315","1486766","0.0-256.0","battery-v0.2","","","-1","r","elianto","#f73b6a7A","32","-1","0","-10","","0","3","","","","","","","6109852c8ba8cc2fd06b4253&order=&STUDY_ID=61f02a8661f82b834564f044","251","10","3","lose","go","0"
"pit-trial","316","1490340","0.0-257.0","battery-v0.2","","","714","y","elianto","#3366ff99","32","32","1","+10","1565","1","3","","","","","","","6109852c8ba8cc2fd06b4253&order=&STUDY_ID=61f02a8661f82b834564f044","252","9","1","win","go","0"
"pit-trial","317","1493838","0.0-258.0","battery-v0.2","","","639","r","elianto","#f73b6a7A","32","32","1","0","1489","1","3","","","","","","","6109852c8ba8cc2fd06b4253&order=&STUDY_ID=61f02a8661f82b834564f044","253","10","3","lose","go","0"
"pit-trial","318","1497328","0.0-259.0","battery-v0.2","","","630","y","elianto","#3366ff99","32","32","1","0","1481","1","3","","","","","","","6109852c8ba8cc2fd06b4253&order=&STUDY_ID=61f02a8661f82b834564f044","254","9","1","win","go","1"
"pit-trial","319","1502189","0.0-260.0","battery-v0.2","","","-1","h","elianto","#f73b6a7A","-1","-1","1","-10","","0","3","","","","","","","6109852c8ba8cc2fd06b4253&order=&STUDY_ID=61f02a8661f82b834564f044","255","8","4","lose","no-go","1"
"pit-trial","320","1505716","0.0-261.0","battery-v0.2","","","668.0000000002328","m","elianto","#3366ff99","32","32","1","+10","1517","1","3","","","","","","","6109852c8ba8cc2fd06b4253&order=&STUDY_ID=61f02a8661f82b834564f044","256","11","1","win","go","0"
"pit-trial","321","1509138","0.0-262.0","battery-v0.2","","","562","r","elianto","#f73b6a7A","32","32","1","0","1412","1","3","","","","","","","6109852c8ba8cc2fd06b4253&order=&STUDY_ID=61f02a8661f82b834564f044","257","10","3","lose","go","0"
"pit-trial","322","1513998","0.0-263.0","battery-v0.2","","","-1","h","elianto","#f73b6a7A","-1","-1","1","0","","0","3","","","","","","","6109852c8ba8cc2fd06b4253&order=&STUDY_ID=61f02a8661f82b834564f044","258","8","4","lose","no-go","0"
"pit-trial","323","1517469","0.0-264.0","battery-v0.2","","","610","y","elianto","#3366ff99","32","32","1","+10","1461","1","3","","","","","","","6109852c8ba8cc2fd06b4253&order=&STUDY_ID=61f02a8661f82b834564f044","259","9","1","win","go","0"
"pit-trial","324","1520855","0.0-265.0","battery-v0.2","","","526","m","elianto","#3366ff99","32","32","1","+10","1377","1","3","","","","","","","6109852c8ba8cc2fd06b4253&order=&STUDY_ID=61f02a8661f82b834564f044","260","11","1","win","go","0"
