"trial_type","trial_index","time_elapsed","internal_node_id","task_version","subject_id","interactions","blur_events","focus_events","fullscreenenter_events","fullscreenexit_events","success","view_history","rt","responses","num_errors","age","subject","participantId","rune","rune_set","hex","correct","choice","accuracy","outcome","keys","total_keys","block","practice","value","sub","trial","stimulus","robot","valence","action","sham","browser_interactions"
"pavlovia","0","30","0.0-0.0","battery-v0.2","","""event"",""trial"",""time""
""fullscreenenter"",""1"",""3054""
","
","
","""event"",""trial"",""time""
""fullscreenenter"",""1"",""3054""
","
","","","","","","","","","","","","","","","","","","","","","","","","","","","",""
"fullscreen","1","4028","0.0-1.0","battery-v0.2","","""event"",""trial"",""time""
""fullscreenenter"",""1"",""3054""
","
","
","""event"",""trial"",""time""
""fullscreenenter"",""1"",""3054""
","
","true","","","","","","","","","","","","","","","","","","","","","","","","","","",""
"pit-instructions","2","32849","0.0-2.0-0.0","battery-v0.2","","""event"",""trial"",""time""
""fullscreenenter"",""1"",""3054""
","
","
","""event"",""trial"",""time""
""fullscreenenter"",""1"",""3054""
","
","","[{""page_index"":0,""viewing_time"":28810.299999998882}]","28812.799999998882","","","","","","","","","","","","","","","","","","","","","","","","",""
"pit-comprehension","3","37356","0.0-2.0-1.0-0.0","battery-v0.2","","""event"",""trial"",""time""
""fullscreenenter"",""1"",""3054""
","
","
","""event"",""trial"",""time""
""fullscreenenter"",""1"",""3054""
","
","","","4496.200000001118","[""shark""]","0","11","1240","284","","","","","","","","","","","","","","","","","","","",""
"pit-instructions","4","39686","0.0-2.0-1.0-1.0","battery-v0.2","","""event"",""trial"",""time""
""fullscreenenter"",""1"",""3054""
","
","
","""event"",""trial"",""time""
""fullscreenenter"",""1"",""3054""
","
","","[{""page_index"":0,""viewing_time"":2302.39999999851}]","2303.2999999988824","","","","","","","","","","","","","","","","","","","","","","","","",""
"pit-comprehension","5","44435","0.0-2.0-2.0-0.0","battery-v0.2","","""event"",""trial"",""time""
""fullscreenenter"",""1"",""3054""
","
","
","""event"",""trial"",""time""
""fullscreenenter"",""1"",""3054""
","
","","","4740","[""tiger""]","0","11","1240","284","","","","","","","","","","","","","","","","","","","",""
"pit-instructions","6","46465","0.0-2.0-2.0-1.0","battery-v0.2","","""event"",""trial"",""time""
""fullscreenenter"",""1"",""3054""
""fullscreenexit"",""7"",""163821""
""blur"",""7"",""165460""
""focus"",""7"",""236410""
","""event"",""trial"",""time""
""blur"",""7"",""165460""
","""event"",""trial"",""time""
""focus"",""7"",""236410""
","""event"",""trial"",""time""
""fullscreenenter"",""1"",""3054""
","""event"",""trial"",""time""
""fullscreenexit"",""7"",""163821""
","","[{""page_index"":0,""viewing_time"":2021.0999999996275}]","2021.5999999996275","","","","","","","","","","","","","","","","","","","","","","","","",""
"pit-instructions","7","239683","0.0-2.0-3.0","battery-v0.2","","""event"",""trial"",""time""
""fullscreenenter"",""1"",""3054""
""fullscreenexit"",""7"",""163821""
""blur"",""7"",""165460""
""focus"",""7"",""236410""
","""event"",""trial"",""time""
""blur"",""7"",""165460""
","""event"",""trial"",""time""
""focus"",""7"",""236410""
","""event"",""trial"",""time""
""fullscreenenter"",""1"",""3054""
","""event"",""trial"",""time""
""fullscreenexit"",""7"",""163821""
","","[{""page_index"":0,""viewing_time"":11263},{""page_index"":1,""viewing_time"":8619.5},{""page_index"":2,""viewing_time"":6539.9000000003725},{""page_index"":3,""viewing_time"":7180.5999999996275},{""page_index"":4,""viewing_time"":6145.800000000745},{""page_index"":5,""viewing_time"":6475.5},{""page_index"":6,""viewing_time"":8547.799999998882},{""page_index"":7,""viewing_time"":12240.700000001118},{""page_index"":8,""viewing_time"":12780.39999999851},{""page_index"":9,""viewing_time"":10459.400000000373},{""page_index"":10,""viewing_time"":7320.5999999996275},{""page_index"":11,""viewing_time"":7087},{""page_index"":12,""viewing_time"":6361.9000000003725},{""page_index"":13,""viewing_time"":82187.59999999963}]","193210.40000000037","","","","","","","","","","","","","","","","","","","","","","","","",""
"pit-trial","8","244541","0.0-2.0-4.0-0.0","battery-v0.2","","""event"",""trial"",""time""
""fullscreenenter"",""1"",""3054""
""fullscreenexit"",""7"",""163821""
""blur"",""7"",""165460""
""focus"",""7"",""236410""
","""event"",""trial"",""time""
""blur"",""7"",""165460""
","""event"",""trial"",""time""
""focus"",""7"",""236410""
","""event"",""trial"",""time""
""fullscreenenter"",""1"",""3054""
","""event"",""trial"",""time""
""fullscreenexit"",""7"",""163821""
","","","-1","","","11","1240","284","&#9784;","elianto","#FFFFF080"," ","-1","0","&#10060","[]","0","0","0","","","","","","","","",""
"pit-trial","9","249404","0.0-2.0-4.1-0.1","battery-v0.2","","""event"",""trial"",""time""
""fullscreenenter"",""1"",""3054""
""fullscreenexit"",""7"",""163821""
""blur"",""7"",""165460""
""focus"",""7"",""236410""
","""event"",""trial"",""time""
""blur"",""7"",""165460""
","""event"",""trial"",""time""
""focus"",""7"",""236410""
","""event"",""trial"",""time""
""fullscreenenter"",""1"",""3054""
","""event"",""trial"",""time""
""fullscreenexit"",""7"",""163821""
","","","-1","","","11","1240","284","&#9784;","elianto","#FFFFF080"," ","-1","0","&#10060","[]","0","0","0","","","","","","","","",""
"pit-trial","10","254260","0.0-2.0-4.2-0.2","battery-v0.2","","""event"",""trial"",""time""
""fullscreenenter"",""1"",""3054""
""fullscreenexit"",""7"",""163821""
""blur"",""7"",""165460""
""focus"",""7"",""236410""
","""event"",""trial"",""time""
""blur"",""7"",""165460""
","""event"",""trial"",""time""
""focus"",""7"",""236410""
","""event"",""trial"",""time""
""fullscreenenter"",""1"",""3054""
","""event"",""trial"",""time""
""fullscreenexit"",""7"",""163821""
","","","-1","","","11","1240","284","&#9784;","elianto","#FFFFF080"," ","-1","0","&#10060","[]","0","0","0","","","","","","","","",""
"pit-trial","11","259118","0.0-2.0-4.3-0.3","battery-v0.2","","""event"",""trial"",""time""
""fullscreenenter"",""1"",""3054""
""fullscreenexit"",""7"",""163821""
""blur"",""7"",""165460""
""focus"",""7"",""236410""
","""event"",""trial"",""time""
""blur"",""7"",""165460""
","""event"",""trial"",""time""
""focus"",""7"",""236410""
","""event"",""trial"",""time""
""fullscreenenter"",""1"",""3054""
","""event"",""trial"",""time""
""fullscreenexit"",""7"",""163821""
","","","-1","","","11","1240","284","&#9784;","elianto","#FFFFF080"," ","-1","0","&#10060","[]","0","0","0","","","","","","","","",""
"pit-trial","12","263976","0.0-2.0-4.4-0.4","battery-v0.2","","""event"",""trial"",""time""
""fullscreenenter"",""1"",""3054""
""fullscreenexit"",""7"",""163821""
""blur"",""7"",""165460""
""focus"",""7"",""236410""
","""event"",""trial"",""time""
""blur"",""7"",""165460""
","""event"",""trial"",""time""
""focus"",""7"",""236410""
","""event"",""trial"",""time""
""fullscreenenter"",""1"",""3054""
","""event"",""trial"",""time""
""fullscreenexit"",""7"",""163821""
","","","-1","","","11","1240","284","&#9784;","elianto","#FFFFF080"," ","-1","0","&#10060","[]","0","0","0","","","","","","","","",""
"pit-trial","13","268848","0.0-2.0-4.5-0.5","battery-v0.2","","""event"",""trial"",""time""
""fullscreenenter"",""1"",""3054""
""fullscreenexit"",""7"",""163821""
""blur"",""7"",""165460""
""focus"",""7"",""236410""
","""event"",""trial"",""time""
""blur"",""7"",""165460""
","""event"",""trial"",""time""
""focus"",""7"",""236410""
","""event"",""trial"",""time""
""fullscreenenter"",""1"",""3054""
","""event"",""trial"",""time""
""fullscreenexit"",""7"",""163821""
","","","-1","","","11","1240","284","&#9784;","elianto","#FFFFF080"," ","-1","0","&#10060","[]","0","0","0","","","","","","","","",""
"pit-trial","14","273715","0.0-2.0-4.6-0.6","battery-v0.2","","""event"",""trial"",""time""
""fullscreenenter"",""1"",""3054""
""fullscreenexit"",""7"",""163821""
""blur"",""7"",""165460""
""focus"",""7"",""236410""
","""event"",""trial"",""time""
""blur"",""7"",""165460""
","""event"",""trial"",""time""
""focus"",""7"",""236410""
","""event"",""trial"",""time""
""fullscreenenter"",""1"",""3054""
","""event"",""trial"",""time""
""fullscreenexit"",""7"",""163821""
","","","-1","","","11","1240","284","&#9784;","elianto","#FFFFF080"," ","-1","0","&#10060","[]","0","0","0","","","","","","","","",""
"pit-instructions","15","287400","0.0-2.0-4.6-1.6-0.6","battery-v0.2","","""event"",""trial"",""time""
""fullscreenenter"",""1"",""3054""
""fullscreenexit"",""7"",""163821""
""blur"",""7"",""165460""
""focus"",""7"",""236410""
","""event"",""trial"",""time""
""blur"",""7"",""165460""
","""event"",""trial"",""time""
""focus"",""7"",""236410""
","""event"",""trial"",""time""
""fullscreenenter"",""1"",""3054""
","""event"",""trial"",""time""
""fullscreenexit"",""7"",""163821""
","","[{""page_index"":0,""viewing_time"":5631.9000000003725},{""page_index"":1,""viewing_time"":8048}]","13680.900000000373","","","","","","","","","","","","","","","","","","","","","","","","",""
"pit-trial","16","290741","0.0-2.0-4.7-0.7","battery-v0.2","","""event"",""trial"",""time""
""fullscreenenter"",""1"",""3054""
""fullscreenexit"",""7"",""163821""
""blur"",""7"",""165460""
""focus"",""7"",""236410""
","""event"",""trial"",""time""
""blur"",""7"",""165460""
","""event"",""trial"",""time""
""focus"",""7"",""236410""
","""event"",""trial"",""time""
""fullscreenenter"",""1"",""3054""
","""event"",""trial"",""time""
""fullscreenexit"",""7"",""163821""
","","","482.59999999962747","","","11","1240","284","&#9784;","elianto","#FFFFF080"," "," ","1","&#10004","[1332.5999999996275]","1","0","0","","","","","","","","",""
"pit-trial","17","294369","0.0-2.0-4.8-0.8","battery-v0.2","","""event"",""trial"",""time""
""fullscreenenter"",""1"",""3054""
""fullscreenexit"",""7"",""163821""
""blur"",""7"",""165460""
""focus"",""7"",""236410""
","""event"",""trial"",""time""
""blur"",""7"",""165460""
","""event"",""trial"",""time""
""focus"",""7"",""236410""
","""event"",""trial"",""time""
""fullscreenenter"",""1"",""3054""
","""event"",""trial"",""time""
""fullscreenexit"",""7"",""163821""
","","","763.7000000011176","","","11","1240","284","&#9784;","elianto","#FFFFF080"," "," ","1","&#10004","[620.1999999992549,1615.5]","2","0","0","","","","","","","","",""
"pit-trial","18","297449","0.0-2.0-4.9-0.9","battery-v0.2","","""event"",""trial"",""time""
""fullscreenenter"",""1"",""3054""
""fullscreenexit"",""7"",""163821""
""blur"",""7"",""165460""
""focus"",""7"",""236410""
","""event"",""trial"",""time""
""blur"",""7"",""165460""
","""event"",""trial"",""time""
""focus"",""7"",""236410""
","""event"",""trial"",""time""
""fullscreenenter"",""1"",""3054""
","""event"",""trial"",""time""
""fullscreenexit"",""7"",""163821""
","","","206.80000000074506","","","11","1240","284","&#9784;","elianto","#FFFFF080"," "," ","1","&#10004","[1059.7999999988824]","1","0","0","","","","","","","","",""
"pit-instructions","19","318532","0.0-2.0-5.0","battery-v0.2","","""event"",""trial"",""time""
""fullscreenenter"",""1"",""3054""
""fullscreenexit"",""7"",""163821""
""blur"",""7"",""165460""
""focus"",""7"",""236410""
","""event"",""trial"",""time""
""blur"",""7"",""165460""
","""event"",""trial"",""time""
""focus"",""7"",""236410""
","""event"",""trial"",""time""
""fullscreenenter"",""1"",""3054""
","""event"",""trial"",""time""
""fullscreenexit"",""7"",""163821""
","","[{""page_index"":0,""viewing_time"":4175.800000000745},{""page_index"":1,""viewing_time"":5679},{""page_index"":2,""viewing_time"":4130.5999999996275},{""page_index"":3,""viewing_time"":7090.300000000745}]","21076.800000000745","","","","","","","","","","","","","","","","","","","","","","","","",""
"pit-trial","20","323398","0.0-2.0-6.0-0.0","battery-v0.2","","""event"",""trial"",""time""
""fullscreenenter"",""1"",""3054""
""fullscreenexit"",""7"",""163821""
""blur"",""7"",""165460""
""focus"",""7"",""236410""
","""event"",""trial"",""time""
""blur"",""7"",""165460""
","""event"",""trial"",""time""
""focus"",""7"",""236410""
","""event"",""trial"",""time""
""fullscreenenter"",""1"",""3054""
","""event"",""trial"",""time""
""fullscreenexit"",""7"",""163821""
","","","-1","","","11","1240","284","&#9854;","elianto","#FFFFF080","-1","-1","1","&#10004","[]","0","0","1","","","","","","","","",""
"pit-trial","21","328279","0.0-2.0-6.1-0.1","battery-v0.2","","""event"",""trial"",""time""
""fullscreenenter"",""1"",""3054""
""fullscreenexit"",""7"",""163821""
""blur"",""7"",""165460""
""focus"",""7"",""236410""
","""event"",""trial"",""time""
""blur"",""7"",""165460""
","""event"",""trial"",""time""
""focus"",""7"",""236410""
","""event"",""trial"",""time""
""fullscreenenter"",""1"",""3054""
","""event"",""trial"",""time""
""fullscreenexit"",""7"",""163821""
","","","-1","","","11","1240","284","&#9854;","elianto","#FFFFF080","-1","-1","1","&#10004","[]","0","0","1","","","","","","","","",""
"pit-trial","22","333149","0.0-2.0-6.2-0.2","battery-v0.2","","""event"",""trial"",""time""
""fullscreenenter"",""1"",""3054""
""fullscreenexit"",""7"",""163821""
""blur"",""7"",""165460""
""focus"",""7"",""236410""
","""event"",""trial"",""time""
""blur"",""7"",""165460""
","""event"",""trial"",""time""
""focus"",""7"",""236410""
","""event"",""trial"",""time""
""fullscreenenter"",""1"",""3054""
","""event"",""trial"",""time""
""fullscreenexit"",""7"",""163821""
","","","-1","","","11","1240","284","&#9854;","elianto","#FFFFF080","-1","-1","1","&#10004","[]","0","0","1","","","","","","","","",""
"pit-trial","23","338021","0.0-2.0-6.3-0.3","battery-v0.2","","""event"",""trial"",""time""
""fullscreenenter"",""1"",""3054""
""fullscreenexit"",""7"",""163821""
""blur"",""7"",""165460""
""focus"",""7"",""236410""
""blur"",""24"",""342547""
","""event"",""trial"",""time""
""blur"",""7"",""165460""
""blur"",""24"",""342547""
","""event"",""trial"",""time""
""focus"",""7"",""236410""
","""event"",""trial"",""time""
""fullscreenenter"",""1"",""3054""
","""event"",""trial"",""time""
""fullscreenexit"",""7"",""163821""
","","","-1","","","11","1240","284","&#9854;","elianto","#FFFFF080","-1","-1","1","&#10004","[]","0","0","1","","","","","","","","",""
"pit-trial","24","342887","0.0-2.0-6.4-0.4","battery-v0.2","","""event"",""trial"",""time""
""fullscreenenter"",""1"",""3054""
""fullscreenexit"",""7"",""163821""
""blur"",""7"",""165460""
""focus"",""7"",""236410""
""blur"",""24"",""342547""
""focus"",""25"",""345982""
""blur"",""25"",""347491""
""focus"",""25"",""397074""
","""event"",""trial"",""time""
""blur"",""7"",""165460""
""blur"",""24"",""342547""
""blur"",""25"",""347491""
","""event"",""trial"",""time""
""focus"",""7"",""236410""
""focus"",""25"",""345982""
""focus"",""25"",""397074""
","""event"",""trial"",""time""
""fullscreenenter"",""1"",""3054""
","""event"",""trial"",""time""
""fullscreenexit"",""7"",""163821""
","","","-1","","","11","1240","284","&#9854;","elianto","#FFFFF080","-1","-1","1","&#10004","[]","0","0","1","","","","","","","","",""
"pit-instructions","25","534441","0.0-2.0-7.0","battery-v0.2","","""event"",""trial"",""time""
""fullscreenenter"",""1"",""3054""
""fullscreenexit"",""7"",""163821""
""blur"",""7"",""165460""
""focus"",""7"",""236410""
""blur"",""24"",""342547""
""focus"",""25"",""345982""
""blur"",""25"",""347491""
""focus"",""25"",""397074""
","""event"",""trial"",""time""
""blur"",""7"",""165460""
""blur"",""24"",""342547""
""blur"",""25"",""347491""
","""event"",""trial"",""time""
""focus"",""7"",""236410""
""focus"",""25"",""345982""
""focus"",""25"",""397074""
","""event"",""trial"",""time""
""fullscreenenter"",""1"",""3054""
","""event"",""trial"",""time""
""fullscreenexit"",""7"",""163821""
","","[{""page_index"":0,""viewing_time"":55401.79999999888},{""page_index"":1,""viewing_time"":20716},{""page_index"":2,""viewing_time"":6263},{""page_index"":3,""viewing_time"":6669.200000001118},{""page_index"":4,""viewing_time"":8238},{""page_index"":5,""viewing_time"":7305.799999998882},{""page_index"":6,""viewing_time"":6436.5999999996275},{""page_index"":7,""viewing_time"":8790.60000000149},{""page_index"":8,""viewing_time"":7699.89999999851},{""page_index"":9,""viewing_time"":6219.5},{""page_index"":10,""viewing_time"":7888.700000001118},{""page_index"":11,""viewing_time"":4171.299999998882},{""page_index"":12,""viewing_time"":7729},{""page_index"":13,""viewing_time"":7094.10000000149},{""page_index"":14,""viewing_time"":7856.5999999996275},{""page_index"":15,""viewing_time"":7019.4000000003725},{""page_index"":16,""viewing_time"":7360.799999998882},{""page_index"":17,""viewing_time"":8689.099999999627}]","191550.69999999925","","","","","","","","","","","","","","","","","","","","","","","","",""
"pit-trial","26","538448","0.0-2.0-8.0-0.0","battery-v0.2","","""event"",""trial"",""time""
""fullscreenenter"",""1"",""3054""
""fullscreenexit"",""7"",""163821""
""blur"",""7"",""165460""
""focus"",""7"",""236410""
""blur"",""24"",""342547""
""focus"",""25"",""345982""
""blur"",""25"",""347491""
""focus"",""25"",""397074""
","""event"",""trial"",""time""
""blur"",""7"",""165460""
""blur"",""24"",""342547""
""blur"",""25"",""347491""
","""event"",""trial"",""time""
""focus"",""7"",""236410""
""focus"",""25"",""345982""
""focus"",""25"",""397074""
","""event"",""trial"",""time""
""fullscreenenter"",""1"",""3054""
","""event"",""trial"",""time""
""fullscreenexit"",""7"",""163821""
","","","1129.9000000003725","","","11","1240","284","&#9776;","elianto","#3366ff99"," "," ","1","+10","[1983.800000000745]","1","0","1","","","","","","","","",""
"pit-trial","27","541938","0.0-2.0-8.0-1.0","battery-v0.2","","""event"",""trial"",""time""
""fullscreenenter"",""1"",""3054""
""fullscreenexit"",""7"",""163821""
""blur"",""7"",""165460""
""focus"",""7"",""236410""
""blur"",""24"",""342547""
""focus"",""25"",""345982""
""blur"",""25"",""347491""
""focus"",""25"",""397074""
","""event"",""trial"",""time""
""blur"",""7"",""165460""
""blur"",""24"",""342547""
""blur"",""25"",""347491""
","""event"",""trial"",""time""
""focus"",""7"",""236410""
""focus"",""25"",""345982""
""focus"",""25"",""397074""
","""event"",""trial"",""time""
""fullscreenenter"",""1"",""3054""
","""event"",""trial"",""time""
""fullscreenexit"",""7"",""163821""
","","","627.6999999992549","","","11","1240","284","&#9776;","elianto","#3366ff99"," "," ","1","+10","[1478.300000000745]","1","0","1","","","","","","","","",""
"pit-trial","28","545398","0.0-2.0-8.0-2.0","battery-v0.2","","""event"",""trial"",""time""
""fullscreenenter"",""1"",""3054""
""fullscreenexit"",""7"",""163821""
""blur"",""7"",""165460""
""focus"",""7"",""236410""
""blur"",""24"",""342547""
""focus"",""25"",""345982""
""blur"",""25"",""347491""
""focus"",""25"",""397074""
","""event"",""trial"",""time""
""blur"",""7"",""165460""
""blur"",""24"",""342547""
""blur"",""25"",""347491""
","""event"",""trial"",""time""
""focus"",""7"",""236410""
""focus"",""25"",""345982""
""focus"",""25"",""397074""
","""event"",""trial"",""time""
""fullscreenenter"",""1"",""3054""
","""event"",""trial"",""time""
""fullscreenexit"",""7"",""163821""
","","","582.7000000011176","","","11","1240","284","&#9776;","elianto","#3366ff99"," "," ","1","+10","[1439.1000000014901]","1","0","1","","","","","","","","",""
"pit-trial","29","548339","0.0-2.0-8.0-3.0","battery-v0.2","","""event"",""trial"",""time""
""fullscreenenter"",""1"",""3054""
""fullscreenexit"",""7"",""163821""
""blur"",""7"",""165460""
""focus"",""7"",""236410""
""blur"",""24"",""342547""
""focus"",""25"",""345982""
""blur"",""25"",""347491""
""focus"",""25"",""397074""
","""event"",""trial"",""time""
""blur"",""7"",""165460""
""blur"",""24"",""342547""
""blur"",""25"",""347491""
","""event"",""trial"",""time""
""focus"",""7"",""236410""
""focus"",""25"",""345982""
""focus"",""25"",""397074""
","""event"",""trial"",""time""
""fullscreenenter"",""1"",""3054""
","""event"",""trial"",""time""
""fullscreenexit"",""7"",""163821""
","","","67.69999999925494","","","11","1240","284","&#9776;","elianto","#3366ff99"," "," ","1","0","[919]","1","0","1","","","","","","","","",""
"pit-trial","30","551499","0.0-2.0-8.0-4.0","battery-v0.2","","""event"",""trial"",""time""
""fullscreenenter"",""1"",""3054""
""fullscreenexit"",""7"",""163821""
""blur"",""7"",""165460""
""focus"",""7"",""236410""
""blur"",""24"",""342547""
""focus"",""25"",""345982""
""blur"",""25"",""347491""
""focus"",""25"",""397074""
","""event"",""trial"",""time""
""blur"",""7"",""165460""
""blur"",""24"",""342547""
""blur"",""25"",""347491""
","""event"",""trial"",""time""
""focus"",""7"",""236410""
""focus"",""25"",""345982""
""focus"",""25"",""397074""
","""event"",""trial"",""time""
""fullscreenenter"",""1"",""3054""
","""event"",""trial"",""time""
""fullscreenexit"",""7"",""163821""
","","","292.5","","","11","1240","284","&#9776;","elianto","#3366ff99"," "," ","1","+10","[1147.5999999996275]","1","0","1","","","","","","","","",""
"call-function","31","551505","0.0-2.0-9.0","battery-v0.2","","""event"",""trial"",""time""
""fullscreenenter"",""1"",""3054""
""fullscreenexit"",""7"",""163821""
""blur"",""7"",""165460""
""focus"",""7"",""236410""
""blur"",""24"",""342547""
""focus"",""25"",""345982""
""blur"",""25"",""347491""
""focus"",""25"",""397074""
","""event"",""trial"",""time""
""blur"",""7"",""165460""
""blur"",""24"",""342547""
""blur"",""25"",""347491""
","""event"",""trial"",""time""
""focus"",""7"",""236410""
""focus"",""25"",""345982""
""focus"",""25"",""397074""
","""event"",""trial"",""time""
""fullscreenenter"",""1"",""3054""
","""event"",""trial"",""time""
""fullscreenexit"",""7"",""163821""
","","","","","","","","","","","","","","","","","","","","","","","","","","","",""
"pit-instructions","32","596191","0.0-2.0-10.0","battery-v0.2","","""event"",""trial"",""time""
""fullscreenenter"",""1"",""3054""
""fullscreenexit"",""7"",""163821""
""blur"",""7"",""165460""
""focus"",""7"",""236410""
""blur"",""24"",""342547""
""focus"",""25"",""345982""
""blur"",""25"",""347491""
""focus"",""25"",""397074""
","""event"",""trial"",""time""
""blur"",""7"",""165460""
""blur"",""24"",""342547""
""blur"",""25"",""347491""
","""event"",""trial"",""time""
""focus"",""7"",""236410""
""focus"",""25"",""345982""
""focus"",""25"",""397074""
","""event"",""trial"",""time""
""fullscreenenter"",""1"",""3054""
","""event"",""trial"",""time""
""fullscreenexit"",""7"",""163821""
","","[{""page_index"":0,""viewing_time"":6823.10000000149},{""page_index"":1,""viewing_time"":7039.699999999255},{""page_index"":2,""viewing_time"":10449.800000000745},{""page_index"":3,""viewing_time"":11985.099999999627},{""page_index"":4,""viewing_time"":8384.900000000373}]","44683.40000000037","","","","","","","","","","","","","","","","","","","","","","","","",""
"pit-trial","33","601059","0.0-2.0-11.0-0.0","battery-v0.2","","""event"",""trial"",""time""
""fullscreenenter"",""1"",""3054""
""fullscreenexit"",""7"",""163821""
""blur"",""7"",""165460""
""focus"",""7"",""236410""
""blur"",""24"",""342547""
""focus"",""25"",""345982""
""blur"",""25"",""347491""
""focus"",""25"",""397074""
","""event"",""trial"",""time""
""blur"",""7"",""165460""
""blur"",""24"",""342547""
""blur"",""25"",""347491""
","""event"",""trial"",""time""
""focus"",""7"",""236410""
""focus"",""25"",""345982""
""focus"",""25"",""397074""
","""event"",""trial"",""time""
""fullscreenenter"",""1"",""3054""
","""event"",""trial"",""time""
""fullscreenexit"",""7"",""163821""
","","","-1","","","11","1240","284","&#9761;","elianto","#3366ff99","-1","-1","1","+10","[]","0","0","2","","","","","","","","",""
"pit-trial","34","605928","0.0-2.0-11.0-1.0","battery-v0.2","","""event"",""trial"",""time""
""fullscreenenter"",""1"",""3054""
""fullscreenexit"",""7"",""163821""
""blur"",""7"",""165460""
""focus"",""7"",""236410""
""blur"",""24"",""342547""
""focus"",""25"",""345982""
""blur"",""25"",""347491""
""focus"",""25"",""397074""
","""event"",""trial"",""time""
""blur"",""7"",""165460""
""blur"",""24"",""342547""
""blur"",""25"",""347491""
","""event"",""trial"",""time""
""focus"",""7"",""236410""
""focus"",""25"",""345982""
""focus"",""25"",""397074""
","""event"",""trial"",""time""
""fullscreenenter"",""1"",""3054""
","""event"",""trial"",""time""
""fullscreenexit"",""7"",""163821""
","","","-1","","","11","1240","284","&#9761;","elianto","#3366ff99","-1","-1","1","+10","[]","0","0","2","","","","","","","","",""
"pit-trial","35","609599","0.0-2.0-11.0-2.0","battery-v0.2","","""event"",""trial"",""time""
""fullscreenenter"",""1"",""3054""
""fullscreenexit"",""7"",""163821""
""blur"",""7"",""165460""
""focus"",""7"",""236410""
""blur"",""24"",""342547""
""focus"",""25"",""345982""
""blur"",""25"",""347491""
""focus"",""25"",""397074""
","""event"",""trial"",""time""
""blur"",""7"",""165460""
""blur"",""24"",""342547""
""blur"",""25"",""347491""
","""event"",""trial"",""time""
""focus"",""7"",""236410""
""focus"",""25"",""345982""
""focus"",""25"",""397074""
","""event"",""trial"",""time""
""fullscreenenter"",""1"",""3054""
","""event"",""trial"",""time""
""fullscreenexit"",""7"",""163821""
","","","812.2000000011176","","","11","1240","284","&#9761;","elianto","#3366ff99","-1"," ","0","0","[1662.7999999988824]","1","0","2","","","","","","","","",""
"pit-trial","36","614489","0.0-2.0-11.0-3.0","battery-v0.2","","""event"",""trial"",""time""
""fullscreenenter"",""1"",""3054""
""fullscreenexit"",""7"",""163821""
""blur"",""7"",""165460""
""focus"",""7"",""236410""
""blur"",""24"",""342547""
""focus"",""25"",""345982""
""blur"",""25"",""347491""
""focus"",""25"",""397074""
","""event"",""trial"",""time""
""blur"",""7"",""165460""
""blur"",""24"",""342547""
""blur"",""25"",""347491""
","""event"",""trial"",""time""
""focus"",""7"",""236410""
""focus"",""25"",""345982""
""focus"",""25"",""397074""
","""event"",""trial"",""time""
""fullscreenenter"",""1"",""3054""
","""event"",""trial"",""time""
""fullscreenexit"",""7"",""163821""
","","","-1","","","11","1240","284","&#9761;","elianto","#3366ff99","-1","-1","1","0","[]","0","0","2","","","","","","","","",""
"pit-trial","37","619359","0.0-2.0-11.0-4.0","battery-v0.2","","""event"",""trial"",""time""
""fullscreenenter"",""1"",""3054""
""fullscreenexit"",""7"",""163821""
""blur"",""7"",""165460""
""focus"",""7"",""236410""
""blur"",""24"",""342547""
""focus"",""25"",""345982""
""blur"",""25"",""347491""
""focus"",""25"",""397074""
","""event"",""trial"",""time""
""blur"",""7"",""165460""
""blur"",""24"",""342547""
""blur"",""25"",""347491""
","""event"",""trial"",""time""
""focus"",""7"",""236410""
""focus"",""25"",""345982""
""focus"",""25"",""397074""
","""event"",""trial"",""time""
""fullscreenenter"",""1"",""3054""
","""event"",""trial"",""time""
""fullscreenexit"",""7"",""163821""
","","","-1","","","11","1240","284","&#9761;","elianto","#3366ff99","-1","-1","1","+10","[]","0","0","2","","","","","","","","",""
"pit-trial","38","624239","0.0-2.0-11.1-0.1","battery-v0.2","","""event"",""trial"",""time""
""fullscreenenter"",""1"",""3054""
""fullscreenexit"",""7"",""163821""
""blur"",""7"",""165460""
""focus"",""7"",""236410""
""blur"",""24"",""342547""
""focus"",""25"",""345982""
""blur"",""25"",""347491""
""focus"",""25"",""397074""
","""event"",""trial"",""time""
""blur"",""7"",""165460""
""blur"",""24"",""342547""
""blur"",""25"",""347491""
","""event"",""trial"",""time""
""focus"",""7"",""236410""
""focus"",""25"",""345982""
""focus"",""25"",""397074""
","""event"",""trial"",""time""
""fullscreenenter"",""1"",""3054""
","""event"",""trial"",""time""
""fullscreenexit"",""7"",""163821""
","","","-1","","","11","1240","284","&#9761;","elianto","#3366ff99","-1","-1","1","+10","[]","0","0","2","","","","","","","","",""
"pit-trial","39","629094","0.0-2.0-11.1-1.1","battery-v0.2","","""event"",""trial"",""time""
""fullscreenenter"",""1"",""3054""
""fullscreenexit"",""7"",""163821""
""blur"",""7"",""165460""
""focus"",""7"",""236410""
""blur"",""24"",""342547""
""focus"",""25"",""345982""
""blur"",""25"",""347491""
""focus"",""25"",""397074""
","""event"",""trial"",""time""
""blur"",""7"",""165460""
""blur"",""24"",""342547""
""blur"",""25"",""347491""
","""event"",""trial"",""time""
""focus"",""7"",""236410""
""focus"",""25"",""345982""
""focus"",""25"",""397074""
","""event"",""trial"",""time""
""fullscreenenter"",""1"",""3054""
","""event"",""trial"",""time""
""fullscreenexit"",""7"",""163821""
","","","-1","","","11","1240","284","&#9761;","elianto","#3366ff99","-1","-1","1","+10","[]","0","0","2","","","","","","","","",""
"pit-trial","40","633950","0.0-2.0-11.1-2.1","battery-v0.2","","""event"",""trial"",""time""
""fullscreenenter"",""1"",""3054""
""fullscreenexit"",""7"",""163821""
""blur"",""7"",""165460""
""focus"",""7"",""236410""
""blur"",""24"",""342547""
""focus"",""25"",""345982""
""blur"",""25"",""347491""
""focus"",""25"",""397074""
","""event"",""trial"",""time""
""blur"",""7"",""165460""
""blur"",""24"",""342547""
""blur"",""25"",""347491""
","""event"",""trial"",""time""
""focus"",""7"",""236410""
""focus"",""25"",""345982""
""focus"",""25"",""397074""
","""event"",""trial"",""time""
""fullscreenenter"",""1"",""3054""
","""event"",""trial"",""time""
""fullscreenexit"",""7"",""163821""
","","","-1","","","11","1240","284","&#9761;","elianto","#3366ff99","-1","-1","1","+10","[]","0","0","2","","","","","","","","",""
"pit-trial","41","638805","0.0-2.0-11.1-3.1","battery-v0.2","","""event"",""trial"",""time""
""fullscreenenter"",""1"",""3054""
""fullscreenexit"",""7"",""163821""
""blur"",""7"",""165460""
""focus"",""7"",""236410""
""blur"",""24"",""342547""
""focus"",""25"",""345982""
""blur"",""25"",""347491""
""focus"",""25"",""397074""
","""event"",""trial"",""time""
""blur"",""7"",""165460""
""blur"",""24"",""342547""
""blur"",""25"",""347491""
","""event"",""trial"",""time""
""focus"",""7"",""236410""
""focus"",""25"",""345982""
""focus"",""25"",""397074""
","""event"",""trial"",""time""
""fullscreenenter"",""1"",""3054""
","""event"",""trial"",""time""
""fullscreenexit"",""7"",""163821""
","","","-1","","","11","1240","284","&#9761;","elianto","#3366ff99","-1","-1","1","0","[]","0","0","2","","","","","","","","",""
"pit-trial","42","643661","0.0-2.0-11.1-4.1","battery-v0.2","","""event"",""trial"",""time""
""fullscreenenter"",""1"",""3054""
""fullscreenexit"",""7"",""163821""
""blur"",""7"",""165460""
""focus"",""7"",""236410""
""blur"",""24"",""342547""
""focus"",""25"",""345982""
""blur"",""25"",""347491""
""focus"",""25"",""397074""
","""event"",""trial"",""time""
""blur"",""7"",""165460""
""blur"",""24"",""342547""
""blur"",""25"",""347491""
","""event"",""trial"",""time""
""focus"",""7"",""236410""
""focus"",""25"",""345982""
""focus"",""25"",""397074""
","""event"",""trial"",""time""
""fullscreenenter"",""1"",""3054""
","""event"",""trial"",""time""
""fullscreenexit"",""7"",""163821""
","","","-1","","","11","1240","284","&#9761;","elianto","#3366ff99","-1","-1","1","+10","[]","0","0","2","","","","","","","","",""
"call-function","43","643664","0.0-2.0-12.0","battery-v0.2","","""event"",""trial"",""time""
""fullscreenenter"",""1"",""3054""
""fullscreenexit"",""7"",""163821""
""blur"",""7"",""165460""
""focus"",""7"",""236410""
""blur"",""24"",""342547""
""focus"",""25"",""345982""
""blur"",""25"",""347491""
""focus"",""25"",""397074""
","""event"",""trial"",""time""
""blur"",""7"",""165460""
""blur"",""24"",""342547""
""blur"",""25"",""347491""
","""event"",""trial"",""time""
""focus"",""7"",""236410""
""focus"",""25"",""345982""
""focus"",""25"",""397074""
","""event"",""trial"",""time""
""fullscreenenter"",""1"",""3054""
","""event"",""trial"",""time""
""fullscreenexit"",""7"",""163821""
","","","","","","","","","","","","","","","","","","","","","","","","","","","",""
"pit-instructions","44","679719","0.0-2.0-13.0","battery-v0.2","","""event"",""trial"",""time""
""fullscreenenter"",""1"",""3054""
""fullscreenexit"",""7"",""163821""
""blur"",""7"",""165460""
""focus"",""7"",""236410""
""blur"",""24"",""342547""
""focus"",""25"",""345982""
""blur"",""25"",""347491""
""focus"",""25"",""397074""
","""event"",""trial"",""time""
""blur"",""7"",""165460""
""blur"",""24"",""342547""
""blur"",""25"",""347491""
","""event"",""trial"",""time""
""focus"",""7"",""236410""
""focus"",""25"",""345982""
""focus"",""25"",""397074""
","""event"",""trial"",""time""
""fullscreenenter"",""1"",""3054""
","""event"",""trial"",""time""
""fullscreenexit"",""7"",""163821""
","","[{""page_index"":0,""viewing_time"":9762},{""page_index"":1,""viewing_time"":6639.799999998882},{""page_index"":2,""viewing_time"":4391},{""page_index"":3,""viewing_time"":10092.400000000373},{""page_index"":4,""viewing_time"":5167.200000001118}]","36053.699999999255","","","","","","","","","","","","","","","","","","","","","","","","",""
"pit-trial","45","684589","0.0-2.0-14.0-0.0","battery-v0.2","","""event"",""trial"",""time""
""fullscreenenter"",""1"",""3054""
""fullscreenexit"",""7"",""163821""
""blur"",""7"",""165460""
""focus"",""7"",""236410""
""blur"",""24"",""342547""
""focus"",""25"",""345982""
""blur"",""25"",""347491""
""focus"",""25"",""397074""
","""event"",""trial"",""time""
""blur"",""7"",""165460""
""blur"",""24"",""342547""
""blur"",""25"",""347491""
","""event"",""trial"",""time""
""focus"",""7"",""236410""
""focus"",""25"",""345982""
""focus"",""25"",""397074""
","""event"",""trial"",""time""
""fullscreenenter"",""1"",""3054""
","""event"",""trial"",""time""
""fullscreenexit"",""7"",""163821""
","","","-1","","","11","1240","284","&#9826;","elianto","#f73b6a7A","-1","-1","1","0","[]","0","0","3","","","","","","","","",""
"pit-trial","46","687888","0.0-2.0-14.0-1.0","battery-v0.2","","""event"",""trial"",""time""
""fullscreenenter"",""1"",""3054""
""fullscreenexit"",""7"",""163821""
""blur"",""7"",""165460""
""focus"",""7"",""236410""
""blur"",""24"",""342547""
""focus"",""25"",""345982""
""blur"",""25"",""347491""
""focus"",""25"",""397074""
","""event"",""trial"",""time""
""blur"",""7"",""165460""
""blur"",""24"",""342547""
""blur"",""25"",""347491""
","""event"",""trial"",""time""
""focus"",""7"",""236410""
""focus"",""25"",""345982""
""focus"",""25"",""397074""
","""event"",""trial"",""time""
""fullscreenenter"",""1"",""3054""
","""event"",""trial"",""time""
""fullscreenexit"",""7"",""163821""
","","","435.80000000074506","","","11","1240","284","&#9826;","elianto","#f73b6a7A","-1"," ","0","-10","[78.80000000074506,1290]","2","0","3","","","","","","","","",""
"pit-trial","47","692778","0.0-2.0-14.0-2.0","battery-v0.2","","""event"",""trial"",""time""
""fullscreenenter"",""1"",""3054""
""fullscreenexit"",""7"",""163821""
""blur"",""7"",""165460""
""focus"",""7"",""236410""
""blur"",""24"",""342547""
""focus"",""25"",""345982""
""blur"",""25"",""347491""
""focus"",""25"",""397074""
","""event"",""trial"",""time""
""blur"",""7"",""165460""
""blur"",""24"",""342547""
""blur"",""25"",""347491""
","""event"",""trial"",""time""
""focus"",""7"",""236410""
""focus"",""25"",""345982""
""focus"",""25"",""397074""
","""event"",""trial"",""time""
""fullscreenenter"",""1"",""3054""
","""event"",""trial"",""time""
""fullscreenexit"",""7"",""163821""
","","","-1","","","11","1240","284","&#9826;","elianto","#f73b6a7A","-1","-1","1","0","[]","0","0","3","","","","","","","","",""
"pit-trial","48","696228","0.0-2.0-14.0-3.0","battery-v0.2","","""event"",""trial"",""time""
""fullscreenenter"",""1"",""3054""
""fullscreenexit"",""7"",""163821""
""blur"",""7"",""165460""
""focus"",""7"",""236410""
""blur"",""24"",""342547""
""focus"",""25"",""345982""
""blur"",""25"",""347491""
""focus"",""25"",""397074""
","""event"",""trial"",""time""
""blur"",""7"",""165460""
""blur"",""24"",""342547""
""blur"",""25"",""347491""
","""event"",""trial"",""time""
""focus"",""7"",""236410""
""focus"",""25"",""345982""
""focus"",""25"",""397074""
","""event"",""trial"",""time""
""fullscreenenter"",""1"",""3054""
","""event"",""trial"",""time""
""fullscreenexit"",""7"",""163821""
","","","585.1999999992549","","","11","1240","284","&#9826;","elianto","#f73b6a7A","-1"," ","0","0","[1437.2999999988824]","1","0","3","","","","","","","","",""
"pit-trial","49","699338","0.0-2.0-14.0-4.0","battery-v0.2","","""event"",""trial"",""time""
""fullscreenenter"",""1"",""3054""
""fullscreenexit"",""7"",""163821""
""blur"",""7"",""165460""
""focus"",""7"",""236410""
""blur"",""24"",""342547""
""focus"",""25"",""345982""
""blur"",""25"",""347491""
""focus"",""25"",""397074""
","""event"",""trial"",""time""
""blur"",""7"",""165460""
""blur"",""24"",""342547""
""blur"",""25"",""347491""
","""event"",""trial"",""time""
""focus"",""7"",""236410""
""focus"",""25"",""345982""
""focus"",""25"",""397074""
","""event"",""trial"",""time""
""fullscreenenter"",""1"",""3054""
","""event"",""trial"",""time""
""fullscreenexit"",""7"",""163821""
","","","245.09999999962747","","","11","1240","284","&#9826;","elianto","#f73b6a7A","-1"," ","0","-10","[1096.2000000011176]","1","0","3","","","","","","","","",""
"pit-trial","50","702328","0.0-2.0-14.1-0.1","battery-v0.2","","""event"",""trial"",""time""
""fullscreenenter"",""1"",""3054""
""fullscreenexit"",""7"",""163821""
""blur"",""7"",""165460""
""focus"",""7"",""236410""
""blur"",""24"",""342547""
""focus"",""25"",""345982""
""blur"",""25"",""347491""
""focus"",""25"",""397074""
","""event"",""trial"",""time""
""blur"",""7"",""165460""
""blur"",""24"",""342547""
""blur"",""25"",""347491""
","""event"",""trial"",""time""
""focus"",""7"",""236410""
""focus"",""25"",""345982""
""focus"",""25"",""397074""
","""event"",""trial"",""time""
""fullscreenenter"",""1"",""3054""
","""event"",""trial"",""time""
""fullscreenexit"",""7"",""163821""
","","","130.30000000074506","","","11","1240","284","&#9826;","elianto","#f73b6a7A","-1"," ","0","-10","[980.4000000003725]","1","0","3","","","","","","","","",""
"pit-trial","51","705404","0.0-2.0-14.1-1.1","battery-v0.2","","""event"",""trial"",""time""
""fullscreenenter"",""1"",""3054""
""fullscreenexit"",""7"",""163821""
""blur"",""7"",""165460""
""focus"",""7"",""236410""
""blur"",""24"",""342547""
""focus"",""25"",""345982""
""blur"",""25"",""347491""
""focus"",""25"",""397074""
","""event"",""trial"",""time""
""blur"",""7"",""165460""
""blur"",""24"",""342547""
""blur"",""25"",""347491""
","""event"",""trial"",""time""
""focus"",""7"",""236410""
""focus"",""25"",""345982""
""focus"",""25"",""397074""
","""event"",""trial"",""time""
""fullscreenenter"",""1"",""3054""
","""event"",""trial"",""time""
""fullscreenexit"",""7"",""163821""
","","","215","","","11","1240","284","&#9826;","elianto","#f73b6a7A","-1"," ","0","-10","[516.3000000007451,1065.5]","2","0","3","","","","","","","","",""
"pit-trial","52","709828","0.0-2.0-14.1-2.1","battery-v0.2","","""event"",""trial"",""time""
""fullscreenenter"",""1"",""3054""
""fullscreenexit"",""7"",""163821""
""blur"",""7"",""165460""
""focus"",""7"",""236410""
""blur"",""24"",""342547""
""focus"",""25"",""345982""
""blur"",""25"",""347491""
""focus"",""25"",""397074""
","""event"",""trial"",""time""
""blur"",""7"",""165460""
""blur"",""24"",""342547""
""blur"",""25"",""347491""
","""event"",""trial"",""time""
""focus"",""7"",""236410""
""focus"",""25"",""345982""
""focus"",""25"",""397074""
","""event"",""trial"",""time""
""fullscreenenter"",""1"",""3054""
","""event"",""trial"",""time""
""fullscreenexit"",""7"",""163821""
","","","1569.0999999996275","","","11","1240","284","&#9826;","elianto","#f73b6a7A","-1"," ","0","-10","[2420.300000000745]","1","0","3","","","","","","","","",""
"pit-trial","53","714685","0.0-2.0-14.1-3.1","battery-v0.2","","""event"",""trial"",""time""
""fullscreenenter"",""1"",""3054""
""fullscreenexit"",""7"",""163821""
""blur"",""7"",""165460""
""focus"",""7"",""236410""
""blur"",""24"",""342547""
""focus"",""25"",""345982""
""blur"",""25"",""347491""
""focus"",""25"",""397074""
","""event"",""trial"",""time""
""blur"",""7"",""165460""
""blur"",""24"",""342547""
""blur"",""25"",""347491""
","""event"",""trial"",""time""
""focus"",""7"",""236410""
""focus"",""25"",""345982""
""focus"",""25"",""397074""
","""event"",""trial"",""time""
""fullscreenenter"",""1"",""3054""
","""event"",""trial"",""time""
""fullscreenexit"",""7"",""163821""
","","","-1","","","11","1240","284","&#9826;","elianto","#f73b6a7A","-1","-1","1","-10","[4704.60000000149]","1","0","3","","","","","","","","",""
"pit-trial","54","719541","0.0-2.0-14.1-4.1","battery-v0.2","","""event"",""trial"",""time""
""fullscreenenter"",""1"",""3054""
""fullscreenexit"",""7"",""163821""
""blur"",""7"",""165460""
""focus"",""7"",""236410""
""blur"",""24"",""342547""
""focus"",""25"",""345982""
""blur"",""25"",""347491""
""focus"",""25"",""397074""
","""event"",""trial"",""time""
""blur"",""7"",""165460""
""blur"",""24"",""342547""
""blur"",""25"",""347491""
","""event"",""trial"",""time""
""focus"",""7"",""236410""
""focus"",""25"",""345982""
""focus"",""25"",""397074""
","""event"",""trial"",""time""
""fullscreenenter"",""1"",""3054""
","""event"",""trial"",""time""
""fullscreenexit"",""7"",""163821""
","","","-1","","","11","1240","284","&#9826;","elianto","#f73b6a7A","-1","-1","1","0","[]","0","0","3","","","","","","","","",""
"pit-trial","55","724397","0.0-2.0-14.2-0.2","battery-v0.2","","""event"",""trial"",""time""
""fullscreenenter"",""1"",""3054""
""fullscreenexit"",""7"",""163821""
""blur"",""7"",""165460""
""focus"",""7"",""236410""
""blur"",""24"",""342547""
""focus"",""25"",""345982""
""blur"",""25"",""347491""
""focus"",""25"",""397074""
","""event"",""trial"",""time""
""blur"",""7"",""165460""
""blur"",""24"",""342547""
""blur"",""25"",""347491""
","""event"",""trial"",""time""
""focus"",""7"",""236410""
""focus"",""25"",""345982""
""focus"",""25"",""397074""
","""event"",""trial"",""time""
""fullscreenenter"",""1"",""3054""
","""event"",""trial"",""time""
""fullscreenexit"",""7"",""163821""
","","","-1","","","11","1240","284","&#9826;","elianto","#f73b6a7A","-1","-1","1","0","[]","0","0","3","","","","","","","","",""
"pit-trial","56","729252","0.0-2.0-14.2-1.2","battery-v0.2","","""event"",""trial"",""time""
""fullscreenenter"",""1"",""3054""
""fullscreenexit"",""7"",""163821""
""blur"",""7"",""165460""
""focus"",""7"",""236410""
""blur"",""24"",""342547""
""focus"",""25"",""345982""
""blur"",""25"",""347491""
""focus"",""25"",""397074""
","""event"",""trial"",""time""
""blur"",""7"",""165460""
""blur"",""24"",""342547""
""blur"",""25"",""347491""
","""event"",""trial"",""time""
""focus"",""7"",""236410""
""focus"",""25"",""345982""
""focus"",""25"",""397074""
","""event"",""trial"",""time""
""fullscreenenter"",""1"",""3054""
","""event"",""trial"",""time""
""fullscreenexit"",""7"",""163821""
","","","-1","","","11","1240","284","&#9826;","elianto","#f73b6a7A","-1","-1","1","0","[]","0","0","3","","","","","","","","",""
"pit-trial","57","734108","0.0-2.0-14.2-2.2","battery-v0.2","","""event"",""trial"",""time""
""fullscreenenter"",""1"",""3054""
""fullscreenexit"",""7"",""163821""
""blur"",""7"",""165460""
""focus"",""7"",""236410""
""blur"",""24"",""342547""
""focus"",""25"",""345982""
""blur"",""25"",""347491""
""focus"",""25"",""397074""
","""event"",""trial"",""time""
""blur"",""7"",""165460""
""blur"",""24"",""342547""
""blur"",""25"",""347491""
","""event"",""trial"",""time""
""focus"",""7"",""236410""
""focus"",""25"",""345982""
""focus"",""25"",""397074""
","""event"",""trial"",""time""
""fullscreenenter"",""1"",""3054""
","""event"",""trial"",""time""
""fullscreenexit"",""7"",""163821""
","","","-1","","","11","1240","284","&#9826;","elianto","#f73b6a7A","-1","-1","1","0","[]","0","0","3","","","","","","","","",""
"pit-trial","58","738964","0.0-2.0-14.2-3.2","battery-v0.2","","""event"",""trial"",""time""
""fullscreenenter"",""1"",""3054""
""fullscreenexit"",""7"",""163821""
""blur"",""7"",""165460""
""focus"",""7"",""236410""
""blur"",""24"",""342547""
""focus"",""25"",""345982""
""blur"",""25"",""347491""
""focus"",""25"",""397074""
","""event"",""trial"",""time""
""blur"",""7"",""165460""
""blur"",""24"",""342547""
""blur"",""25"",""347491""
","""event"",""trial"",""time""
""focus"",""7"",""236410""
""focus"",""25"",""345982""
""focus"",""25"",""397074""
","""event"",""trial"",""time""
""fullscreenenter"",""1"",""3054""
","""event"",""trial"",""time""
""fullscreenexit"",""7"",""163821""
","","","-1","","","11","1240","284","&#9826;","elianto","#f73b6a7A","-1","-1","1","-10","[]","0","0","3","","","","","","","","",""
"pit-trial","59","741906","0.0-2.0-14.2-4.2","battery-v0.2","","""event"",""trial"",""time""
""fullscreenenter"",""1"",""3054""
""fullscreenexit"",""7"",""163821""
""blur"",""7"",""165460""
""focus"",""7"",""236410""
""blur"",""24"",""342547""
""focus"",""25"",""345982""
""blur"",""25"",""347491""
""focus"",""25"",""397074""
","""event"",""trial"",""time""
""blur"",""7"",""165460""
""blur"",""24"",""342547""
""blur"",""25"",""347491""
","""event"",""trial"",""time""
""focus"",""7"",""236410""
""focus"",""25"",""345982""
""focus"",""25"",""397074""
","""event"",""trial"",""time""
""fullscreenenter"",""1"",""3054""
","""event"",""trial"",""time""
""fullscreenexit"",""7"",""163821""
","","","85.69999999925494","","","11","1240","284","&#9826;","elianto","#f73b6a7A","-1"," ","0","-10","[937.3999999985099,1330.0999999996275,1650.0999999996275,1855.3999999985099,2083.0999999996275,2323.89999999851,2525.0999999996275,2786.199999999255]","8","0","3","","","","","","","","",""
"pit-trial","60","745205","0.0-2.0-14.3-0.3","battery-v0.2","","""event"",""trial"",""time""
""fullscreenenter"",""1"",""3054""
""fullscreenexit"",""7"",""163821""
""blur"",""7"",""165460""
""focus"",""7"",""236410""
""blur"",""24"",""342547""
""focus"",""25"",""345982""
""blur"",""25"",""347491""
""focus"",""25"",""397074""
","""event"",""trial"",""time""
""blur"",""7"",""165460""
""blur"",""24"",""342547""
""blur"",""25"",""347491""
","""event"",""trial"",""time""
""focus"",""7"",""236410""
""focus"",""25"",""345982""
""focus"",""25"",""397074""
","""event"",""trial"",""time""
""fullscreenenter"",""1"",""3054""
","""event"",""trial"",""time""
""fullscreenexit"",""7"",""163821""
","","","442","","","11","1240","284","&#9826;","elianto","#f73b6a7A","-1"," ","0","-10","[103.79999999888241,347.09999999962747,591.6999999992549,827.1999999992549,1293,1593,1810.4000000003725,2121.5]","8","0","3","","","","","","","","",""
"pit-trial","61","748973","0.0-2.0-14.3-1.3","battery-v0.2","","""event"",""trial"",""time""
""fullscreenenter"",""1"",""3054""
""fullscreenexit"",""7"",""163821""
""blur"",""7"",""165460""
""focus"",""7"",""236410""
""blur"",""24"",""342547""
""focus"",""25"",""345982""
""blur"",""25"",""347491""
""focus"",""25"",""397074""
","""event"",""trial"",""time""
""blur"",""7"",""165460""
""blur"",""24"",""342547""
""blur"",""25"",""347491""
","""event"",""trial"",""time""
""focus"",""7"",""236410""
""focus"",""25"",""345982""
""focus"",""25"",""397074""
","""event"",""trial"",""time""
""fullscreenenter"",""1"",""3054""
","""event"",""trial"",""time""
""fullscreenexit"",""7"",""163821""
","","","910.5","","","11","1240","284","&#9826;","elianto","#f73b6a7A","-1"," ","0","-10","[1761.5,2437.4000000003725]","2","0","3","","","","","","","","",""
"pit-trial","62","751954","0.0-2.0-14.3-2.3","battery-v0.2","","""event"",""trial"",""time""
""fullscreenenter"",""1"",""3054""
""fullscreenexit"",""7"",""163821""
""blur"",""7"",""165460""
""focus"",""7"",""236410""
""blur"",""24"",""342547""
""focus"",""25"",""345982""
""blur"",""25"",""347491""
""focus"",""25"",""397074""
","""event"",""trial"",""time""
""blur"",""7"",""165460""
""blur"",""24"",""342547""
""blur"",""25"",""347491""
","""event"",""trial"",""time""
""focus"",""7"",""236410""
""focus"",""25"",""345982""
""focus"",""25"",""397074""
","""event"",""trial"",""time""
""fullscreenenter"",""1"",""3054""
","""event"",""trial"",""time""
""fullscreenexit"",""7"",""163821""
","","","126.19999999925494","","","11","1240","284","&#9826;","elianto","#f73b6a7A","-1"," ","0","-10","[614.4000000003725,976.9000000003725]","2","0","3","","","","","","","","",""
"pit-trial","63","756810","0.0-2.0-14.3-3.3","battery-v0.2","","""event"",""trial"",""time""
""fullscreenenter"",""1"",""3054""
""fullscreenexit"",""7"",""163821""
""blur"",""7"",""165460""
""focus"",""7"",""236410""
""blur"",""24"",""342547""
""focus"",""25"",""345982""
""blur"",""25"",""347491""
""focus"",""25"",""397074""
","""event"",""trial"",""time""
""blur"",""7"",""165460""
""blur"",""24"",""342547""
""blur"",""25"",""347491""
","""event"",""trial"",""time""
""focus"",""7"",""236410""
""focus"",""25"",""345982""
""focus"",""25"",""397074""
","""event"",""trial"",""time""
""fullscreenenter"",""1"",""3054""
","""event"",""trial"",""time""
""fullscreenexit"",""7"",""163821""
","","","-1","","","11","1240","284","&#9826;","elianto","#f73b6a7A","-1","-1","1","-10","[780.2000000011176,2877.300000000745]","2","0","3","","","","","","","","",""
"pit-trial","64","761665","0.0-2.0-14.3-4.3","battery-v0.2","","""event"",""trial"",""time""
""fullscreenenter"",""1"",""3054""
""fullscreenexit"",""7"",""163821""
""blur"",""7"",""165460""
""focus"",""7"",""236410""
""blur"",""24"",""342547""
""focus"",""25"",""345982""
""blur"",""25"",""347491""
""focus"",""25"",""397074""
","""event"",""trial"",""time""
""blur"",""7"",""165460""
""blur"",""24"",""342547""
""blur"",""25"",""347491""
","""event"",""trial"",""time""
""focus"",""7"",""236410""
""focus"",""25"",""345982""
""focus"",""25"",""397074""
","""event"",""trial"",""time""
""fullscreenenter"",""1"",""3054""
","""event"",""trial"",""time""
""fullscreenexit"",""7"",""163821""
","","","-1","","","11","1240","284","&#9826;","elianto","#f73b6a7A","-1","-1","1","0","[]","0","0","3","","","","","","","","",""
"pit-trial","65","766523","0.0-2.0-14.4-0.4","battery-v0.2","","""event"",""trial"",""time""
""fullscreenenter"",""1"",""3054""
""fullscreenexit"",""7"",""163821""
""blur"",""7"",""165460""
""focus"",""7"",""236410""
""blur"",""24"",""342547""
""focus"",""25"",""345982""
""blur"",""25"",""347491""
""focus"",""25"",""397074""
","""event"",""trial"",""time""
""blur"",""7"",""165460""
""blur"",""24"",""342547""
""blur"",""25"",""347491""
","""event"",""trial"",""time""
""focus"",""7"",""236410""
""focus"",""25"",""345982""
""focus"",""25"",""397074""
","""event"",""trial"",""time""
""fullscreenenter"",""1"",""3054""
","""event"",""trial"",""time""
""fullscreenexit"",""7"",""163821""
","","","-1","","","11","1240","284","&#9826;","elianto","#f73b6a7A","-1","-1","1","0","[]","0","0","3","","","","","","","","",""
"pit-trial","66","771378","0.0-2.0-14.4-1.4","battery-v0.2","","""event"",""trial"",""time""
""fullscreenenter"",""1"",""3054""
""fullscreenexit"",""7"",""163821""
""blur"",""7"",""165460""
""focus"",""7"",""236410""
""blur"",""24"",""342547""
""focus"",""25"",""345982""
""blur"",""25"",""347491""
""focus"",""25"",""397074""
","""event"",""trial"",""time""
""blur"",""7"",""165460""
""blur"",""24"",""342547""
""blur"",""25"",""347491""
","""event"",""trial"",""time""
""focus"",""7"",""236410""
""focus"",""25"",""345982""
""focus"",""25"",""397074""
","""event"",""trial"",""time""
""fullscreenenter"",""1"",""3054""
","""event"",""trial"",""time""
""fullscreenexit"",""7"",""163821""
","","","-1","","","11","1240","284","&#9826;","elianto","#f73b6a7A","-1","-1","1","0","[]","0","0","3","","","","","","","","",""
"pit-trial","67","776234","0.0-2.0-14.4-2.4","battery-v0.2","","""event"",""trial"",""time""
""fullscreenenter"",""1"",""3054""
""fullscreenexit"",""7"",""163821""
""blur"",""7"",""165460""
""focus"",""7"",""236410""
""blur"",""24"",""342547""
""focus"",""25"",""345982""
""blur"",""25"",""347491""
""focus"",""25"",""397074""
","""event"",""trial"",""time""
""blur"",""7"",""165460""
""blur"",""24"",""342547""
""blur"",""25"",""347491""
","""event"",""trial"",""time""
""focus"",""7"",""236410""
""focus"",""25"",""345982""
""focus"",""25"",""397074""
","""event"",""trial"",""time""
""fullscreenenter"",""1"",""3054""
","""event"",""trial"",""time""
""fullscreenexit"",""7"",""163821""
","","","-1","","","11","1240","284","&#9826;","elianto","#f73b6a7A","-1","-1","1","0","[]","0","0","3","","","","","","","","",""
"pit-trial","68","781090","0.0-2.0-14.4-3.4","battery-v0.2","","""event"",""trial"",""time""
""fullscreenenter"",""1"",""3054""
""fullscreenexit"",""7"",""163821""
""blur"",""7"",""165460""
""focus"",""7"",""236410""
""blur"",""24"",""342547""
""focus"",""25"",""345982""
""blur"",""25"",""347491""
""focus"",""25"",""397074""
","""event"",""trial"",""time""
""blur"",""7"",""165460""
""blur"",""24"",""342547""
""blur"",""25"",""347491""
","""event"",""trial"",""time""
""focus"",""7"",""236410""
""focus"",""25"",""345982""
""focus"",""25"",""397074""
","""event"",""trial"",""time""
""fullscreenenter"",""1"",""3054""
","""event"",""trial"",""time""
""fullscreenexit"",""7"",""163821""
","","","-1","","","11","1240","284","&#9826;","elianto","#f73b6a7A","-1","-1","1","-10","[]","0","0","3","","","","","","","","",""
"pit-trial","69","785945","0.0-2.0-14.4-4.4","battery-v0.2","","""event"",""trial"",""time""
""fullscreenenter"",""1"",""3054""
""fullscreenexit"",""7"",""163821""
""blur"",""7"",""165460""
""focus"",""7"",""236410""
""blur"",""24"",""342547""
""focus"",""25"",""345982""
""blur"",""25"",""347491""
""focus"",""25"",""397074""
","""event"",""trial"",""time""
""blur"",""7"",""165460""
""blur"",""24"",""342547""
""blur"",""25"",""347491""
","""event"",""trial"",""time""
""focus"",""7"",""236410""
""focus"",""25"",""345982""
""focus"",""25"",""397074""
","""event"",""trial"",""time""
""fullscreenenter"",""1"",""3054""
","""event"",""trial"",""time""
""fullscreenexit"",""7"",""163821""
","","","-1","","","11","1240","284","&#9826;","elianto","#f73b6a7A","-1","-1","1","0","[]","0","0","3","","","","","","","","",""
"pit-instructions","70","807698","0.0-2.0-14.4-5.4-0.4","battery-v0.2","","""event"",""trial"",""time""
""fullscreenenter"",""1"",""3054""
""fullscreenexit"",""7"",""163821""
""blur"",""7"",""165460""
""focus"",""7"",""236410""
""blur"",""24"",""342547""
""focus"",""25"",""345982""
""blur"",""25"",""347491""
""focus"",""25"",""397074""
","""event"",""trial"",""time""
""blur"",""7"",""165460""
""blur"",""24"",""342547""
""blur"",""25"",""347491""
","""event"",""trial"",""time""
""focus"",""7"",""236410""
""focus"",""25"",""345982""
""focus"",""25"",""397074""
","""event"",""trial"",""time""
""fullscreenenter"",""1"",""3054""
","""event"",""trial"",""time""
""fullscreenexit"",""7"",""163821""
","","[{""page_index"":0,""viewing_time"":9436.5},{""page_index"":1,""viewing_time"":6073.200000001118},{""page_index"":2,""viewing_time"":6239.5}]","21750","","","","","","","","","","","","","","","","","","","","","","","","",""
"call-function","71","807701","0.0-2.0-15.0","battery-v0.2","","""event"",""trial"",""time""
""fullscreenenter"",""1"",""3054""
""fullscreenexit"",""7"",""163821""
""blur"",""7"",""165460""
""focus"",""7"",""236410""
""blur"",""24"",""342547""
""focus"",""25"",""345982""
""blur"",""25"",""347491""
""focus"",""25"",""397074""
","""event"",""trial"",""time""
""blur"",""7"",""165460""
""blur"",""24"",""342547""
""blur"",""25"",""347491""
","""event"",""trial"",""time""
""focus"",""7"",""236410""
""focus"",""25"",""345982""
""focus"",""25"",""397074""
","""event"",""trial"",""time""
""fullscreenenter"",""1"",""3054""
","""event"",""trial"",""time""
""fullscreenexit"",""7"",""163821""
","","","","","","","","","","","","","","","","","","","","","","","","","","","",""
"pit-instructions","72","850798","0.0-2.0-16.0","battery-v0.2","","""event"",""trial"",""time""
""fullscreenenter"",""1"",""3054""
""fullscreenexit"",""7"",""163821""
""blur"",""7"",""165460""
""focus"",""7"",""236410""
""blur"",""24"",""342547""
""focus"",""25"",""345982""
""blur"",""25"",""347491""
""focus"",""25"",""397074""
","""event"",""trial"",""time""
""blur"",""7"",""165460""
""blur"",""24"",""342547""
""blur"",""25"",""347491""
","""event"",""trial"",""time""
""focus"",""7"",""236410""
""focus"",""25"",""345982""
""focus"",""25"",""397074""
","""event"",""trial"",""time""
""fullscreenenter"",""1"",""3054""
","""event"",""trial"",""time""
""fullscreenexit"",""7"",""163821""
","","[{""page_index"":0,""viewing_time"":13214.300000000745},{""page_index"":1,""viewing_time"":8030.0999999996275},{""page_index"":2,""viewing_time"":8140.699999999255},{""page_index"":3,""viewing_time"":13709.5}]","43095.59999999963","","","","","","","","","","","","","","","","","","","","","","","","",""
"pit-trial","73","855676","0.0-2.0-17.0-0.0","battery-v0.2","","""event"",""trial"",""time""
""fullscreenenter"",""1"",""3054""
""fullscreenexit"",""7"",""163821""
""blur"",""7"",""165460""
""focus"",""7"",""236410""
""blur"",""24"",""342547""
""focus"",""25"",""345982""
""blur"",""25"",""347491""
""focus"",""25"",""397074""
","""event"",""trial"",""time""
""blur"",""7"",""165460""
""blur"",""24"",""342547""
""blur"",""25"",""347491""
","""event"",""trial"",""time""
""focus"",""7"",""236410""
""focus"",""25"",""345982""
""focus"",""25"",""397074""
","""event"",""trial"",""time""
""fullscreenenter"",""1"",""3054""
","""event"",""trial"",""time""
""fullscreenexit"",""7"",""163821""
","","","-1","","","11","1240","284","&#9789;","elianto","#f73b6a7A"," ","-1","0","-10","[3810]","1","0","4","","","","","","","","",""
"pit-trial","74","858756","0.0-2.0-17.0-1.0","battery-v0.2","","""event"",""trial"",""time""
""fullscreenenter"",""1"",""3054""
""fullscreenexit"",""7"",""163821""
""blur"",""7"",""165460""
""focus"",""7"",""236410""
""blur"",""24"",""342547""
""focus"",""25"",""345982""
""blur"",""25"",""347491""
""focus"",""25"",""397074""
","""event"",""trial"",""time""
""blur"",""7"",""165460""
""blur"",""24"",""342547""
""blur"",""25"",""347491""
","""event"",""trial"",""time""
""focus"",""7"",""236410""
""focus"",""25"",""345982""
""focus"",""25"",""397074""
","""event"",""trial"",""time""
""fullscreenenter"",""1"",""3054""
","""event"",""trial"",""time""
""fullscreenexit"",""7"",""163821""
","","","217.80000000074506","","","11","1240","284","&#9789;","elianto","#f73b6a7A"," "," ","1","0","[1068]","1","0","4","","","","","","","","",""
"pit-trial","75","862446","0.0-2.0-17.0-2.0","battery-v0.2","","""event"",""trial"",""time""
""fullscreenenter"",""1"",""3054""
""fullscreenexit"",""7"",""163821""
""blur"",""7"",""165460""
""focus"",""7"",""236410""
""blur"",""24"",""342547""
""focus"",""25"",""345982""
""blur"",""25"",""347491""
""focus"",""25"",""397074""
","""event"",""trial"",""time""
""blur"",""7"",""165460""
""blur"",""24"",""342547""
""blur"",""25"",""347491""
","""event"",""trial"",""time""
""focus"",""7"",""236410""
""focus"",""25"",""345982""
""focus"",""25"",""397074""
","""event"",""trial"",""time""
""fullscreenenter"",""1"",""3054""
","""event"",""trial"",""time""
""fullscreenexit"",""7"",""163821""
","","","828.7000000011176","","","11","1240","284","&#9789;","elianto","#f73b6a7A"," "," ","1","0","[1679.199999999255]","1","0","4","","","","","","","","",""
"pit-trial","76","865606","0.0-2.0-17.0-3.0","battery-v0.2","","""event"",""trial"",""time""
""fullscreenenter"",""1"",""3054""
""fullscreenexit"",""7"",""163821""
""blur"",""7"",""165460""
""focus"",""7"",""236410""
""blur"",""24"",""342547""
""focus"",""25"",""345982""
""blur"",""25"",""347491""
""focus"",""25"",""397074""
","""event"",""trial"",""time""
""blur"",""7"",""165460""
""blur"",""24"",""342547""
""blur"",""25"",""347491""
","""event"",""trial"",""time""
""focus"",""7"",""236410""
""focus"",""25"",""345982""
""focus"",""25"",""397074""
","""event"",""trial"",""time""
""fullscreenenter"",""1"",""3054""
","""event"",""trial"",""time""
""fullscreenexit"",""7"",""163821""
","","","293.2999999988824","","","11","1240","284","&#9789;","elianto","#f73b6a7A"," "," ","1","-10","[553.0999999996275,1147.2999999988824,2045.8999999985099,2359.7999999988824,2599.0999999996275]","5","0","4","","","","","","","","",""
"pit-trial","77","868556","0.0-2.0-17.0-4.0","battery-v0.2","","""event"",""trial"",""time""
""fullscreenenter"",""1"",""3054""
""fullscreenexit"",""7"",""163821""
""blur"",""7"",""165460""
""focus"",""7"",""236410""
""blur"",""24"",""342547""
""focus"",""25"",""345982""
""blur"",""25"",""347491""
""focus"",""25"",""397074""
","""event"",""trial"",""time""
""blur"",""7"",""165460""
""blur"",""24"",""342547""
""blur"",""25"",""347491""
","""event"",""trial"",""time""
""focus"",""7"",""236410""
""focus"",""25"",""345982""
""focus"",""25"",""397074""
","""event"",""trial"",""time""
""fullscreenenter"",""1"",""3054""
","""event"",""trial"",""time""
""fullscreenexit"",""7"",""163821""
","","","69.89999999850988","","","11","1240","284","&#9789;","elianto","#f73b6a7A"," "," ","1","0","[147.5,704.4000000003725,929.5999999996275,1158.199999999255,1403.5,1673.800000000745,1927.699999999255,2203.699999999255,2497.5,2790.0999999996275]","10","0","4","","","","","","","","",""
"call-function","78","868559","0.0-2.0-18.0","battery-v0.2","","""event"",""trial"",""time""
""fullscreenenter"",""1"",""3054""
""fullscreenexit"",""7"",""163821""
""blur"",""7"",""165460""
""focus"",""7"",""236410""
""blur"",""24"",""342547""
""focus"",""25"",""345982""
""blur"",""25"",""347491""
""focus"",""25"",""397074""
""blur"",""79"",""981073""
""focus"",""79"",""1040136""
""blur"",""79"",""1041001""
""focus"",""79"",""1050041""
","""event"",""trial"",""time""
""blur"",""7"",""165460""
""blur"",""24"",""342547""
""blur"",""25"",""347491""
""blur"",""79"",""981073""
""blur"",""79"",""1041001""
","""event"",""trial"",""time""
""focus"",""7"",""236410""
""focus"",""25"",""345982""
""focus"",""25"",""397074""
""focus"",""79"",""1040136""
""focus"",""79"",""1050041""
","""event"",""trial"",""time""
""fullscreenenter"",""1"",""3054""
","""event"",""trial"",""time""
""fullscreenexit"",""7"",""163821""
","","","","","","","","","","","","","","","","","","","","","","","","","","","",""
"pit-instructions","79","1062707","0.0-2.0-19.0","battery-v0.2","","""event"",""trial"",""time""
""fullscreenenter"",""1"",""3054""
""fullscreenexit"",""7"",""163821""
""blur"",""7"",""165460""
""focus"",""7"",""236410""
""blur"",""24"",""342547""
""focus"",""25"",""345982""
""blur"",""25"",""347491""
""focus"",""25"",""397074""
""blur"",""79"",""981073""
""focus"",""79"",""1040136""
""blur"",""79"",""1041001""
""focus"",""79"",""1050041""
","""event"",""trial"",""time""
""blur"",""7"",""165460""
""blur"",""24"",""342547""
""blur"",""25"",""347491""
""blur"",""79"",""981073""
""blur"",""79"",""1041001""
","""event"",""trial"",""time""
""focus"",""7"",""236410""
""focus"",""25"",""345982""
""focus"",""25"",""397074""
""focus"",""79"",""1040136""
""focus"",""79"",""1050041""
","""event"",""trial"",""time""
""fullscreenenter"",""1"",""3054""
","""event"",""trial"",""time""
""fullscreenexit"",""7"",""163821""
","","[{""page_index"":0,""viewing_time"":6297.299999998882},{""page_index"":1,""viewing_time"":64840.60000000149},{""page_index"":2,""viewing_time"":9044},{""page_index"":3,""viewing_time"":7910.39999999851},{""page_index"":4,""viewing_time"":9058.5},{""page_index"":5,""viewing_time"":12061.60000000149},{""page_index"":6,""viewing_time"":74821.89999999851},{""page_index"":7,""viewing_time"":6442.60000000149},{""page_index"":8,""viewing_time"":3667.699999999255}]","194145.79999999888","","","","","","","","","","","","","","","","","","","","","","","","",""
"pit-comprehension","80","1067160","0.0-2.0-20.0-0.0","battery-v0.2","","""event"",""trial"",""time""
""fullscreenenter"",""1"",""3054""
""fullscreenexit"",""7"",""163821""
""blur"",""7"",""165460""
""focus"",""7"",""236410""
""blur"",""24"",""342547""
""focus"",""25"",""345982""
""blur"",""25"",""347491""
""focus"",""25"",""397074""
""blur"",""79"",""981073""
""focus"",""79"",""1040136""
""blur"",""79"",""1041001""
""focus"",""79"",""1050041""
","""event"",""trial"",""time""
""blur"",""7"",""165460""
""blur"",""24"",""342547""
""blur"",""25"",""347491""
""blur"",""79"",""981073""
""blur"",""79"",""1041001""
","""event"",""trial"",""time""
""focus"",""7"",""236410""
""focus"",""25"",""345982""
""focus"",""25"",""397074""
""focus"",""79"",""1040136""
""focus"",""79"",""1050041""
","""event"",""trial"",""time""
""fullscreenenter"",""1"",""3054""
","""event"",""trial"",""time""
""fullscreenexit"",""7"",""163821""
","","","4441.699999999255","[""SPACE""]","0","11","1240","284","","","","","","","","","","","","","","","","","","","",""
"pit-instructions","81","1073113","0.0-2.0-20.0-1.0","battery-v0.2","","""event"",""trial"",""time""
""fullscreenenter"",""1"",""3054""
""fullscreenexit"",""7"",""163821""
""blur"",""7"",""165460""
""focus"",""7"",""236410""
""blur"",""24"",""342547""
""focus"",""25"",""345982""
""blur"",""25"",""347491""
""focus"",""25"",""397074""
""blur"",""79"",""981073""
""focus"",""79"",""1040136""
""blur"",""79"",""1041001""
""focus"",""79"",""1050041""
","""event"",""trial"",""time""
""blur"",""7"",""165460""
""blur"",""24"",""342547""
""blur"",""25"",""347491""
""blur"",""79"",""981073""
""blur"",""79"",""1041001""
","""event"",""trial"",""time""
""focus"",""7"",""236410""
""focus"",""25"",""345982""
""focus"",""25"",""397074""
""focus"",""79"",""1040136""
""focus"",""79"",""1050041""
","""event"",""trial"",""time""
""fullscreenenter"",""1"",""3054""
","""event"",""trial"",""time""
""fullscreenexit"",""7"",""163821""
","","[{""page_index"":0,""viewing_time"":5894.0999999996275}]","5894.800000000745","","","","","","","","","","","","","","","","","","","","","","","","",""
"pit-comprehension","82","1079370","0.0-2.0-21.0-0.0","battery-v0.2","","""event"",""trial"",""time""
""fullscreenenter"",""1"",""3054""
""fullscreenexit"",""7"",""163821""
""blur"",""7"",""165460""
""focus"",""7"",""236410""
""blur"",""24"",""342547""
""focus"",""25"",""345982""
""blur"",""25"",""347491""
""focus"",""25"",""397074""
""blur"",""79"",""981073""
""focus"",""79"",""1040136""
""blur"",""79"",""1041001""
""focus"",""79"",""1050041""
","""event"",""trial"",""time""
""blur"",""7"",""165460""
""blur"",""24"",""342547""
""blur"",""25"",""347491""
""blur"",""79"",""981073""
""blur"",""79"",""1041001""
","""event"",""trial"",""time""
""focus"",""7"",""236410""
""focus"",""25"",""345982""
""focus"",""25"",""397074""
""focus"",""79"",""1040136""
""focus"",""79"",""1050041""
","""event"",""trial"",""time""
""fullscreenenter"",""1"",""3054""
","""event"",""trial"",""time""
""fullscreenexit"",""7"",""163821""
","","","6247.699999999255","[""10""]","0","11","1240","284","","","","","","","","","","","","","","","","","","","",""
"pit-instructions","83","1082417","0.0-2.0-21.0-1.0","battery-v0.2","","""event"",""trial"",""time""
""fullscreenenter"",""1"",""3054""
""fullscreenexit"",""7"",""163821""
""blur"",""7"",""165460""
""focus"",""7"",""236410""
""blur"",""24"",""342547""
""focus"",""25"",""345982""
""blur"",""25"",""347491""
""focus"",""25"",""397074""
""blur"",""79"",""981073""
""focus"",""79"",""1040136""
""blur"",""79"",""1041001""
""focus"",""79"",""1050041""
","""event"",""trial"",""time""
""blur"",""7"",""165460""
""blur"",""24"",""342547""
""blur"",""25"",""347491""
""blur"",""79"",""981073""
""blur"",""79"",""1041001""
","""event"",""trial"",""time""
""focus"",""7"",""236410""
""focus"",""25"",""345982""
""focus"",""25"",""397074""
""focus"",""79"",""1040136""
""focus"",""79"",""1050041""
","""event"",""trial"",""time""
""fullscreenenter"",""1"",""3054""
","""event"",""trial"",""time""
""fullscreenexit"",""7"",""163821""
","","[{""page_index"":0,""viewing_time"":2979.7000000011176}]","2980.60000000149","","","","","","","","","","","","","","","","","","","","","","","","",""
"pit-comprehension","84","1215149","0.0-2.0-22.0-0.0","battery-v0.2","","""event"",""trial"",""time""
""fullscreenenter"",""1"",""3054""
""fullscreenexit"",""7"",""163821""
""blur"",""7"",""165460""
""focus"",""7"",""236410""
""blur"",""24"",""342547""
""focus"",""25"",""345982""
""blur"",""25"",""347491""
""focus"",""25"",""397074""
""blur"",""79"",""981073""
""focus"",""79"",""1040136""
""blur"",""79"",""1041001""
""focus"",""79"",""1050041""
","""event"",""trial"",""time""
""blur"",""7"",""165460""
""blur"",""24"",""342547""
""blur"",""25"",""347491""
""blur"",""79"",""981073""
""blur"",""79"",""1041001""
","""event"",""trial"",""time""
""focus"",""7"",""236410""
""focus"",""25"",""345982""
""focus"",""25"",""397074""
""focus"",""79"",""1040136""
""focus"",""79"",""1050041""
","""event"",""trial"",""time""
""fullscreenenter"",""1"",""3054""
","""event"",""trial"",""time""
""fullscreenexit"",""7"",""163821""
","","","132723.59999999963","[""-10""]","1","11","1240","284","","","","","","","","","","","","","","","","","","","",""
"pit-instructions","85","1217147","0.0-2.0-22.0-1.0","battery-v0.2","","""event"",""trial"",""time""
""fullscreenenter"",""1"",""3054""
""fullscreenexit"",""7"",""163821""
""blur"",""7"",""165460""
""focus"",""7"",""236410""
""blur"",""24"",""342547""
""focus"",""25"",""345982""
""blur"",""25"",""347491""
""focus"",""25"",""397074""
""blur"",""79"",""981073""
""focus"",""79"",""1040136""
""blur"",""79"",""1041001""
""focus"",""79"",""1050041""
","""event"",""trial"",""time""
""blur"",""7"",""165460""
""blur"",""24"",""342547""
""blur"",""25"",""347491""
""blur"",""79"",""981073""
""blur"",""79"",""1041001""
","""event"",""trial"",""time""
""focus"",""7"",""236410""
""focus"",""25"",""345982""
""focus"",""25"",""397074""
""focus"",""79"",""1040136""
""focus"",""79"",""1050041""
","""event"",""trial"",""time""
""fullscreenenter"",""1"",""3054""
","""event"",""trial"",""time""
""fullscreenexit"",""7"",""163821""
","","[{""page_index"":0,""viewing_time"":1943.0999999996275}]","1943.800000000745","","","","","","","","","","","","","","","","","","","","","","","","",""
"pit-instructions","86","1221895","0.0-2.0-22.0-2.0-0.0","battery-v0.2","","""event"",""trial"",""time""
""fullscreenenter"",""1"",""3054""
""fullscreenexit"",""7"",""163821""
""blur"",""7"",""165460""
""focus"",""7"",""236410""
""blur"",""24"",""342547""
""focus"",""25"",""345982""
""blur"",""25"",""347491""
""focus"",""25"",""397074""
""blur"",""79"",""981073""
""focus"",""79"",""1040136""
""blur"",""79"",""1041001""
""focus"",""79"",""1050041""
","""event"",""trial"",""time""
""blur"",""7"",""165460""
""blur"",""24"",""342547""
""blur"",""25"",""347491""
""blur"",""79"",""981073""
""blur"",""79"",""1041001""
","""event"",""trial"",""time""
""focus"",""7"",""236410""
""focus"",""25"",""345982""
""focus"",""25"",""397074""
""focus"",""79"",""1040136""
""focus"",""79"",""1050041""
","""event"",""trial"",""time""
""fullscreenenter"",""1"",""3054""
","""event"",""trial"",""time""
""fullscreenexit"",""7"",""163821""
","","[{""page_index"":0,""viewing_time"":4742.4000000003725}]","4743.4000000003725","","","","","","","","","","","","","","","","","","","","","","","","",""
"pit-comprehension","87","1229246","0.0-2.0-22.1-0.1","battery-v0.2","","""event"",""trial"",""time""
""fullscreenenter"",""1"",""3054""
""fullscreenexit"",""7"",""163821""
""blur"",""7"",""165460""
""focus"",""7"",""236410""
""blur"",""24"",""342547""
""focus"",""25"",""345982""
""blur"",""25"",""347491""
""focus"",""25"",""397074""
""blur"",""79"",""981073""
""focus"",""79"",""1040136""
""blur"",""79"",""1041001""
""focus"",""79"",""1050041""
","""event"",""trial"",""time""
""blur"",""7"",""165460""
""blur"",""24"",""342547""
""blur"",""25"",""347491""
""blur"",""79"",""981073""
""blur"",""79"",""1041001""
","""event"",""trial"",""time""
""focus"",""7"",""236410""
""focus"",""25"",""345982""
""focus"",""25"",""397074""
""focus"",""79"",""1040136""
""focus"",""79"",""1050041""
","""event"",""trial"",""time""
""fullscreenenter"",""1"",""3054""
","""event"",""trial"",""time""
""fullscreenexit"",""7"",""163821""
","","","7340.699999999255","[""0""]","0","11","1240","284","","","","","","","","","","","","","","","","","","","",""
"pit-instructions","88","1232009","0.0-2.0-22.1-1.1","battery-v0.2","","""event"",""trial"",""time""
""fullscreenenter"",""1"",""3054""
""fullscreenexit"",""7"",""163821""
""blur"",""7"",""165460""
""focus"",""7"",""236410""
""blur"",""24"",""342547""
""focus"",""25"",""345982""
""blur"",""25"",""347491""
""focus"",""25"",""397074""
""blur"",""79"",""981073""
""focus"",""79"",""1040136""
""blur"",""79"",""1041001""
""focus"",""79"",""1050041""
","""event"",""trial"",""time""
""blur"",""7"",""165460""
""blur"",""24"",""342547""
""blur"",""25"",""347491""
""blur"",""79"",""981073""
""blur"",""79"",""1041001""
","""event"",""trial"",""time""
""focus"",""7"",""236410""
""focus"",""25"",""345982""
""focus"",""25"",""397074""
""focus"",""79"",""1040136""
""focus"",""79"",""1050041""
","""event"",""trial"",""time""
""fullscreenenter"",""1"",""3054""
","""event"",""trial"",""time""
""fullscreenexit"",""7"",""163821""
","","[{""page_index"":0,""viewing_time"":2704.4000000003725}]","2705.4000000003725","","","","","","","","","","","","","","","","","","","","","","","","",""
"pit-comprehension","89","1241368","0.0-2.0-23.0-0.0","battery-v0.2","","""event"",""trial"",""time""
""fullscreenenter"",""1"",""3054""
""fullscreenexit"",""7"",""163821""
""blur"",""7"",""165460""
""focus"",""7"",""236410""
""blur"",""24"",""342547""
""focus"",""25"",""345982""
""blur"",""25"",""347491""
""focus"",""25"",""397074""
""blur"",""79"",""981073""
""focus"",""79"",""1040136""
""blur"",""79"",""1041001""
""focus"",""79"",""1050041""
","""event"",""trial"",""time""
""blur"",""7"",""165460""
""blur"",""24"",""342547""
""blur"",""25"",""347491""
""blur"",""79"",""981073""
""blur"",""79"",""1041001""
","""event"",""trial"",""time""
""focus"",""7"",""236410""
""focus"",""25"",""345982""
""focus"",""25"",""397074""
""focus"",""79"",""1040136""
""focus"",""79"",""1050041""
","""event"",""trial"",""time""
""fullscreenenter"",""1"",""3054""
","""event"",""trial"",""time""
""fullscreenexit"",""7"",""163821""
","","","9349.599999999627","[""False""]","1","11","1240","284","","","","","","","","","","","","","","","","","","","",""
"pit-instructions","90","1246487","0.0-2.0-23.0-1.0","battery-v0.2","","""event"",""trial"",""time""
""fullscreenenter"",""1"",""3054""
""fullscreenexit"",""7"",""163821""
""blur"",""7"",""165460""
""focus"",""7"",""236410""
""blur"",""24"",""342547""
""focus"",""25"",""345982""
""blur"",""25"",""347491""
""focus"",""25"",""397074""
""blur"",""79"",""981073""
""focus"",""79"",""1040136""
""blur"",""79"",""1041001""
""focus"",""79"",""1050041""
","""event"",""trial"",""time""
""blur"",""7"",""165460""
""blur"",""24"",""342547""
""blur"",""25"",""347491""
""blur"",""79"",""981073""
""blur"",""79"",""1041001""
","""event"",""trial"",""time""
""focus"",""7"",""236410""
""focus"",""25"",""345982""
""focus"",""25"",""397074""
""focus"",""79"",""1040136""
""focus"",""79"",""1050041""
","""event"",""trial"",""time""
""fullscreenenter"",""1"",""3054""
","""event"",""trial"",""time""
""fullscreenexit"",""7"",""163821""
","","[{""page_index"":0,""viewing_time"":5057.5999999996275}]","5058.199999999255","","","","","","","","","","","","","","","","","","","","","","","","",""
"pit-instructions","91","1248303","0.0-2.0-23.0-2.0-0.0","battery-v0.2","","""event"",""trial"",""time""
""fullscreenenter"",""1"",""3054""
""fullscreenexit"",""7"",""163821""
""blur"",""7"",""165460""
""focus"",""7"",""236410""
""blur"",""24"",""342547""
""focus"",""25"",""345982""
""blur"",""25"",""347491""
""focus"",""25"",""397074""
""blur"",""79"",""981073""
""focus"",""79"",""1040136""
""blur"",""79"",""1041001""
""focus"",""79"",""1050041""
","""event"",""trial"",""time""
""blur"",""7"",""165460""
""blur"",""24"",""342547""
""blur"",""25"",""347491""
""blur"",""79"",""981073""
""blur"",""79"",""1041001""
","""event"",""trial"",""time""
""focus"",""7"",""236410""
""focus"",""25"",""345982""
""focus"",""25"",""397074""
""focus"",""79"",""1040136""
""focus"",""79"",""1050041""
","""event"",""trial"",""time""
""fullscreenenter"",""1"",""3054""
","""event"",""trial"",""time""
""fullscreenexit"",""7"",""163821""
","","[{""page_index"":0,""viewing_time"":1809.9000000003725}]","1810.699999999255","","","","","","","","","","","","","","","","","","","","","","","","",""
"pit-comprehension","92","1260620","0.0-2.0-23.1-0.1","battery-v0.2","","""event"",""trial"",""time""
""fullscreenenter"",""1"",""3054""
""fullscreenexit"",""7"",""163821""
""blur"",""7"",""165460""
""focus"",""7"",""236410""
""blur"",""24"",""342547""
""focus"",""25"",""345982""
""blur"",""25"",""347491""
""focus"",""25"",""397074""
""blur"",""79"",""981073""
""focus"",""79"",""1040136""
""blur"",""79"",""1041001""
""focus"",""79"",""1050041""
","""event"",""trial"",""time""
""blur"",""7"",""165460""
""blur"",""24"",""342547""
""blur"",""25"",""347491""
""blur"",""79"",""981073""
""blur"",""79"",""1041001""
","""event"",""trial"",""time""
""focus"",""7"",""236410""
""focus"",""25"",""345982""
""focus"",""25"",""397074""
""focus"",""79"",""1040136""
""focus"",""79"",""1050041""
","""event"",""trial"",""time""
""fullscreenenter"",""1"",""3054""
","""event"",""trial"",""time""
""fullscreenexit"",""7"",""163821""
","","","12309.800000000745","[""True""]","0","11","1240","284","","","","","","","","","","","","","","","","","","","",""
"pit-instructions","93","1262646","0.0-2.0-23.1-1.1","battery-v0.2","","""event"",""trial"",""time""
""fullscreenenter"",""1"",""3054""
""fullscreenexit"",""7"",""163821""
""blur"",""7"",""165460""
""focus"",""7"",""236410""
""blur"",""24"",""342547""
""focus"",""25"",""345982""
""blur"",""25"",""347491""
""focus"",""25"",""397074""
""blur"",""79"",""981073""
""focus"",""79"",""1040136""
""blur"",""79"",""1041001""
""focus"",""79"",""1050041""
","""event"",""trial"",""time""
""blur"",""7"",""165460""
""blur"",""24"",""342547""
""blur"",""25"",""347491""
""blur"",""79"",""981073""
""blur"",""79"",""1041001""
","""event"",""trial"",""time""
""focus"",""7"",""236410""
""focus"",""25"",""345982""
""focus"",""25"",""397074""
""focus"",""79"",""1040136""
""focus"",""79"",""1050041""
","""event"",""trial"",""time""
""fullscreenenter"",""1"",""3054""
","""event"",""trial"",""time""
""fullscreenexit"",""7"",""163821""
","","[{""page_index"":0,""viewing_time"":1981.9000000003725}]","1982.7000000011176","","","","","","","","","","","","","","","","","","","","","","","","",""
"pit-comprehension","94","1271669","0.0-2.0-24.0-0.0","battery-v0.2","","""event"",""trial"",""time""
""fullscreenenter"",""1"",""3054""
""fullscreenexit"",""7"",""163821""
""blur"",""7"",""165460""
""focus"",""7"",""236410""
""blur"",""24"",""342547""
""focus"",""25"",""345982""
""blur"",""25"",""347491""
""focus"",""25"",""397074""
""blur"",""79"",""981073""
""focus"",""79"",""1040136""
""blur"",""79"",""1041001""
""focus"",""79"",""1050041""
","""event"",""trial"",""time""
""blur"",""7"",""165460""
""blur"",""24"",""342547""
""blur"",""25"",""347491""
""blur"",""79"",""981073""
""blur"",""79"",""1041001""
","""event"",""trial"",""time""
""focus"",""7"",""236410""
""focus"",""25"",""345982""
""focus"",""25"",""397074""
""focus"",""79"",""1040136""
""focus"",""79"",""1050041""
","""event"",""trial"",""time""
""fullscreenenter"",""1"",""3054""
","""event"",""trial"",""time""
""fullscreenexit"",""7"",""163821""
","","","9015.700000001118","[""True""]","0","11","1240","284","","","","","","","","","","","","","","","","","","","",""
"pit-instructions","95","1272758","0.0-2.0-24.0-1.0","battery-v0.2","","""event"",""trial"",""time""
""fullscreenenter"",""1"",""3054""
""fullscreenexit"",""7"",""163821""
""blur"",""7"",""165460""
""focus"",""7"",""236410""
""blur"",""24"",""342547""
""focus"",""25"",""345982""
""blur"",""25"",""347491""
""focus"",""25"",""397074""
""blur"",""79"",""981073""
""focus"",""79"",""1040136""
""blur"",""79"",""1041001""
""focus"",""79"",""1050041""
","""event"",""trial"",""time""
""blur"",""7"",""165460""
""blur"",""24"",""342547""
""blur"",""25"",""347491""
""blur"",""79"",""981073""
""blur"",""79"",""1041001""
","""event"",""trial"",""time""
""focus"",""7"",""236410""
""focus"",""25"",""345982""
""focus"",""25"",""397074""
""focus"",""79"",""1040136""
""focus"",""79"",""1050041""
","""event"",""trial"",""time""
""fullscreenenter"",""1"",""3054""
","""event"",""trial"",""time""
""fullscreenexit"",""7"",""163821""
","","[{""page_index"":0,""viewing_time"":1029.5999999996275}]","1029.699999999255","","","","","","","","","","","","","","","","","","","","","","","","",""
"pit-comprehension","96","1283320","0.0-2.0-25.0-0.0","battery-v0.2","","""event"",""trial"",""time""
""fullscreenenter"",""1"",""3054""
""fullscreenexit"",""7"",""163821""
""blur"",""7"",""165460""
""focus"",""7"",""236410""
""blur"",""24"",""342547""
""focus"",""25"",""345982""
""blur"",""25"",""347491""
""focus"",""25"",""397074""
""blur"",""79"",""981073""
""focus"",""79"",""1040136""
""blur"",""79"",""1041001""
""focus"",""79"",""1050041""
","""event"",""trial"",""time""
""blur"",""7"",""165460""
""blur"",""24"",""342547""
""blur"",""25"",""347491""
""blur"",""79"",""981073""
""blur"",""79"",""1041001""
","""event"",""trial"",""time""
""focus"",""7"",""236410""
""focus"",""25"",""345982""
""focus"",""25"",""397074""
""focus"",""79"",""1040136""
""focus"",""79"",""1050041""
","""event"",""trial"",""time""
""fullscreenenter"",""1"",""3054""
","""event"",""trial"",""time""
""fullscreenexit"",""7"",""163821""
","","","10556.39999999851","[""True""]","0","11","1240","284","","","","","","","","","","","","","","","","","","","",""
"pit-instructions","97","1288354","0.0-2.0-25.0-1.0","battery-v0.2","","""event"",""trial"",""time""
""fullscreenenter"",""1"",""3054""
""fullscreenexit"",""7"",""163821""
""blur"",""7"",""165460""
""focus"",""7"",""236410""
""blur"",""24"",""342547""
""focus"",""25"",""345982""
""blur"",""25"",""347491""
""focus"",""25"",""397074""
""blur"",""79"",""981073""
""focus"",""79"",""1040136""
""blur"",""79"",""1041001""
""focus"",""79"",""1050041""
","""event"",""trial"",""time""
""blur"",""7"",""165460""
""blur"",""24"",""342547""
""blur"",""25"",""347491""
""blur"",""79"",""981073""
""blur"",""79"",""1041001""
","""event"",""trial"",""time""
""focus"",""7"",""236410""
""focus"",""25"",""345982""
""focus"",""25"",""397074""
""focus"",""79"",""1040136""
""focus"",""79"",""1050041""
","""event"",""trial"",""time""
""fullscreenenter"",""1"",""3054""
","""event"",""trial"",""time""
""fullscreenexit"",""7"",""163821""
","","[{""page_index"":0,""viewing_time"":4980.60000000149}]","4981.60000000149","","","","","","","","","","","","","","","","","","","","","","","","",""
"pit-comprehension","98","1296991","0.0-2.0-26.0-0.0","battery-v0.2","","""event"",""trial"",""time""
""fullscreenenter"",""1"",""3054""
""fullscreenexit"",""7"",""163821""
""blur"",""7"",""165460""
""focus"",""7"",""236410""
""blur"",""24"",""342547""
""focus"",""25"",""345982""
""blur"",""25"",""347491""
""focus"",""25"",""397074""
""blur"",""79"",""981073""
""focus"",""79"",""1040136""
""blur"",""79"",""1041001""
""focus"",""79"",""1050041""
","""event"",""trial"",""time""
""blur"",""7"",""165460""
""blur"",""24"",""342547""
""blur"",""25"",""347491""
""blur"",""79"",""981073""
""blur"",""79"",""1041001""
","""event"",""trial"",""time""
""focus"",""7"",""236410""
""focus"",""25"",""345982""
""focus"",""25"",""397074""
""focus"",""79"",""1040136""
""focus"",""79"",""1050041""
","""event"",""trial"",""time""
""fullscreenenter"",""1"",""3054""
","""event"",""trial"",""time""
""fullscreenexit"",""7"",""163821""
","","","8628.300000000745","[""False""]","0","11","1240","284","","","","","","","","","","","","","","","","","","","",""
"pit-instructions","99","1298776","0.0-2.0-26.0-1.0","battery-v0.2","","""event"",""trial"",""time""
""fullscreenenter"",""1"",""3054""
""fullscreenexit"",""7"",""163821""
""blur"",""7"",""165460""
""focus"",""7"",""236410""
""blur"",""24"",""342547""
""focus"",""25"",""345982""
""blur"",""25"",""347491""
""focus"",""25"",""397074""
""blur"",""79"",""981073""
""focus"",""79"",""1040136""
""blur"",""79"",""1041001""
""focus"",""79"",""1050041""
","""event"",""trial"",""time""
""blur"",""7"",""165460""
""blur"",""24"",""342547""
""blur"",""25"",""347491""
""blur"",""79"",""981073""
""blur"",""79"",""1041001""
","""event"",""trial"",""time""
""focus"",""7"",""236410""
""focus"",""25"",""345982""
""focus"",""25"",""397074""
""focus"",""79"",""1040136""
""focus"",""79"",""1050041""
","""event"",""trial"",""time""
""fullscreenenter"",""1"",""3054""
","""event"",""trial"",""time""
""fullscreenexit"",""7"",""163821""
","","[{""page_index"":0,""viewing_time"":1723.199999999255}]","1724.0999999996275","","","","","","","","","","","","","","","","","","","","","","","","",""
"pit-instructions","100","1322886","0.0-3.0","battery-v0.2","","""event"",""trial"",""time""
""fullscreenenter"",""1"",""3054""
""fullscreenexit"",""7"",""163821""
""blur"",""7"",""165460""
""focus"",""7"",""236410""
""blur"",""24"",""342547""
""focus"",""25"",""345982""
""blur"",""25"",""347491""
""focus"",""25"",""397074""
""blur"",""79"",""981073""
""focus"",""79"",""1040136""
""blur"",""79"",""1041001""
""focus"",""79"",""1050041""
","""event"",""trial"",""time""
""blur"",""7"",""165460""
""blur"",""24"",""342547""
""blur"",""25"",""347491""
""blur"",""79"",""981073""
""blur"",""79"",""1041001""
","""event"",""trial"",""time""
""focus"",""7"",""236410""
""focus"",""25"",""345982""
""focus"",""25"",""397074""
""focus"",""79"",""1040136""
""focus"",""79"",""1050041""
","""event"",""trial"",""time""
""fullscreenenter"",""1"",""3054""
","""event"",""trial"",""time""
""fullscreenexit"",""7"",""163821""
","","[{""page_index"":0,""viewing_time"":6266.4000000003725},{""page_index"":1,""viewing_time"":8749.700000001118},{""page_index"":2,""viewing_time"":9088.5}]","24105.200000001118","","","","","","","","","","","","","","","","","","","","","","","","",""
"pit-trial","101","1326943","0.0-4.0","battery-v0.2","","""event"",""trial"",""time""
""fullscreenenter"",""1"",""3054""
""fullscreenexit"",""7"",""163821""
""blur"",""7"",""165460""
""focus"",""7"",""236410""
""blur"",""24"",""342547""
""focus"",""25"",""345982""
""blur"",""25"",""347491""
""focus"",""25"",""397074""
""blur"",""79"",""981073""
""focus"",""79"",""1040136""
""blur"",""79"",""1041001""
""focus"",""79"",""1050041""
","""event"",""trial"",""time""
""blur"",""7"",""165460""
""blur"",""24"",""342547""
""blur"",""25"",""347491""
""blur"",""79"",""981073""
""blur"",""79"",""1041001""
","""event"",""trial"",""time""
""focus"",""7"",""236410""
""focus"",""25"",""345982""
""focus"",""25"",""397074""
""focus"",""79"",""1040136""
""focus"",""79"",""1050041""
","""event"",""trial"",""time""
""fullscreenenter"",""1"",""3054""
","""event"",""trial"",""time""
""fullscreenexit"",""7"",""163821""
","","","1176.0999999996275","","","11","1240","284","&#9730;","elianto","#3366ff99"," "," ","1","+10","[2028]","1","1","","","1240","1","1","1","win","go","0","[]"
"pit-trial","102","1331814","0.0-5.0","battery-v0.2","","""event"",""trial"",""time""
""fullscreenenter"",""1"",""3054""
""fullscreenexit"",""7"",""163821""
""blur"",""7"",""165460""
""focus"",""7"",""236410""
""blur"",""24"",""342547""
""focus"",""25"",""345982""
""blur"",""25"",""347491""
""focus"",""25"",""397074""
""blur"",""79"",""981073""
""focus"",""79"",""1040136""
""blur"",""79"",""1041001""
""focus"",""79"",""1050041""
","""event"",""trial"",""time""
""blur"",""7"",""165460""
""blur"",""24"",""342547""
""blur"",""25"",""347491""
""blur"",""79"",""981073""
""blur"",""79"",""1041001""
","""event"",""trial"",""time""
""focus"",""7"",""236410""
""focus"",""25"",""345982""
""focus"",""25"",""397074""
""focus"",""79"",""1040136""
""focus"",""79"",""1050041""
","""event"",""trial"",""time""
""fullscreenenter"",""1"",""3054""
","""event"",""trial"",""time""
""fullscreenexit"",""7"",""163821""
","","","-1","","","11","1240","284","&#9728;","elianto","#f73b6a7A","-1","-1","1","0","[]","0","1","","","1240","2","0","4","lose","no-go","0","0"
"pit-trial","103","1335663","0.0-6.0","battery-v0.2","","""event"",""trial"",""time""
""fullscreenenter"",""1"",""3054""
""fullscreenexit"",""7"",""163821""
""blur"",""7"",""165460""
""focus"",""7"",""236410""
""blur"",""24"",""342547""
""focus"",""25"",""345982""
""blur"",""25"",""347491""
""focus"",""25"",""397074""
""blur"",""79"",""981073""
""focus"",""79"",""1040136""
""blur"",""79"",""1041001""
""focus"",""79"",""1050041""
","""event"",""trial"",""time""
""blur"",""7"",""165460""
""blur"",""24"",""342547""
""blur"",""25"",""347491""
""blur"",""79"",""981073""
""blur"",""79"",""1041001""
","""event"",""trial"",""time""
""focus"",""7"",""236410""
""focus"",""25"",""345982""
""focus"",""25"",""397074""
""focus"",""79"",""1040136""
""focus"",""79"",""1050041""
","""event"",""trial"",""time""
""fullscreenenter"",""1"",""3054""
","""event"",""trial"",""time""
""fullscreenexit"",""7"",""163821""
","","","991.4000000003725","","","11","1240","284","&#9733;","elianto","#3366ff99","-1"," ","0","0","[1842.5]","1","1","","","1240","3","2","2","win","no-go","0","0"
"pit-trial","104","1340543","0.0-7.0","battery-v0.2","","""event"",""trial"",""time""
""fullscreenenter"",""1"",""3054""
""fullscreenexit"",""7"",""163821""
""blur"",""7"",""165460""
""focus"",""7"",""236410""
""blur"",""24"",""342547""
""focus"",""25"",""345982""
""blur"",""25"",""347491""
""focus"",""25"",""397074""
""blur"",""79"",""981073""
""focus"",""79"",""1040136""
""blur"",""79"",""1041001""
""focus"",""79"",""1050041""
","""event"",""trial"",""time""
""blur"",""7"",""165460""
""blur"",""24"",""342547""
""blur"",""25"",""347491""
""blur"",""79"",""981073""
""blur"",""79"",""1041001""
","""event"",""trial"",""time""
""focus"",""7"",""236410""
""focus"",""25"",""345982""
""focus"",""25"",""397074""
""focus"",""79"",""1040136""
""focus"",""79"",""1050041""
","""event"",""trial"",""time""
""fullscreenenter"",""1"",""3054""
","""event"",""trial"",""time""
""fullscreenexit"",""7"",""163821""
","","","-1","","","11","1240","284","&#9752;","elianto","#f73b6a7A"," ","-1","0","-10","[4614]","1","1","","","1240","4","3","3","lose","go","0","0"
"pit-trial","105","1344474","0.0-8.0","battery-v0.2","","""event"",""trial"",""time""
""fullscreenenter"",""1"",""3054""
""fullscreenexit"",""7"",""163821""
""blur"",""7"",""165460""
""focus"",""7"",""236410""
""blur"",""24"",""342547""
""focus"",""25"",""345982""
""blur"",""25"",""347491""
""focus"",""25"",""397074""
""blur"",""79"",""981073""
""focus"",""79"",""1040136""
""blur"",""79"",""1041001""
""focus"",""79"",""1050041""
","""event"",""trial"",""time""
""blur"",""7"",""165460""
""blur"",""24"",""342547""
""blur"",""25"",""347491""
""blur"",""79"",""981073""
""blur"",""79"",""1041001""
","""event"",""trial"",""time""
""focus"",""7"",""236410""
""focus"",""25"",""345982""
""focus"",""25"",""397074""
""focus"",""79"",""1040136""
""focus"",""79"",""1050041""
","""event"",""trial"",""time""
""fullscreenenter"",""1"",""3054""
","""event"",""trial"",""time""
""fullscreenexit"",""7"",""163821""
","","","1068.300000000745","","","11","1240","284","&#9733;","elianto","#3366ff99","-1"," ","0","0","[1925]","1","1","","","1240","5","2","2","win","no-go","0","0"
"pit-trial","106","1347874","0.0-9.0","battery-v0.2","","""event"",""trial"",""time""
""fullscreenenter"",""1"",""3054""
""fullscreenexit"",""7"",""163821""
""blur"",""7"",""165460""
""focus"",""7"",""236410""
""blur"",""24"",""342547""
""focus"",""25"",""345982""
""blur"",""25"",""347491""
""focus"",""25"",""397074""
""blur"",""79"",""981073""
""focus"",""79"",""1040136""
""blur"",""79"",""1041001""
""focus"",""79"",""1050041""
","""event"",""trial"",""time""
""blur"",""7"",""165460""
""blur"",""24"",""342547""
""blur"",""25"",""347491""
""blur"",""79"",""981073""
""blur"",""79"",""1041001""
","""event"",""trial"",""time""
""focus"",""7"",""236410""
""focus"",""25"",""345982""
""focus"",""25"",""397074""
""focus"",""79"",""1040136""
""focus"",""79"",""1050041""
","""event"",""trial"",""time""
""fullscreenenter"",""1"",""3054""
","""event"",""trial"",""time""
""fullscreenexit"",""7"",""163821""
","","","533.3999999985099","","","11","1240","284","&#9728;","elianto","#f73b6a7A","-1"," ","0","-10","[1391.199999999255]","1","1","","","1240","6","0","4","lose","no-go","0","0"
"pit-trial","107","1351486","0.0-10.0","battery-v0.2","","""event"",""trial"",""time""
""fullscreenenter"",""1"",""3054""
""fullscreenexit"",""7"",""163821""
""blur"",""7"",""165460""
""focus"",""7"",""236410""
""blur"",""24"",""342547""
""focus"",""25"",""345982""
""blur"",""25"",""347491""
""focus"",""25"",""397074""
""blur"",""79"",""981073""
""focus"",""79"",""1040136""
""blur"",""79"",""1041001""
""focus"",""79"",""1050041""
","""event"",""trial"",""time""
""blur"",""7"",""165460""
""blur"",""24"",""342547""
""blur"",""25"",""347491""
""blur"",""79"",""981073""
""blur"",""79"",""1041001""
","""event"",""trial"",""time""
""focus"",""7"",""236410""
""focus"",""25"",""345982""
""focus"",""25"",""397074""
""focus"",""79"",""1040136""
""focus"",""79"",""1050041""
","""event"",""trial"",""time""
""fullscreenenter"",""1"",""3054""
","""event"",""trial"",""time""
""fullscreenexit"",""7"",""163821""
","","","748.4000000003725","","","11","1240","284","&#9752;","elianto","#f73b6a7A"," "," ","1","-10","[1605.2000000011176]","1","1","","","1240","7","3","3","lose","go","1","0"
"pit-trial","108","1354838","0.0-11.0","battery-v0.2","","""event"",""trial"",""time""
""fullscreenenter"",""1"",""3054""
""fullscreenexit"",""7"",""163821""
""blur"",""7"",""165460""
""focus"",""7"",""236410""
""blur"",""24"",""342547""
""focus"",""25"",""345982""
""blur"",""25"",""347491""
""focus"",""25"",""397074""
""blur"",""79"",""981073""
""focus"",""79"",""1040136""
""blur"",""79"",""1041001""
""focus"",""79"",""1050041""
","""event"",""trial"",""time""
""blur"",""7"",""165460""
""blur"",""24"",""342547""
""blur"",""25"",""347491""
""blur"",""79"",""981073""
""blur"",""79"",""1041001""
","""event"",""trial"",""time""
""focus"",""7"",""236410""
""focus"",""25"",""345982""
""focus"",""25"",""397074""
""focus"",""79"",""1040136""
""focus"",""79"",""1050041""
","""event"",""trial"",""time""
""fullscreenenter"",""1"",""3054""
","""event"",""trial"",""time""
""fullscreenexit"",""7"",""163821""
","","","496.5","","","11","1240","284","&#9730;","elianto","#3366ff99"," "," ","1","+10","[1347.4000000003725]","1","1","","","1240","8","1","1","win","go","0","0"
"pit-trial","109","1359695","0.0-12.0","battery-v0.2","","""event"",""trial"",""time""
""fullscreenenter"",""1"",""3054""
""fullscreenexit"",""7"",""163821""
""blur"",""7"",""165460""
""focus"",""7"",""236410""
""blur"",""24"",""342547""
""focus"",""25"",""345982""
""blur"",""25"",""347491""
""focus"",""25"",""397074""
""blur"",""79"",""981073""
""focus"",""79"",""1040136""
""blur"",""79"",""1041001""
""focus"",""79"",""1050041""
","""event"",""trial"",""time""
""blur"",""7"",""165460""
""blur"",""24"",""342547""
""blur"",""25"",""347491""
""blur"",""79"",""981073""
""blur"",""79"",""1041001""
","""event"",""trial"",""time""
""focus"",""7"",""236410""
""focus"",""25"",""345982""
""focus"",""25"",""397074""
""focus"",""79"",""1040136""
""focus"",""79"",""1050041""
","""event"",""trial"",""time""
""fullscreenenter"",""1"",""3054""
","""event"",""trial"",""time""
""fullscreenexit"",""7"",""163821""
","","","-1","","","11","1240","284","&#9728;","elianto","#f73b6a7A","-1","-1","1","0","[]","0","1","","","1240","9","0","4","lose","no-go","0","0"
"pit-trial","110","1363116","0.0-13.0","battery-v0.2","","""event"",""trial"",""time""
""fullscreenenter"",""1"",""3054""
""fullscreenexit"",""7"",""163821""
""blur"",""7"",""165460""
""focus"",""7"",""236410""
""blur"",""24"",""342547""
""focus"",""25"",""345982""
""blur"",""25"",""347491""
""focus"",""25"",""397074""
""blur"",""79"",""981073""
""focus"",""79"",""1040136""
""blur"",""79"",""1041001""
""focus"",""79"",""1050041""
","""event"",""trial"",""time""
""blur"",""7"",""165460""
""blur"",""24"",""342547""
""blur"",""25"",""347491""
""blur"",""79"",""981073""
""blur"",""79"",""1041001""
","""event"",""trial"",""time""
""focus"",""7"",""236410""
""focus"",""25"",""345982""
""focus"",""25"",""397074""
""focus"",""79"",""1040136""
""focus"",""79"",""1050041""
","""event"",""trial"",""time""
""fullscreenenter"",""1"",""3054""
","""event"",""trial"",""time""
""fullscreenexit"",""7"",""163821""
","","","561.9000000003725","","","11","1240","284","&#9733;","elianto","#3366ff99","-1"," ","0","0","[1415.5]","1","1","","","1240","10","2","2","win","no-go","0","0"
"pit-trial","111","1367973","0.0-14.0","battery-v0.2","","""event"",""trial"",""time""
""fullscreenenter"",""1"",""3054""
""fullscreenexit"",""7"",""163821""
""blur"",""7"",""165460""
""focus"",""7"",""236410""
""blur"",""24"",""342547""
""focus"",""25"",""345982""
""blur"",""25"",""347491""
""focus"",""25"",""397074""
""blur"",""79"",""981073""
""focus"",""79"",""1040136""
""blur"",""79"",""1041001""
""focus"",""79"",""1050041""
