"trial_type","trial_index","time_elapsed","internal_node_id","task_version","subject_id","interactions","blur_events","focus_events","fullscreenenter_events","fullscreenexit_events","success","view_history","rt","responses","num_errors","age","subject","participantId","rune","rune_set","hex","correct","choice","accuracy","outcome","keys","total_keys","block","practice","value","sub","trial","stimulus","robot","valence","action","sham","browser_interactions"
"pavlovia","0","12","0.0-0.0","battery-v0.2","","""event"",""trial"",""time""
""fullscreenenter"",""1"",""3214""
","
","
","""event"",""trial"",""time""
""fullscreenenter"",""1"",""3214""
","
","","","","","","","","","","","","","","","","","","","","","","","","","","","",""
"fullscreen","1","4223","0.0-1.0","battery-v0.2","","""event"",""trial"",""time""
""fullscreenenter"",""1"",""3214""
","
","
","""event"",""trial"",""time""
""fullscreenenter"",""1"",""3214""
","
","true","","","","","","","","","","","","","","","","","","","","","","","","","","",""
"pit-instructions","2","10101","0.0-2.0-0.0","battery-v0.2","","""event"",""trial"",""time""
""fullscreenenter"",""1"",""3214""
","
","
","""event"",""trial"",""time""
""fullscreenenter"",""1"",""3214""
","
","","[{""page_index"":0,""viewing_time"":5875.899999976158}]","5876.099999904633","","","","","","","","","","","","","","","","","","","","","","","","",""
"pit-comprehension","3","13758","0.0-2.0-1.0-0.0","battery-v0.2","","""event"",""trial"",""time""
""fullscreenenter"",""1"",""3214""
","
","
","""event"",""trial"",""time""
""fullscreenenter"",""1"",""3214""
","
","","","3655","[""shark""]","0","13","1252","178","","","","","","","","","","","","","","","","","","","",""
"pit-instructions","4","15043","0.0-2.0-1.0-1.0","battery-v0.2","","""event"",""trial"",""time""
""fullscreenenter"",""1"",""3214""
","
","
","""event"",""trial"",""time""
""fullscreenenter"",""1"",""3214""
","
","","[{""page_index"":0,""viewing_time"":1275.2000000476837}]","1275.5","","","","","","","","","","","","","","","","","","","","","","","","",""
"pit-comprehension","5","17818","0.0-2.0-2.0-0.0","battery-v0.2","","""event"",""trial"",""time""
""fullscreenenter"",""1"",""3214""
","
","
","""event"",""trial"",""time""
""fullscreenenter"",""1"",""3214""
","
","","","2773.9000000953674","[""tiger""]","0","13","1252","178","","","","","","","","","","","","","","","","","","","",""
"pit-instructions","6","19669","0.0-2.0-2.0-1.0","battery-v0.2","","""event"",""trial"",""time""
""fullscreenenter"",""1"",""3214""
","
","
","""event"",""trial"",""time""
""fullscreenenter"",""1"",""3214""
","
","","[{""page_index"":0,""viewing_time"":1849}]","1849.2000000476837","","","","","","","","","","","","","","","","","","","","","","","","",""
"pit-instructions","7","119500","0.0-2.0-3.0","battery-v0.2","","""event"",""trial"",""time""
""fullscreenenter"",""1"",""3214""
","
","
","""event"",""trial"",""time""
""fullscreenenter"",""1"",""3214""
","
","","[{""page_index"":0,""viewing_time"":8218.5},{""page_index"":1,""viewing_time"":6183.700000047684},{""page_index"":2,""viewing_time"":7839.5},{""page_index"":3,""viewing_time"":5550.100000023842},{""page_index"":4,""viewing_time"":6837.899999976158},{""page_index"":5,""viewing_time"":5574.100000023842},{""page_index"":6,""viewing_time"":7516.399999976158},{""page_index"":7,""viewing_time"":6766},{""page_index"":8,""viewing_time"":8407.700000047684},{""page_index"":9,""viewing_time"":8903.899999976158},{""page_index"":10,""viewing_time"":7675.899999976158},{""page_index"":11,""viewing_time"":7605},{""page_index"":12,""viewing_time"":7178.100000023842},{""page_index"":13,""viewing_time"":5573.100000023842}]","99830.30000007153","","","","","","","","","","","","","","","","","","","","","","","","",""
"pit-trial","8","123232","0.0-2.0-4.0-0.0","battery-v0.2","","""event"",""trial"",""time""
""fullscreenenter"",""1"",""3214""
","
","
","""event"",""trial"",""time""
""fullscreenenter"",""1"",""3214""
","
","","","870.6000000238419","","","13","1252","178","&#9784;","elianto","#FFFFF080"," "," ","1","&#10004","[1721.8999999761581]","1","0","0","","","","","","","","",""
"pit-trial","9","126631","0.0-2.0-4.1-0.1","battery-v0.2","","""event"",""trial"",""time""
""fullscreenenter"",""1"",""3214""
","
","
","""event"",""trial"",""time""
""fullscreenenter"",""1"",""3214""
","
","","","533.3999999761581","","","13","1252","178","&#9784;","elianto","#FFFFF080"," "," ","1","&#10004","[1388.1000000238419]","1","0","0","","","","","","","","",""
"pit-trial","10","129978","0.0-2.0-4.2-0.2","battery-v0.2","","""event"",""trial"",""time""
""fullscreenenter"",""1"",""3214""
","
","
","""event"",""trial"",""time""
""fullscreenenter"",""1"",""3214""
","
","","","478.7999999523163","","","13","1252","178","&#9784;","elianto","#FFFFF080"," "," ","1","&#10004","[1332.6999999284744]","1","0","0","","","","","","","","",""
"pit-trial","11","133435","0.0-2.0-4.3-0.3","battery-v0.2","","""event"",""trial"",""time""
""fullscreenenter"",""1"",""3214""
","
","
","""event"",""trial"",""time""
""fullscreenenter"",""1"",""3214""
","
","","","588.6000000238419","","","13","1252","178","&#9784;","elianto","#FFFFF080"," "," ","1","&#10004","[1439.2999999523163]","1","0","0","","","","","","","","",""
"pit-trial","12","137081","0.0-2.0-4.4-0.4","battery-v0.2","","""event"",""trial"",""time""
""fullscreenenter"",""1"",""3214""
","
","
","""event"",""trial"",""time""
""fullscreenenter"",""1"",""3214""
","
","","","784.8999999761581","","","13","1252","178","&#9784;","elianto","#FFFFF080"," "," ","1","&#10004","[1637.8999999761581]","1","0","0","","","","","","","","",""
"pit-instructions","13","159627","0.0-2.0-5.0","battery-v0.2","","""event"",""trial"",""time""
""fullscreenenter"",""1"",""3214""
","
","
","""event"",""trial"",""time""
""fullscreenenter"",""1"",""3214""
","
","","[{""page_index"":0,""viewing_time"":5343.299999952316},{""page_index"":1,""viewing_time"":6442.200000047684},{""page_index"":2,""viewing_time"":5031.699999928474},{""page_index"":3,""viewing_time"":5728.300000071526}]","22545.699999928474","","","","","","","","","","","","","","","","","","","","","","","","",""
"pit-trial","14","164490","0.0-2.0-6.0-0.0","battery-v0.2","","""event"",""trial"",""time""
""fullscreenenter"",""1"",""3214""
","
","
","""event"",""trial"",""time""
""fullscreenenter"",""1"",""3214""
","
","","","-1","","","13","1252","178","&#9854;","elianto","#FFFFF080","-1","-1","1","&#10004","[]","0","0","1","","","","","","","","",""
"pit-trial","15","169368","0.0-2.0-6.1-0.1","battery-v0.2","","""event"",""trial"",""time""
""fullscreenenter"",""1"",""3214""
","
","
","""event"",""trial"",""time""
""fullscreenenter"",""1"",""3214""
","
","","","-1","","","13","1252","178","&#9854;","elianto","#FFFFF080","-1","-1","1","&#10004","[]","0","0","1","","","","","","","","",""
"pit-trial","16","174240","0.0-2.0-6.2-0.2","battery-v0.2","","""event"",""trial"",""time""
""fullscreenenter"",""1"",""3214""
","
","
","""event"",""trial"",""time""
""fullscreenenter"",""1"",""3214""
","
","","","-1","","","13","1252","178","&#9854;","elianto","#FFFFF080","-1","-1","1","&#10004","[]","0","0","1","","","","","","","","",""
"pit-trial","17","179114","0.0-2.0-6.3-0.3","battery-v0.2","","""event"",""trial"",""time""
""fullscreenenter"",""1"",""3214""
","
","
","""event"",""trial"",""time""
""fullscreenenter"",""1"",""3214""
","
","","","-1","","","13","1252","178","&#9854;","elianto","#FFFFF080","-1","-1","1","&#10004","[]","0","0","1","","","","","","","","",""
"pit-trial","18","183971","0.0-2.0-6.4-0.4","battery-v0.2","","""event"",""trial"",""time""
""fullscreenenter"",""1"",""3214""
","
","
","""event"",""trial"",""time""
""fullscreenenter"",""1"",""3214""
","
","","","-1","","","13","1252","178","&#9854;","elianto","#FFFFF080","-1","-1","1","&#10004","[]","0","0","1","","","","","","","","",""
"pit-instructions","19","306652","0.0-2.0-7.0","battery-v0.2","","""event"",""trial"",""time""
""fullscreenenter"",""1"",""3214""
","
","
","""event"",""trial"",""time""
""fullscreenenter"",""1"",""3214""
","
","","[{""page_index"":0,""viewing_time"":7394.5},{""page_index"":1,""viewing_time"":6755.600000023842},{""page_index"":2,""viewing_time"":6643.699999928474},{""page_index"":3,""viewing_time"":6396.399999976158},{""page_index"":4,""viewing_time"":5429.800000071526},{""page_index"":5,""viewing_time"":5666.399999976158},{""page_index"":6,""viewing_time"":5991.399999976158},{""page_index"":7,""viewing_time"":8170.300000071526},{""page_index"":8,""viewing_time"":8742},{""page_index"":9,""viewing_time"":6063.599999904633},{""page_index"":10,""viewing_time"":7122.100000023842},{""page_index"":11,""viewing_time"":4814.399999976158},{""page_index"":12,""viewing_time"":7220.100000023842},{""page_index"":13,""viewing_time"":7864},{""page_index"":14,""viewing_time"":8293.800000071526},{""page_index"":15,""viewing_time"":6446.399999976158},{""page_index"":16,""viewing_time"":6413.5},{""page_index"":17,""viewing_time"":7248}]","122676.19999992847","","","","","","","","","","","","","","","","","","","","","","","","",""
"pit-trial","20","309952","0.0-2.0-8.0-0.0","battery-v0.2","","""event"",""trial"",""time""
""fullscreenenter"",""1"",""3214""
","
","
","""event"",""trial"",""time""
""fullscreenenter"",""1"",""3214""
","
","","","434.5","","","13","1252","178","&#9776;","elianto","#3366ff99"," "," ","1","+10","[1285.8000000715256]","1","0","1","","","","","","","","",""
"pit-trial","21","313099","0.0-2.0-8.0-1.0","battery-v0.2","","""event"",""trial"",""time""
""fullscreenenter"",""1"",""3214""
","
","
","""event"",""trial"",""time""
""fullscreenenter"",""1"",""3214""
","
","","","291.89999997615814","","","13","1252","178","&#9776;","elianto","#3366ff99"," "," ","1","+10","[1144.3999999761581]","1","0","1","","","","","","","","",""
"pit-trial","22","316163","0.0-2.0-8.0-2.0","battery-v0.2","","""event"",""trial"",""time""
""fullscreenenter"",""1"",""3214""
","
","
","""event"",""trial"",""time""
""fullscreenenter"",""1"",""3214""
","
","","","195.39999997615814","","","13","1252","178","&#9776;","elianto","#3366ff99"," "," ","1","+10","[1049.1999999284744]","1","0","1","","","","","","","","",""
"pit-trial","23","319439","0.0-2.0-8.0-3.0","battery-v0.2","","""event"",""trial"",""time""
""fullscreenenter"",""1"",""3214""
","
","
","""event"",""trial"",""time""
""fullscreenenter"",""1"",""3214""
","
","","","412.89999997615814","","","13","1252","178","&#9776;","elianto","#3366ff99"," "," ","1","0","[1263.2999999523163]","1","0","1","","","","","","","","",""
"pit-trial","24","322440","0.0-2.0-8.0-4.0","battery-v0.2","","""event"",""trial"",""time""
""fullscreenenter"",""1"",""3214""
","
","
","""event"",""trial"",""time""
""fullscreenenter"",""1"",""3214""
","
","","","139.29999995231628","","","13","1252","178","&#9776;","elianto","#3366ff99"," "," ","1","+10","[993.7000000476837]","1","0","1","","","","","","","","",""
"call-function","25","322444","0.0-2.0-9.0","battery-v0.2","","""event"",""trial"",""time""
""fullscreenenter"",""1"",""3214""
","
","
","""event"",""trial"",""time""
""fullscreenenter"",""1"",""3214""
","
","","","","","","","","","","","","","","","","","","","","","","","","","","","",""
"pit-instructions","26","365057","0.0-2.0-10.0","battery-v0.2","","""event"",""trial"",""time""
""fullscreenenter"",""1"",""3214""
","
","
","""event"",""trial"",""time""
""fullscreenenter"",""1"",""3214""
","
","","[{""page_index"":0,""viewing_time"":5880.600000023842},{""page_index"":1,""viewing_time"":7216.399999976158},{""page_index"":2,""viewing_time"":9706.100000023842},{""page_index"":3,""viewing_time"":9899.800000071526},{""page_index"":4,""viewing_time"":9909.399999976158}]","42612.40000009537","","","","","","","","","","","","","","","","","","","","","","","","",""
"pit-trial","27","368507","0.0-2.0-11.0-0.0","battery-v0.2","","""event"",""trial"",""time""
""fullscreenenter"",""1"",""3214""
","
","
","""event"",""trial"",""time""
""fullscreenenter"",""1"",""3214""
","
","","","589.3999999761581","","","13","1252","178","&#9761;","elianto","#3366ff99","-1"," ","0","0","[1444]","1","0","2","","","","","","","","",""
"pit-trial","28","373365","0.0-2.0-11.0-1.0","battery-v0.2","","""event"",""trial"",""time""
""fullscreenenter"",""1"",""3214""
","
","
","""event"",""trial"",""time""
""fullscreenenter"",""1"",""3214""
","
","","","-1","","","13","1252","178","&#9761;","elianto","#3366ff99","-1","-1","1","+10","[]","0","0","2","","","","","","","","",""
"pit-trial","29","378229","0.0-2.0-11.0-2.0","battery-v0.2","","""event"",""trial"",""time""
""fullscreenenter"",""1"",""3214""
","
","
","""event"",""trial"",""time""
""fullscreenenter"",""1"",""3214""
","
","","","-1","","","13","1252","178","&#9761;","elianto","#3366ff99","-1","-1","1","+10","[]","0","0","2","","","","","","","","",""
"pit-trial","30","383095","0.0-2.0-11.0-3.0","battery-v0.2","","""event"",""trial"",""time""
""fullscreenenter"",""1"",""3214""
","
","
","""event"",""trial"",""time""
""fullscreenenter"",""1"",""3214""
","
","","","-1","","","13","1252","178","&#9761;","elianto","#3366ff99","-1","-1","1","0","[]","0","0","2","","","","","","","","",""
"pit-trial","31","387960","0.0-2.0-11.0-4.0","battery-v0.2","","""event"",""trial"",""time""
""fullscreenenter"",""1"",""3214""
","
","
","""event"",""trial"",""time""
""fullscreenenter"",""1"",""3214""
","
","","","-1","","","13","1252","178","&#9761;","elianto","#3366ff99","-1","-1","1","+10","[]","0","0","2","","","","","","","","",""
"call-function","32","387961","0.0-2.0-12.0","battery-v0.2","","""event"",""trial"",""time""
""fullscreenenter"",""1"",""3214""
","
","
","""event"",""trial"",""time""
""fullscreenenter"",""1"",""3214""
","
","","","","","","","","","","","","","","","","","","","","","","","","","","","",""
"pit-instructions","33","421115","0.0-2.0-13.0","battery-v0.2","","""event"",""trial"",""time""
""fullscreenenter"",""1"",""3214""
","
","
","""event"",""trial"",""time""
""fullscreenenter"",""1"",""3214""
","
","","[{""page_index"":0,""viewing_time"":4985.799999952316},{""page_index"":1,""viewing_time"":8368.399999976158},{""page_index"":2,""viewing_time"":3734.7000000476837},{""page_index"":3,""viewing_time"":10719.700000047684},{""page_index"":4,""viewing_time"":5345}]","33153.799999952316","","","","","","","","","","","","","","","","","","","","","","","","",""
"pit-trial","34","424274","0.0-2.0-14.0-0.0","battery-v0.2","","""event"",""trial"",""time""
""fullscreenenter"",""1"",""3214""
","
","
","""event"",""trial"",""time""
""fullscreenenter"",""1"",""3214""
","
","","","296.10000002384186","","","13","1252","178","&#9826;","elianto","#f73b6a7A","-1"," ","0","-10","[1149.8000000715256]","1","0","3","","","","","","","","",""
"pit-trial","35","429146","0.0-2.0-14.0-1.0","battery-v0.2","","""event"",""trial"",""time""
""fullscreenenter"",""1"",""3214""
","
","
","""event"",""trial"",""time""
""fullscreenenter"",""1"",""3214""
","
","","","-1","","","13","1252","178","&#9826;","elianto","#f73b6a7A","-1","-1","1","0","[]","0","0","3","","","","","","","","",""
"pit-trial","36","434023","0.0-2.0-14.0-2.0","battery-v0.2","","""event"",""trial"",""time""
""fullscreenenter"",""1"",""3214""
","
","
","""event"",""trial"",""time""
""fullscreenenter"",""1"",""3214""
","
","","","-1","","","13","1252","178","&#9826;","elianto","#f73b6a7A","-1","-1","1","0","[]","0","0","3","","","","","","","","",""
"pit-trial","37","438890","0.0-2.0-14.0-3.0","battery-v0.2","","""event"",""trial"",""time""
""fullscreenenter"",""1"",""3214""
","
","
","""event"",""trial"",""time""
""fullscreenenter"",""1"",""3214""
","
","","","-1","","","13","1252","178","&#9826;","elianto","#f73b6a7A","-1","-1","1","-10","[]","0","0","3","","","","","","","","",""
"pit-trial","38","443755","0.0-2.0-14.0-4.0","battery-v0.2","","""event"",""trial"",""time""
""fullscreenenter"",""1"",""3214""
","
","
","""event"",""trial"",""time""
""fullscreenenter"",""1"",""3214""
","
","","","-1","","","13","1252","178","&#9826;","elianto","#f73b6a7A","-1","-1","1","0","[]","0","0","3","","","","","","","","",""
"call-function","39","443756","0.0-2.0-15.0","battery-v0.2","","""event"",""trial"",""time""
""fullscreenenter"",""1"",""3214""
","
","
","""event"",""trial"",""time""
""fullscreenenter"",""1"",""3214""
","
","","","","","","","","","","","","","","","","","","","","","","","","","","","",""
"pit-instructions","40","471762","0.0-2.0-16.0","battery-v0.2","","""event"",""trial"",""time""
""fullscreenenter"",""1"",""3214""
","
","
","""event"",""trial"",""time""
""fullscreenenter"",""1"",""3214""
","
","","[{""page_index"":0,""viewing_time"":6810.699999928474},{""page_index"":1,""viewing_time"":10934.300000071526},{""page_index"":2,""viewing_time"":4944.699999928474},{""page_index"":3,""viewing_time"":5315.100000023842}]","28005.100000023842","","","","","","","","","","","","","","","","","","","","","","","","",""
"pit-trial","41","475293","0.0-2.0-17.0-0.0","battery-v0.2","","""event"",""trial"",""time""
""fullscreenenter"",""1"",""3214""
","
","
","""event"",""trial"",""time""
""fullscreenenter"",""1"",""3214""
","
","","","665.8000000715256","","","13","1252","178","&#9789;","elianto","#f73b6a7A"," "," ","1","0","[1518.3999999761581]","1","0","4","","","","","","","","",""
"pit-trial","42","478581","0.0-2.0-17.0-1.0","battery-v0.2","","""event"",""trial"",""time""
""fullscreenenter"",""1"",""3214""
","
","
","""event"",""trial"",""time""
""fullscreenenter"",""1"",""3214""
","
","","","423.39999997615814","","","13","1252","178","&#9789;","elianto","#f73b6a7A"," "," ","1","0","[1276.5]","1","0","4","","","","","","","","",""
"pit-trial","43","481548","0.0-2.0-17.0-2.0","battery-v0.2","","""event"",""trial"",""time""
""fullscreenenter"",""1"",""3214""
","
","
","""event"",""trial"",""time""
""fullscreenenter"",""1"",""3214""
","
","","","109.29999995231628","","","13","1252","178","&#9789;","elianto","#f73b6a7A"," "," ","1","0","[961.8999999761581,1692.2999999523163]","2","0","4","","","","","","","","",""
"pit-trial","44","484735","0.0-2.0-17.0-3.0","battery-v0.2","","""event"",""trial"",""time""
""fullscreenenter"",""1"",""3214""
","
","
","""event"",""trial"",""time""
""fullscreenenter"",""1"",""3214""
","
","","","319.60000002384186","","","13","1252","178","&#9789;","elianto","#f73b6a7A"," "," ","1","-10","[1173]","1","0","4","","","","","","","","",""
"pit-trial","45","487955","0.0-2.0-17.0-4.0","battery-v0.2","","""event"",""trial"",""time""
""fullscreenenter"",""1"",""3214""
","
","
","""event"",""trial"",""time""
""fullscreenenter"",""1"",""3214""
","
","","","359.89999997615814","","","13","1252","178","&#9789;","elianto","#f73b6a7A"," "," ","1","0","[1210.1000000238419]","1","0","4","","","","","","","","",""
"call-function","46","487958","0.0-2.0-18.0","battery-v0.2","","""event"",""trial"",""time""
""fullscreenenter"",""1"",""3214""
","
","
","""event"",""trial"",""time""
""fullscreenenter"",""1"",""3214""
","
","","","","","","","","","","","","","","","","","","","","","","","","","","","",""
"pit-instructions","47","562306","0.0-2.0-19.0","battery-v0.2","","""event"",""trial"",""time""
""fullscreenenter"",""1"",""3214""
","
","
","""event"",""trial"",""time""
""fullscreenenter"",""1"",""3214""
","
","","[{""page_index"":0,""viewing_time"":6763.600000023842},{""page_index"":1,""viewing_time"":7195.799999952316},{""page_index"":2,""viewing_time"":16256.400000095367},{""page_index"":3,""viewing_time"":7546.599999904633},{""page_index"":4,""viewing_time"":8497.800000071526},{""page_index"":5,""viewing_time"":9493.199999928474},{""page_index"":6,""viewing_time"":6928.5},{""page_index"":7,""viewing_time"":7249.800000071526},{""page_index"":8,""viewing_time"":4415.399999976158}]","74347.39999997616","","","","","","","","","","","","","","","","","","","","","","","","",""
"pit-comprehension","48","568301","0.0-2.0-20.0-0.0","battery-v0.2","","""event"",""trial"",""time""
""fullscreenenter"",""1"",""3214""
","
","
","""event"",""trial"",""time""
""fullscreenenter"",""1"",""3214""
","
","","","5993.300000071526","[""SPACE""]","0","13","1252","178","","","","","","","","","","","","","","","","","","","",""
"pit-instructions","49","571564","0.0-2.0-20.0-1.0","battery-v0.2","","""event"",""trial"",""time""
""fullscreenenter"",""1"",""3214""
","
","
","""event"",""trial"",""time""
""fullscreenenter"",""1"",""3214""
","
","","[{""page_index"":0,""viewing_time"":3248.399999976158}]","3248.7000000476837","","","","","","","","","","","","","","","","","","","","","","","","",""
"pit-comprehension","50","580942","0.0-2.0-21.0-0.0","battery-v0.2","","""event"",""trial"",""time""
""fullscreenenter"",""1"",""3214""
","
","
","""event"",""trial"",""time""
""fullscreenenter"",""1"",""3214""
","
","","","9375.899999976158","[""10""]","0","13","1252","178","","","","","","","","","","","","","","","","","","","",""
"pit-instructions","51","582616","0.0-2.0-21.0-1.0","battery-v0.2","","""event"",""trial"",""time""
""fullscreenenter"",""1"",""3214""
","
","
","""event"",""trial"",""time""
""fullscreenenter"",""1"",""3214""
","
","","[{""page_index"":0,""viewing_time"":1661.6000000238419}]","1661.7999999523163","","","","","","","","","","","","","","","","","","","","","","","","",""
"pit-comprehension","52","589746","0.0-2.0-22.0-0.0","battery-v0.2","","""event"",""trial"",""time""
""fullscreenenter"",""1"",""3214""
","
","
","""event"",""trial"",""time""
""fullscreenenter"",""1"",""3214""
","
","","","7128.5","[""0""]","0","13","1252","178","","","","","","","","","","","","","","","","","","","",""
"pit-instructions","53","591559","0.0-2.0-22.0-1.0","battery-v0.2","","""event"",""trial"",""time""
""fullscreenenter"",""1"",""3214""
","
","
","""event"",""trial"",""time""
""fullscreenenter"",""1"",""3214""
","
","","[{""page_index"":0,""viewing_time"":1801.5}]","1801.6000000238419","","","","","","","","","","","","","","","","","","","","","","","","",""
"pit-comprehension","54","602690","0.0-2.0-23.0-0.0","battery-v0.2","","""event"",""trial"",""time""
""fullscreenenter"",""1"",""3214""
","
","
","""event"",""trial"",""time""
""fullscreenenter"",""1"",""3214""
","
","","","11129","[""True""]","0","13","1252","178","","","","","","","","","","","","","","","","","","","",""
"pit-instructions","55","604217","0.0-2.0-23.0-1.0","battery-v0.2","","""event"",""trial"",""time""
""fullscreenenter"",""1"",""3214""
","
","
","""event"",""trial"",""time""
""fullscreenenter"",""1"",""3214""
","
","","[{""page_index"":0,""viewing_time"":1514.6999999284744}]","1514.8999999761581","","","","","","","","","","","","","","","","","","","","","","","","",""
"pit-comprehension","56","614498","0.0-2.0-24.0-0.0","battery-v0.2","","""event"",""trial"",""time""
""fullscreenenter"",""1"",""3214""
","
","
","""event"",""trial"",""time""
""fullscreenenter"",""1"",""3214""
","
","","","10279.5","[""True""]","0","13","1252","178","","","","","","","","","","","","","","","","","","","",""
"pit-instructions","57","616210","0.0-2.0-24.0-1.0","battery-v0.2","","""event"",""trial"",""time""
""fullscreenenter"",""1"",""3214""
","
","
","""event"",""trial"",""time""
""fullscreenenter"",""1"",""3214""
","
","","[{""page_index"":0,""viewing_time"":1699.1000000238419}]","1699.2999999523163","","","","","","","","","","","","","","","","","","","","","","","","",""
"pit-comprehension","58","623743","0.0-2.0-25.0-0.0","battery-v0.2","","""event"",""trial"",""time""
""fullscreenenter"",""1"",""3214""
","
","
","""event"",""trial"",""time""
""fullscreenenter"",""1"",""3214""
","
","","","7530.599999904633","[""True""]","0","13","1252","178","","","","","","","","","","","","","","","","","","","",""
"pit-instructions","59","625626","0.0-2.0-25.0-1.0","battery-v0.2","","""event"",""trial"",""time""
""fullscreenenter"",""1"",""3214""
","
","
","""event"",""trial"",""time""
""fullscreenenter"",""1"",""3214""
","
","","[{""page_index"":0,""viewing_time"":1867.8999999761581}]","1868","","","","","","","","","","","","","","","","","","","","","","","","",""
"pit-comprehension","60","633023","0.0-2.0-26.0-0.0","battery-v0.2","","""event"",""trial"",""time""
""fullscreenenter"",""1"",""3214""
","
","
","""event"",""trial"",""time""
""fullscreenenter"",""1"",""3214""
","
","","","7396.200000047684","[""False""]","0","13","1252","178","","","","","","","","","","","","","","","","","","","",""
"pit-instructions","61","634762","0.0-2.0-26.0-1.0","battery-v0.2","","""event"",""trial"",""time""
""fullscreenenter"",""1"",""3214""
","
","
","""event"",""trial"",""time""
""fullscreenenter"",""1"",""3214""
","
","","[{""page_index"":0,""viewing_time"":1724.8999999761581}]","1725.1000000238419","","","","","","","","","","","","","","","","","","","","","","","","",""
"pit-instructions","62","655881","0.0-3.0","battery-v0.2","","""event"",""trial"",""time""
""fullscreenenter"",""1"",""3214""
","
","
","""event"",""trial"",""time""
""fullscreenenter"",""1"",""3214""
","
","","[{""page_index"":0,""viewing_time"":7540.699999928474},{""page_index"":1,""viewing_time"":5473.800000071526},{""page_index"":2,""viewing_time"":8102.699999928474}]","21117.399999976158","","","","","","","","","","","","","","","","","","","","","","","","",""
"pit-trial","63","659745","0.0-4.0","battery-v0.2","","""event"",""trial"",""time""
""fullscreenenter"",""1"",""3214""
","
","
","""event"",""trial"",""time""
""fullscreenenter"",""1"",""3214""
","
","","","1004","","","13","1252","178","&#9752;","elianto","#f73b6a7A"," "," ","1","0","[1854.7000000476837]","1","1","","","1252","1","3","3","lose","go","0","[]"
"pit-trial","64","663625","0.0-5.0","battery-v0.2","","""event"",""trial"",""time""
""fullscreenenter"",""1"",""3214""
","
","
","""event"",""trial"",""time""
""fullscreenenter"",""1"",""3214""
","
","","","1017","","","13","1252","178","&#9733;","elianto","#3366ff99","-1"," ","0","0","[1867.5]","1","1","","","1252","2","2","2","win","no-go","0","0"
"pit-trial","65","667403","0.0-6.0","battery-v0.2","","""event"",""trial"",""time""
""fullscreenenter"",""1"",""3214""
","
","
","""event"",""trial"",""time""
""fullscreenenter"",""1"",""3214""
","
","","","913.1000000238419","","","13","1252","178","&#9728;","elianto","#f73b6a7A","-1"," ","0","-10","[1768.2999999523163]","1","1","","","1252","3","0","4","lose","no-go","0","0"
"pit-trial","66","671218","0.0-7.0","battery-v0.2","","""event"",""trial"",""time""
""fullscreenenter"",""1"",""3214""
","
","
","""event"",""trial"",""time""
""fullscreenenter"",""1"",""3214""
","
","","","948.7999999523163","","","13","1252","178","&#9730;","elianto","#3366ff99"," "," ","1","+10","[1799.7999999523163]","1","1","","","1252","4","1","1","win","go","0","0"
"pit-trial","67","675322","0.0-8.0","battery-v0.2","","""event"",""trial"",""time""
""fullscreenenter"",""1"",""3214""
","
","
","""event"",""trial"",""time""
""fullscreenenter"",""1"",""3214""
","
","","","1250.7999999523163","","","13","1252","178","&#9752;","elianto","#f73b6a7A"," "," ","1","0","[2101]","1","1","","","1252","5","3","3","lose","go","0","0"
"pit-trial","68","679945","0.0-9.0","battery-v0.2","","""event"",""trial"",""time""
""fullscreenenter"",""1"",""3214""
","
","
","""event"",""trial"",""time""
""fullscreenenter"",""1"",""3214""
","
","","","1758.0999999046326","","","13","1252","178","&#9733;","elianto","#3366ff99","-1"," ","0","0","[2611.2999999523163]","1","1","","","1252","6","2","2","win","no-go","0","0"
"pit-trial","69","683968","0.0-10.0","battery-v0.2","","""event"",""trial"",""time""
""fullscreenenter"",""1"",""3214""
","
","
","""event"",""trial"",""time""
""fullscreenenter"",""1"",""3214""
","
","","","1164.6000000238419","","","13","1252","178","&#9728;","elianto","#f73b6a7A","-1"," ","0","-10","[2019.5]","1","1","","","1252","7","0","4","lose","no-go","0","0"
"pit-trial","70","687358","0.0-11.0","battery-v0.2","","""event"",""trial"",""time""
""fullscreenenter"",""1"",""3214""
","
","
","""event"",""trial"",""time""
""fullscreenenter"",""1"",""3214""
","
","","","537.8000000715256","","","13","1252","178","&#9730;","elianto","#3366ff99"," "," ","1","+10","[1388.1000000238419]","1","1","","","1252","8","1","1","win","go","0","0"
"pit-trial","71","691181","0.0-12.0","battery-v0.2","","""event"",""trial"",""time""
""fullscreenenter"",""1"",""3214""
","
","
","""event"",""trial"",""time""
""fullscreenenter"",""1"",""3214""
","
","","","954.8999999761581","","","13","1252","178","&#9728;","elianto","#f73b6a7A","-1"," ","0","-10","[1805.6999999284744]","1","1","","","1252","9","0","4","lose","no-go","0","0"
"pit-trial","72","696034","0.0-13.0","battery-v0.2","","""event"",""trial"",""time""
""fullscreenenter"",""1"",""3214""
","
","
","""event"",""trial"",""time""
""fullscreenenter"",""1"",""3214""
","
","","","-1","","","13","1252","178","&#9752;","elianto","#f73b6a7A"," ","-1","0","-10","[]","0","1","","","1252","10","3","3","lose","go","0","0"
"pit-trial","73","700705","0.0-14.0","battery-v0.2","","""event"",""trial"",""time""
""fullscreenenter"",""1"",""3214""
","
","
","""event"",""trial"",""time""
""fullscreenenter"",""1"",""3214""
","
","","","1817.5","","","13","1252","178","&#9730;","elianto","#3366ff99"," "," ","1","+10","[2668.0999999046326]","1","1","","","1252","11","1","1","win","go","0","0"
"pit-trial","74","704118","0.0-15.0","battery-v0.2","","""event"",""trial"",""time""
""fullscreenenter"",""1"",""3214""
","
","
","""event"",""trial"",""time""
""fullscreenenter"",""1"",""3214""
","
","","","559.7000000476837","","","13","1252","178","&#9733;","elianto","#3366ff99","-1"," ","0","0","[1410.6000000238419]","1","1","","","1252","12","2","2","win","no-go","0","0"
"pit-trial","75","708972","0.0-16.0","battery-v0.2","","""event"",""trial"",""time""
""fullscreenenter"",""1"",""3214""
","
","
","""event"",""trial"",""time""
""fullscreenenter"",""1"",""3214""
","
","","","-1","","","13","1252","178","&#9730;","elianto","#3366ff99"," ","-1","0","+10","[]","0","1","","","1252","13","1","1","win","go","1","0"
"pit-trial","76","713266","0.0-17.0","battery-v0.2","","""event"",""trial"",""time""
""fullscreenenter"",""1"",""3214""
","
","
","""event"",""trial"",""time""
""fullscreenenter"",""1"",""3214""
","
","","","1441.5","","","13","1252","178","&#9752;","elianto","#f73b6a7A"," "," ","1","0","[2291.7999999523163]","1","1","","","1252","14","3","3","lose","go","0","0"
"pit-trial","77","716760","0.0-18.0","battery-v0.2","","""event"",""trial"",""time""
""fullscreenenter"",""1"",""3214""
","
","
","""event"",""trial"",""time""
""fullscreenenter"",""1"",""3214""
","
","","","642.2999999523163","","","13","1252","178","&#9733;","elianto","#3366ff99","-1"," ","0","0","[1492.7999999523163]","1","1","","","1252","15","2","2","win","no-go","0","0"
"pit-trial","78","721615","0.0-19.0","battery-v0.2","","""event"",""trial"",""time""
""fullscreenenter"",""1"",""3214""
","
","
","""event"",""trial"",""time""
""fullscreenenter"",""1"",""3214""
","
","","","-1","","","13","1252","178","&#9728;","elianto","#f73b6a7A","-1","-1","1","0","[]","0","1","","","1252","16","0","4","lose","no-go","0","0"
"pit-trial","79","725703","0.0-20.0","battery-v0.2","","""event"",""trial"",""time""
""fullscreenenter"",""1"",""3214""
","
","
","""event"",""trial"",""time""
""fullscreenenter"",""1"",""3214""
","
","","","1234.2999999523163","","","13","1252","178","&#9752;","elianto","#f73b6a7A"," "," ","1","0","[2084.899999976158]","1","1","","","1252","17","3","3","lose","go","0","0"
"pit-trial","80","730556","0.0-21.0","battery-v0.2","","""event"",""trial"",""time""
""fullscreenenter"",""1"",""3214""
","
","
","""event"",""trial"",""time""
""fullscreenenter"",""1"",""3214""
","
","","","-1","","","13","1252","178","&#9733;","elianto","#3366ff99","-1","-1","1","+10","[]","0","1","","","1252","18","2","2","win","no-go","0","0"
"pit-trial","81","735408","0.0-22.0","battery-v0.2","","""event"",""trial"",""time""
""fullscreenenter"",""1"",""3214""
","
","
","""event"",""trial"",""time""
""fullscreenenter"",""1"",""3214""
","
","","","-1","","","13","1252","178","&#9728;","elianto","#f73b6a7A","-1","-1","1","0","[]","0","1","","","1252","19","0","4","lose","no-go","0","0"
"pit-trial","82","739363","0.0-23.0","battery-v0.2","","""event"",""trial"",""time""
""fullscreenenter"",""1"",""3214""
","
","
","""event"",""trial"",""time""
""fullscreenenter"",""1"",""3214""
","
","","","1102.4000000953674","","","13","1252","178","&#9730;","elianto","#3366ff99"," "," ","1","+10","[1952.6000000238419]","1","1","","","1252","20","1","1","win","go","0","0"
"pit-instructions","83","754160","0.0-24.0","battery-v0.2","","""event"",""trial"",""time""
""fullscreenenter"",""1"",""3214""
","
","
","""event"",""trial"",""time""
""fullscreenenter"",""1"",""3214""
","
","","[{""page_index"":0,""viewing_time"":7362.399999976158},{""page_index"":1,""viewing_time"":7432.399999976158}]","14795","","","","","","","","","","","","","","","","","","","","","","","","",""
"pit-trial","84","758378","0.0-25.0","battery-v0.2","","""event"",""trial"",""time""
""fullscreenenter"",""1"",""3214""
","
","
","""event"",""trial"",""time""
""fullscreenenter"",""1"",""3214""
","
","","","1350.7999999523163","","","13","1252","178","f","elianto","#3366ff99"," "," ","1","+10","[2201.899999976158]","1","2","","","1252","21","2","1","win","go","0","0"
"pit-trial","85","763245","0.0-26.0","battery-v0.2","","""event"",""trial"",""time""
""fullscreenenter"",""1"",""3214""
","
","
","""event"",""trial"",""time""
""fullscreenenter"",""1"",""3214""
","
","","","-1","","","13","1252","178","x","elianto","#f73b6a7A"," ","-1","0","-10","[]","0","2","","","1252","22","3","3","lose","go","0","0"
"pit-trial","86","768116","0.0-27.0","battery-v0.2","","""event"",""trial"",""time""
""fullscreenenter"",""1"",""3214""
","
","
","""event"",""trial"",""time""
""fullscreenenter"",""1"",""3214""
","
","","","-1","","","13","1252","178","q","elianto","#3366ff99","-1","-1","1","0","[]","0","2","","","1252","23","0","2","win","no-go","1","0"
"pit-trial","87","771889","0.0-28.0","battery-v0.2","","""event"",""trial"",""time""
""fullscreenenter"",""1"",""3214""
","
","
","""event"",""trial"",""time""
""fullscreenenter"",""1"",""3214""
","
","","","908.7000000476837","","","13","1252","178","n","elianto","#3366ff99","-1"," ","0","+10","[1763.6000000238419]","1","2","","","1252","24","1","2","win","no-go","1","0"
"pit-trial","88","775964","0.0-29.0","battery-v0.2","","""event"",""trial"",""time""
""fullscreenenter"",""1"",""3214""
","
","
","""event"",""trial"",""time""
""fullscreenenter"",""1"",""3214""
","
","","","1209.1000000238419","","","13","1252","178","f","elianto","#3366ff99"," "," ","1","0","[2059.0999999046326]","1","2","","","1252","25","2","1","win","go","1","0"
"pit-trial","89","779973","0.0-30.0","battery-v0.2","","""event"",""trial"",""time""
""fullscreenenter"",""1"",""3214""
","
","
","""event"",""trial"",""time""
""fullscreenenter"",""1"",""3214""
","
","","","1153.2999999523163","","","13","1252","178","q","elianto","#3366ff99","-1"," ","0","+10","[2004.1999999284744]","1","2","","","1252","26","0","2","win","no-go","1","0"
"pit-trial","90","783326","0.0-31.0","battery-v0.2","","""event"",""trial"",""time""
""fullscreenenter"",""1"",""3214""
","
","
","""event"",""trial"",""time""
""fullscreenenter"",""1"",""3214""
","
","","","490.89999997615814","","","13","1252","178","n","elianto","#3366ff99","-1"," ","0","0","[1342.8999999761581]","1","2","","","1252","27","1","2","win","no-go","0","0"
"pit-trial","91","787156","0.0-32.0","battery-v0.2","","""event"",""trial"",""time""
""fullscreenenter"",""1"",""3214""
","
","
","""event"",""trial"",""time""
""fullscreenenter"",""1"",""3214""
","
","","","977.6000000238419","","","13","1252","178","x","elianto","#f73b6a7A"," "," ","1","0","[1827.7999999523163]","1","2","","","1252","28","3","3","lose","go","0","0"
"pit-trial","92","792010","0.0-33.0","battery-v0.2","","""event"",""trial"",""time""
""fullscreenenter"",""1"",""3214""
","
","
","""event"",""trial"",""time""
""fullscreenenter"",""1"",""3214""
","
","","","-1","","","13","1252","178","q","elianto","#3366ff99","-1","-1","1","0","[]","0","2","","","1252","29","0","2","win","no-go","1","0"
"pit-trial","93","795714","0.0-34.0","battery-v0.2","","""event"",""trial"",""time""
""fullscreenenter"",""1"",""3214""
","
","
","""event"",""trial"",""time""
""fullscreenenter"",""1"",""3214""
","
","","","836.6000000238419","","","13","1252","178","n","elianto","#3366ff99","-1"," ","0","+10","[1686.8999999761581]","1","2","","","1252","30","1","2","win","no-go","1","0"
"pit-trial","94","799081","0.0-35.0","battery-v0.2","","""event"",""trial"",""time""
""fullscreenenter"",""1"",""3214""
","
","
","""event"",""trial"",""time""
""fullscreenenter"",""1"",""3214""
","
","","","512.6000000238419","","","13","1252","178","x","elianto","#f73b6a7A"," "," ","1","0","[1362.6999999284744]","1","2","","","1252","31","3","3","lose","go","0","0"
"pit-trial","95","802930","0.0-36.0","battery-v0.2","","""event"",""trial"",""time""
""fullscreenenter"",""1"",""3214""
","
","
","""event"",""trial"",""time""
""fullscreenenter"",""1"",""3214""
","
","","","995","","","13","1252","178","f","elianto","#3366ff99"," "," ","1","0","[1845.2999999523163]","1","2","","","1252","32","2","1","win","go","1","0"
"pit-trial","96","807784","0.0-37.0","battery-v0.2","","""event"",""trial"",""time""
""fullscreenenter"",""1"",""3214""
","
","
","""event"",""trial"",""time""
""fullscreenenter"",""1"",""3214""
","
","","","-1","","","13","1252","178","q","elianto","#3366ff99","-1","-1","1","0","[]","0","2","","","1252","33","0","2","win","no-go","1","0"
"pit-trial","97","811562","0.0-38.0","battery-v0.2","","""event"",""trial"",""time""
""fullscreenenter"",""1"",""3214""
","
","
","""event"",""trial"",""time""
""fullscreenenter"",""1"",""3214""
","
","","","919","","","13","1252","178","n","elianto","#3366ff99","-1"," ","0","0","[1769.5]","1","2","","","1252","34","1","2","win","no-go","0","0"
"pit-trial","98","814879","0.0-39.0","battery-v0.2","","""event"",""trial"",""time""
""fullscreenenter"",""1"",""3214""
","
","
","""event"",""trial"",""time""
""fullscreenenter"",""1"",""3214""
","
","","","463","","","13","1252","178","x","elianto","#f73b6a7A"," "," ","1","0","[1314]","1","2","","","1252","35","3","3","lose","go","0","0"
"pit-trial","99","819732","0.0-40.0","battery-v0.2","","""event"",""trial"",""time""
""fullscreenenter"",""1"",""3214""
","
","
","""event"",""trial"",""time""
""fullscreenenter"",""1"",""3214""
","
","","","-1","","","13","1252","178","f","elianto","#3366ff99"," ","-1","0","0","[]","0","2","","","1252","36","2","1","win","go","0","0"
"pit-trial","100","823334","0.0-41.0","battery-v0.2","","""event"",""trial"",""time""
""fullscreenenter"",""1"",""3214""
","
","
","""event"",""trial"",""time""
""fullscreenenter"",""1"",""3214""
","
","","","748.9000000953674","","","13","1252","178","x","elianto","#f73b6a7A"," "," ","1","-10","[1599.4000000953674]","1","2","","","1252","37","3","3","lose","go","1","0"
"pit-trial","101","827122","0.0-42.0","battery-v0.2","","""event"",""trial"",""time""
""fullscreenenter"",""1"",""3214""
","
","
","""event"",""trial"",""time""
""fullscreenenter"",""1"",""3214""
","
","","","933.1000000238419","","","13","1252","178","q","elianto","#3366ff99","-1"," ","0","0","[1785]","1","2","","","1252","38","0","2","win","no-go","0","0"
"pit-trial","102","830613","0.0-43.0","battery-v0.2","","""event"",""trial"",""time""
""fullscreenenter"",""1"",""3214""
","
","
","""event"",""trial"",""time""
""fullscreenenter"",""1"",""3214""
","
","","","637.0999999046326","","","13","1252","178","n","elianto","#3366ff99","-1"," ","0","+10","[1488.0999999046326]","1","2","","","1252","39","1","2","win","no-go","1","0"
"pit-trial","103","834064","0.0-44.0","battery-v0.2","","""event"",""trial"",""time""
""fullscreenenter"",""1"",""3214""
","
","
","""event"",""trial"",""time""
""fullscreenenter"",""1"",""3214""
","
","","","598.1000000238419","","","13","1252","178","f","elianto","#3366ff99"," "," ","1","+10","[1448.6999999284744]","1","2","","","1252","40","2","1","win","go","0","0"
"pit-trial","104","837618","0.0-45.0","battery-v0.2","","""event"",""trial"",""time""
""fullscreenenter"",""1"",""3214""
","
","
","""event"",""trial"",""time""
""fullscreenenter"",""1"",""3214""
","
","","","698.8999999761581","","","13","1252","178","q","elianto","#3366ff99","-1"," ","0","0","[1550.3999999761581]","1","2","","","1252","41","0","2","win","no-go","0","0"
"pit-trial","105","841091","0.0-46.0","battery-v0.2","","""event"",""trial"",""time""
""fullscreenenter"",""1"",""3214""
","
","
","""event"",""trial"",""time""
""fullscreenenter"",""1"",""3214""
","
","","","620.6000000238419","","","13","1252","178","x","elianto","#f73b6a7A"," "," ","1","0","[1471.5]","1","2","","","1252","42","3","3","lose","go","0","0"
"pit-trial","106","844356","0.0-47.0","battery-v0.2","","""event"",""trial"",""time""
""fullscreenenter"",""1"",""3214""
","
","
","""event"",""trial"",""time""
""fullscreenenter"",""1"",""3214""
","
","","","412.6999999284744","","","13","1252","178","n","elianto","#3366ff99","-1"," ","0","0","[1262.7999999523163]","1","2","","","1252","43","1","2","win","no-go","0","0"
"pit-trial","107","847666","0.0-48.0","battery-v0.2","","""event"",""trial"",""time""
""fullscreenenter"",""1"",""3214""
","
","
","""event"",""trial"",""time""
""fullscreenenter"",""1"",""3214""
","
","","","457.5","","","13","1252","178","f","elianto","#3366ff99"," "," ","1","0","[1308.9000000953674]","1","2","","","1252","44","2","1","win","go","1","0"
"pit-trial","108","852522","0.0-49.0","battery-v0.2","","""event"",""trial"",""time""
""fullscreenenter"",""1"",""3214""
","
","
","""event"",""trial"",""time""
""fullscreenenter"",""1"",""3214""
","
","","","-1","","","13","1252","178","q","elianto","#3366ff99","-1","-1","1","+10","[]","0","2","","","1252","45","0","2","win","no-go","0","0"
"pit-trial","109","855862","0.0-50.0","battery-v0.2","","""event"",""trial"",""time""
""fullscreenenter"",""1"",""3214""
","
","
","""event"",""trial"",""time""
""fullscreenenter"",""1"",""3214""
","
","","","487.39999997615814","","","13","1252","178","x","elianto","#f73b6a7A"," "," ","1","0","[1337.6000000238419]","1","2","","","1252","46","3","3","lose","go","0","0"
"pit-trial","110","859509","0.0-51.0","battery-v0.2","","""event"",""trial"",""time""
""fullscreenenter"",""1"",""3214""
","
","
","""event"",""trial"",""time""
""fullscreenenter"",""1"",""3214""
","
","","","793.6999999284744","","","13","1252","178","n","elianto","#3366ff99","-1"," ","0","+10","[1643.7999999523163]","1","2","","","1252","47","1","2","win","no-go","1","0"
"pit-trial","111","862823","0.0-52.0","battery-v0.2","","""event"",""trial"",""time""
""fullscreenenter"",""1"",""3214""
","
","
","""event"",""trial"",""time""
""fullscreenenter"",""1"",""3214""
","
","","","460.2999999523163","","","13","1252","178","f","elianto","#3366ff99"," "," ","1","+10","[1310.8999999761581]","1","2","","","1252","48","2","1","win","go","0","0"
"pit-trial","112","866026","0.0-53.0","battery-v0.2","","""event"",""trial"",""time""
""fullscreenenter"",""1"",""3214""
","
","
","""event"",""trial"",""time""
""fullscreenenter"",""1"",""3214""
","
","","","346.7999999523163","","","13","1252","178","f","elianto","#3366ff99"," "," ","1","+10","[1197.7999999523163]","1","2","","","1252","49","2","1","win","go","0","0"
"pit-trial","113","870709","0.0-54.0","battery-v0.2","","""event"",""trial"",""time""
""fullscreenenter"",""1"",""3214""
","
","
","""event"",""trial"",""time""
""fullscreenenter"",""1"",""3214""
","
","","","1828","","","13","1252","178","q","elianto","#3366ff99","-1"," ","0","+10","[2679.7000000476837]","1","2","","","1252","50","0","2","win","no-go","1","0"
"pit-trial","114","874295","0.0-55.0","battery-v0.2","","""event"",""trial"",""time""
""fullscreenenter"",""1"",""3214""
","
","
","""event"",""trial"",""time""
""fullscreenenter"",""1"",""3214""
","
","","","732.5","","","13","1252","178","x","elianto","#f73b6a7A"," "," ","1","0","[1583.2999999523163]","1","2","","","1252","51","3","3","lose","go","0","0"
"pit-trial","115","877613","0.0-56.0","battery-v0.2","","""event"",""trial"",""time""
""fullscreenenter"",""1"",""3214""
","
","
","""event"",""trial"",""time""
""fullscreenenter"",""1"",""3214""
","
","","","464.60000002384186","","","13","1252","178","n","elianto","#3366ff99","-1"," ","0","0","[1315.5]","1","2","","","1252","52","1","2","win","no-go","0","0"
"pit-trial","116","880957","0.0-57.0","battery-v0.2","","""event"",""trial"",""time""
""fullscreenenter"",""1"",""3214""
","
","
","""event"",""trial"",""time""
""fullscreenenter"",""1"",""3214""
","
","","","489.7999999523163","","","13","1252","178","f","elianto","#3366ff99"," "," ","1","+10","[1340.1000000238419]","1","2","","","1252","53","2","1","win","go","0","0"
"pit-trial","117","884853","0.0-58.0","battery-v0.2","","""event"",""trial"",""time""
""fullscreenenter"",""1"",""3214""
","
","
","""event"",""trial"",""time""
""fullscreenenter"",""1"",""3214""
","
","","","1042.6000000238419","","","13","1252","178","q","elianto","#3366ff99","-1"," ","0","0","[1893]","1","2","","","1252","54","0","2","win","no-go","0","0"
"pit-trial","118","889205","0.0-59.0","battery-v0.2","","""event"",""trial"",""time""
""fullscreenenter"",""1"",""3214""
","
","
","""event"",""trial"",""time""
""fullscreenenter"",""1"",""3214""
","
","","","1499.5","","","13","1252","178","t","elianto","#f73b6a7A","-1"," ","0","-10","[2349.7999999523163]","1","2","","","1252","55","4","4","lose","no-go","0","0"
"pit-trial","119","892830","0.0-60.0","battery-v0.2","","""event"",""trial"",""time""
""fullscreenenter"",""1"",""3214""
","
","
","""event"",""trial"",""time""
""fullscreenenter"",""1"",""3214""
","
","","","769.7999999523163","","","13","1252","178","b","elianto","#f73b6a7A"," "," ","1","0","[1621.2000000476837]","1","2","","","1252","56","5","3","lose","go","0","0"
"pit-trial","120","897689","0.0-61.0","battery-v0.2","","""event"",""trial"",""time""
""fullscreenenter"",""1"",""3214""
","
","
","""event"",""trial"",""time""
""fullscreenenter"",""1"",""3214""
","
","","","-1","","","13","1252","178","t","elianto","#f73b6a7A","-1","-1","1","0","[]","0","2","","","1252","57","4","4","lose","no-go","0","0"
"pit-trial","121","901012","0.0-62.0","battery-v0.2","","""event"",""trial"",""time""
""fullscreenenter"",""1"",""3214""
","
","
","""event"",""trial"",""time""
""fullscreenenter"",""1"",""3214""
","
","","","471.5","","","13","1252","178","b","elianto","#f73b6a7A"," "," ","1","0","[1321.6000000238419]","1","2","","","1252","58","5","3","lose","go","0","0"
"pit-trial","122","904670","0.0-63.0","battery-v0.2","","""event"",""trial"",""time""
""fullscreenenter"",""1"",""3214""
","
","
","""event"",""trial"",""time""
""fullscreenenter"",""1"",""3214""
","
","","","805.1000000238419","","","13","1252","178","q","elianto","#3366ff99","-1"," ","0","0","[1656.6000000238419]","1","2","","","1252","59","0","2","win","no-go","0","0"
"pit-trial","123","908792","0.0-64.0","battery-v0.2","","""event"",""trial"",""time""
""fullscreenenter"",""1"",""3214""
","
","
","""event"",""trial"",""time""
""fullscreenenter"",""1"",""3214""
","
","","","1267.2999999523163","","","13","1252","178","f","elianto","#3366ff99"," "," ","1","+10","[2117.5]","1","2","","","1252","60","2","1","win","go","0","0"
"pit-trial","124","913646","0.0-65.0","battery-v0.2","","""event"",""trial"",""time""
""fullscreenenter"",""1"",""3214""
","
","
","""event"",""trial"",""time""
""fullscreenenter"",""1"",""3214""
","
","","","-1","","","13","1252","178","t","elianto","#f73b6a7A","-1","-1","1","-10","[]","0","2","","","1252","61","4","4","lose","no-go","1","0"
"pit-trial","125","917278","0.0-66.0","battery-v0.2","","""event"",""trial"",""time""
""fullscreenenter"",""1"",""3214""
","
","
","""event"",""trial"",""time""
""fullscreenenter"",""1"",""3214""
","
","","","779.3999999761581","","","13","1252","178","b","elianto","#f73b6a7A"," "," ","1","0","[1629.8000000715256]","1","2","","","1252","62","5","3","lose","go","0","0"
"pit-trial","126","920947","0.0-67.0","battery-v0.2","","""event"",""trial"",""time""
""fullscreenenter"",""1"",""3214""
","
","
","""event"",""trial"",""time""
""fullscreenenter"",""1"",""3214""
","
","","","816.1999999284744","","","13","1252","178","c","elianto","#3366ff99","-1"," ","0","0","[1667]","1","2","","","1252","63","6","2","win","no-go","0","0"
"pit-trial","127","924386","0.0-68.0","battery-v0.2","","""event"",""trial"",""time""
""fullscreenenter"",""1"",""3214""
","
","
","""event"",""trial"",""time""
""fullscreenenter"",""1"",""3214""
","
","","","587.3999999761581","","","13","1252","178","f","elianto","#3366ff99"," "," ","1","+10","[1437.7999999523163]","1","2","","","1252","64","2","1","win","go","0","0"
"pit-trial","128","928038","0.0-69.0","battery-v0.2","","""event"",""trial"",""time""
""fullscreenenter"",""1"",""3214""
","
","
","""event"",""trial"",""time""
""fullscreenenter"",""1"",""3214""
","
","","","799.6000000238419","","","13","1252","178","b","elianto","#f73b6a7A"," "," ","1","0","[1649.8999999761581]","1","2","","","1252","65","5","3","lose","go","0","0"
"pit-trial","129","931336","0.0-70.0","battery-v0.2","","""event"",""trial"",""time""
""fullscreenenter"",""1"",""3214""
","
","
","""event"",""trial"",""time""
""fullscreenenter"",""1"",""3214""
","
","","","443.1999999284744","","","13","1252","178","f","elianto","#3366ff99"," "," ","1","+10","[1293.6000000238419]","1","2","","","1252","66","2","1","win","go","0","0"
"pit-trial","130","934637","0.0-71.0","battery-v0.2","","""event"",""trial"",""time""
""fullscreenenter"",""1"",""3214""
","
","
","""event"",""trial"",""time""
""fullscreenenter"",""1"",""3214""
","
","","","448.89999997615814","","","13","1252","178","t","elianto","#f73b6a7A","-1"," ","0","-10","[1299.1999999284744]","1","2","","","1252","67","4","4","lose","no-go","0","0"
"pit-trial","131","939490","0.0-72.0","battery-v0.2","","""event"",""trial"",""time""
""fullscreenenter"",""1"",""3214""
","
","
","""event"",""trial"",""time""
""fullscreenenter"",""1"",""3214""
","
","","","-1","","","13","1252","178","c","elianto","#3366ff99","-1","-1","1","+10","[]","0","2","","","1252","68","6","2","win","no-go","0","0"
"pit-trial","132","943032","0.0-73.0","battery-v0.2","","""event"",""trial"",""time""
""fullscreenenter"",""1"",""3214""
","
","
","""event"",""trial"",""time""
""fullscreenenter"",""1"",""3214""
","
","","","689.2999999523163","","","13","1252","178","b","elianto","#f73b6a7A"," "," ","1","0","[1539.5999999046326]","1","2","","","1252","69","5","3","lose","go","0","0"
"pit-trial","133","947885","0.0-74.0","battery-v0.2","","""event"",""trial"",""time""
""fullscreenenter"",""1"",""3214""
","
","
","""event"",""trial"",""time""
""fullscreenenter"",""1"",""3214""
","
","","","-1","","","13","1252","178","z","elianto","#f73b6a7A","-1","-1","1","0","[]","0","2","","","1252","70","7","4","lose","no-go","0","0"
"pit-trial","134","952747","0.0-75.0","battery-v0.2","","""event"",""trial"",""time""
""fullscreenenter"",""1"",""3214""
","
","
","""event"",""trial"",""time""
""fullscreenenter"",""1"",""3214""
","
","","","-1","","","13","1252","178","c","elianto","#3366ff99","-1","-1","1","+10","[]","0","2","","","1252","71","6","2","win","no-go","0","0"
"pit-trial","135","956510","0.0-76.0","battery-v0.2","","""event"",""trial"",""time""
""fullscreenenter"",""1"",""3214""
","
","
","""event"",""trial"",""time""
""fullscreenenter"",""1"",""3214""
","
","","","908.2000000476837","","","13","1252","178","t","elianto","#f73b6a7A","-1"," ","0","0","[1759.3999999761581]","1","2","","","1252","72","4","4","lose","no-go","1","0"
"pit-trial","136","959857","0.0-77.0","battery-v0.2","","""event"",""trial"",""time""
""fullscreenenter"",""1"",""3214""
","
","
","""event"",""trial"",""time""
""fullscreenenter"",""1"",""3214""
","
","","","493.40000009536743","","","13","1252","178","b","elianto","#f73b6a7A"," "," ","1","0","[1343.6000000238419]","1","2","","","1252","73","5","3","lose","go","0","0"
"pit-trial","137","964712","0.0-78.0","battery-v0.2","","""event"",""trial"",""time""
""fullscreenenter"",""1"",""3214""
","
","
","""event"",""trial"",""time""
""fullscreenenter"",""1"",""3214""
","
","","","-1","","","13","1252","178","z","elianto","#f73b6a7A","-1","-1","1","0","[]","0","2","","","1252","74","7","4","lose","no-go","0","0"
"pit-trial","138","968899","0.0-79.0","battery-v0.2","","""event"",""trial"",""time""
""fullscreenenter"",""1"",""3214""
","
","
","""event"",""trial"",""time""
""fullscreenenter"",""1"",""3214""
","
","","","1333.5999999046326","","","13","1252","178","t","elianto","#f73b6a7A","-1"," ","0","-10","[2185.100000023842]","1","2","","","1252","75","4","4","lose","no-go","0","0"
"pit-trial","139","973775","0.0-80.0","battery-v0.2","","""event"",""trial"",""time""
""fullscreenenter"",""1"",""3214""
","
","
","""event"",""trial"",""time""
""fullscreenenter"",""1"",""3214""
","
","","","-1","","","13","1252","178","c","elianto","#3366ff99","-1","-1","1","+10","[]","0","2","","","1252","76","6","2","win","no-go","0","0"
"pit-trial","140","977637","0.0-81.0","battery-v0.2","","""event"",""trial"",""time""
""fullscreenenter"",""1"",""3214""
","
","
","""event"",""trial"",""time""
""fullscreenenter"",""1"",""3214""
","
","","","1008.5","","","13","1252","178","t","elianto","#f73b6a7A","-1"," ","0","-10","[1859.2000000476837]","1","2","","","1252","77","4","4","lose","no-go","0","0"
"pit-trial","141","982490","0.0-82.0","battery-v0.2","","""event"",""trial"",""time""
""fullscreenenter"",""1"",""3214""
","
","
","""event"",""trial"",""time""
""fullscreenenter"",""1"",""3214""
","
","","","-1","","","13","1252","178","c","elianto","#3366ff99","-1","-1","1","0","[]","0","2","","","1252","78","6","2","win","no-go","1","0"
"pit-trial","142","986132","0.0-83.0","battery-v0.2","","""event"",""trial"",""time""
""fullscreenenter"",""1"",""3214""
","
","
","""event"",""trial"",""time""
""fullscreenenter"",""1"",""3214""
","
","","","790.5","","","13","1252","178","b","elianto","#f73b6a7A"," "," ","1","0","[1640.8000000715256]","1","2","","","1252","79","5","3","lose","go","0","0"
"pit-trial","143","990985","0.0-84.0","battery-v0.2","","""event"",""trial"",""time""
""fullscreenenter"",""1"",""3214""
","
","
","""event"",""trial"",""time""
""fullscreenenter"",""1"",""3214""
","
","","","-1","","","13","1252","178","z","elianto","#f73b6a7A","-1","-1","1","-10","[]","0","2","","","1252","80","7","4","lose","no-go","1","0"
"pit-trial","144","995838","0.0-85.0","battery-v0.2","","""event"",""trial"",""time""
""fullscreenenter"",""1"",""3214""
","
","
","""event"",""trial"",""time""
""fullscreenenter"",""1"",""3214""
","
","","","-1","","","13","1252","178","z","elianto","#f73b6a7A","-1","-1","1","0","[]","0","2","","","1252","81","7","4","lose","no-go","0","0"
"pit-trial","145","999286","0.0-86.0","battery-v0.2","","""event"",""trial"",""time""
""fullscreenenter"",""1"",""3214""
","
","
","""event"",""trial"",""time""
""fullscreenenter"",""1"",""3214""
","
","","","597","","","13","1252","178","b","elianto","#f73b6a7A"," "," ","1","0","[1447.1000000238419]","1","2","","","1252","82","5","3","lose","go","0","0"
"pit-trial","146","1004139","0.0-87.0","battery-v0.2","","""event"",""trial"",""time""
""fullscreenenter"",""1"",""3214""
","
","
","""event"",""trial"",""time""
""fullscreenenter"",""1"",""3214""
","
","","","-1","","","13","1252","178","c","elianto","#3366ff99","-1","-1","1","+10","[]","0","2","","","1252","83","6","2","win","no-go","0","0"
"pit-trial","147","1008696","0.0-88.0","battery-v0.2","","""event"",""trial"",""time""
""fullscreenenter"",""1"",""3214""
","
","
","""event"",""trial"",""time""
""fullscreenenter"",""1"",""3214""
","
","","","1702.7999999523163","","","13","1252","178","t","elianto","#f73b6a7A","-1"," ","0","0","[2553.899999976158]","1","2","","","1252","84","4","4","lose","no-go","1","0"
"pit-trial","148","1013551","0.0-89.0","battery-v0.2","","""event"",""trial"",""time""
""fullscreenenter"",""1"",""3214""
","
","
","""event"",""trial"",""time""
""fullscreenenter"",""1"",""3214""
","
","","","-1","","","13","1252","178","z","elianto","#f73b6a7A","-1","-1","1","0","[]","0","2","","","1252","85","7","4","lose","no-go","0","0"
"pit-trial","149","1017061","0.0-90.0","battery-v0.2","","""event"",""trial"",""time""
""fullscreenenter"",""1"",""3214""
","
","
","""event"",""trial"",""time""
""fullscreenenter"",""1"",""3214""
","
","","","655.7999999523163","","","13","1252","178","b","elianto","#f73b6a7A"," "," ","1","-10","[1507.5]","1","2","","","1252","86","5","3","lose","go","1","0"
"pit-trial","150","1021017","0.0-91.0","battery-v0.2","","""event"",""trial"",""time""
""fullscreenenter"",""1"",""3214""
","
","
","""event"",""trial"",""time""
""fullscreenenter"",""1"",""3214""
","
","","","1102.5","","","13","1252","178","c","elianto","#3366ff99","-1"," ","0","+10","[1952.6999999284744]","1","2","","","1252","87","6","2","win","no-go","1","0"
"pit-trial","151","1024913","0.0-92.0","battery-v0.2","","""event"",""trial"",""time""
""fullscreenenter"",""1"",""3214""
","
","
","""event"",""trial"",""time""
""fullscreenenter"",""1"",""3214""
","
","","","1042.2999999523163","","","13","1252","178","t","elianto","#f73b6a7A","-1"," ","0","-10","[1892.3999999761581]","1","2","","","1252","88","4","4","lose","no-go","0","0"
"pit-trial","152","1029766","0.0-93.0","battery-v0.2","","""event"",""trial"",""time""
""fullscreenenter"",""1"",""3214""
","
","
","""event"",""trial"",""time""
""fullscreenenter"",""1"",""3214""
","
","","","-1","","","13","1252","178","z","elianto","#f73b6a7A","-1","-1","1","-10","[]","0","2","","","1252","89","7","4","lose","no-go","1","0"
"pit-trial","153","1034619","0.0-94.0","battery-v0.2","","""event"",""trial"",""time""
""fullscreenenter"",""1"",""3214""
","
","
","""event"",""trial"",""time""
""fullscreenenter"",""1"",""3214""
","
","","","-1","","","13","1252","178","t","elianto","#f73b6a7A","-1","-1","1","-10","[]","0","2","","","1252","90","4","4","lose","no-go","1","0"
"pit-trial","154","1039472","0.0-95.0","battery-v0.2","","""event"",""trial"",""time""
""fullscreenenter"",""1"",""3214""
","
","
","""event"",""trial"",""time""
""fullscreenenter"",""1"",""3214""
","
","","","-1","","","13","1252","178","c","elianto","#3366ff99","-1","-1","1","+10","[]","0","2","","","1252","91","6","2","win","no-go","0","0"
"pit-trial","155","1043069","0.0-96.0","battery-v0.2","","""event"",""trial"",""time""
""fullscreenenter"",""1"",""3214""
","
","
","""event"",""trial"",""time""
""fullscreenenter"",""1"",""3214""
","
","","","743.1000000238419","","","13","1252","178","b","elianto","#f73b6a7A"," "," ","1","0","[1593.1999999284744]","1","2","","","1252","92","5","3","lose","go","0","0"
"pit-trial","156","1047925","0.0-97.0","battery-v0.2","","""event"",""trial"",""time""
""fullscreenenter"",""1"",""3214""
","
","
","""event"",""trial"",""time""
""fullscreenenter"",""1"",""3214""
","
","","","-1","","","13","1252","178","z","elianto","#f73b6a7A","-1","-1","1","0","[]","0","2","","","1252","93","7","4","lose","no-go","0","0"
"pit-trial","157","1052779","0.0-98.0","battery-v0.2","","""event"",""trial"",""time""
""fullscreenenter"",""1"",""3214""
","
","
","""event"",""trial"",""time""
""fullscreenenter"",""1"",""3214""
","
","","","-1","","","13","1252","178","c","elianto","#3366ff99","-1","-1","1","0","[]","0","2","","","1252","94","6","2","win","no-go","1","0"
"pit-trial","158","1056224","0.0-99.0","battery-v0.2","","""event"",""trial"",""time""
""fullscreenenter"",""1"",""3214""
","
","
","""event"",""trial"",""time""
""fullscreenenter"",""1"",""3214""
","
","","","591.5","","","13","1252","178","b","elianto","#f73b6a7A"," "," ","1","0","[1442]","1","2","","","1252","95","5","3","lose","go","0","0"
"pit-trial","159","1061078","0.0-100.0","battery-v0.2","","""event"",""trial"",""time""
""fullscreenenter"",""1"",""3214""
","
","
","""event"",""trial"",""time""
""fullscreenenter"",""1"",""3214""
","
","","","-1","","","13","1252","178","h","elianto","#f73b6a7A","-1","-1","1","0","[]","0","2","","","1252","96","8","4","lose","no-go","0","0"
"pit-trial","160","1065933","0.0-101.0","battery-v0.2","","""event"",""trial"",""time""
""fullscreenenter"",""1"",""3214""
","
","
","""event"",""trial"",""time""
""fullscreenenter"",""1"",""3214""
","
","","","-1","","","13","1252","178","c","elianto","#3366ff99","-1","-1","1","+10","[]","0","2","","","1252","97","6","2","win","no-go","0","0"
"pit-trial","161","1070787","0.0-102.0","battery-v0.2","","""event"",""trial"",""time""
""fullscreenenter"",""1"",""3214""
","
","
","""event"",""trial"",""time""
""fullscreenenter"",""1"",""3214""
","
","","","-1","","","13","1252","178","z","elianto","#f73b6a7A","-1","-1","1","0","[]","0","2","","","1252","98","7","4","lose","no-go","0","0"
"pit-trial","162","1074160","0.0-103.0","battery-v0.2","","""event"",""trial"",""time""
""fullscreenenter"",""1"",""3214""
","
","
","""event"",""trial"",""time""
""fullscreenenter"",""1"",""3214""
","
","","","519.5999999046326","","","13","1252","178","b","elianto","#f73b6a7A"," "," ","1","0","[1370.1000000238419]","1","2","","","1252","99","5","3","lose","go","0","0"
"pit-trial","163","1079013","0.0-104.0","battery-v0.2","","""event"",""trial"",""time""
""fullscreenenter"",""1"",""3214""
","
","
","""event"",""trial"",""time""
""fullscreenenter"",""1"",""3214""
","
","","","-1","","","13","1252","178","h","elianto","#f73b6a7A","-1","-1","1","-10","[]","0","2","","","1252","100","8","4","lose","no-go","1","0"
"pit-trial","164","1083865","0.0-105.0","battery-v0.2","","""event"",""trial"",""time""
""fullscreenenter"",""1"",""3214""
","
","
","""event"",""trial"",""time""
""fullscreenenter"",""1"",""3214""
","
","","","-1","","","13","1252","178","y","elianto","#3366ff99"," ","-1","0","0","[]","0","2","","","1252","101","9","1","win","go","0","0"
"pit-trial","165","1087439","0.0-106.0","battery-v0.2","","""event"",""trial"",""time""
""fullscreenenter"",""1"",""3214""
","
","
","""event"",""trial"",""time""
""fullscreenenter"",""1"",""3214""
","
","","","720.5","","","13","1252","178","r","elianto","#f73b6a7A"," "," ","1","-10","[1570.7999999523163]","1","2","","","1252","102","10","3","lose","go","1","0"
"pit-trial","166","1091426","0.0-107.0","battery-v0.2","","""event"",""trial"",""time""
""fullscreenenter"",""1"",""3214""
","
","
","""event"",""trial"",""time""
""fullscreenenter"",""1"",""3214""
","
","","","1133.7000000476837","","","13","1252","178","h","elianto","#f73b6a7A","-1"," ","0","-10","[1984.7000000476837]","1","2","","","1252","103","8","4","lose","no-go","0","0"
"pit-trial","167","1096281","0.0-108.0","battery-v0.2","","""event"",""trial"",""time""
""fullscreenenter"",""1"",""3214""
","
","
","""event"",""trial"",""time""
""fullscreenenter"",""1"",""3214""
","
","","","-1","","","13","1252","178","c","elianto","#3366ff99","-1","-1","1","+10","[]","0","2","","","1252","104","6","2","win","no-go","0","0"
"pit-trial","168","1101133","0.0-109.0","battery-v0.2","","""event"",""trial"",""time""
""fullscreenenter"",""1"",""3214""
","
","
","""event"",""trial"",""time""
""fullscreenenter"",""1"",""3214""
","
","","","-1","","","13","1252","178","r","elianto","#f73b6a7A"," ","-1","0","-10","[]","0","2","","","1252","105","10","3","lose","go","0","0"
"pit-trial","169","1105986","0.0-110.0","battery-v0.2","","""event"",""trial"",""time""
""fullscreenenter"",""1"",""3214""
","
","
","""event"",""trial"",""time""
""fullscreenenter"",""1"",""3214""
","
","","","-1","","","13","1252","178","h","elianto","#f73b6a7A","-1","-1","1","0","[]","0","2","","","1252","106","8","4","lose","no-go","0","0"
"pit-trial","170","1110841","0.0-111.0","battery-v0.2","","""event"",""trial"",""time""
""fullscreenenter"",""1"",""3214""
","
","
","""event"",""trial"",""time""
""fullscreenenter"",""1"",""3214""
","
","","","-1","","","13","1252","178","c","elianto","#3366ff99","-1","-1","1","0","[]","0","2","","","1252","107","6","2","win","no-go","1","0"
"pit-trial","171","1114236","0.0-112.0","battery-v0.2","","""event"",""trial"",""time""
""fullscreenenter"",""1"",""3214""
","
","
","""event"",""trial"",""time""
""fullscreenenter"",""1"",""3214""
","
","","","540.1999999284744","","","13","1252","178","y","elianto","#3366ff99"," "," ","1","+10","[1391.6999999284744]","1","2","","","1252","108","9","1","win","go","0","0"
"pit-trial","172","1117522","0.0-113.0","battery-v0.2","","""event"",""trial"",""time""
""fullscreenenter"",""1"",""3214""
","
","
","""event"",""trial"",""time""
""fullscreenenter"",""1"",""3214""
","
","","","432.7999999523163","","","13","1252","178","r","elianto","#f73b6a7A"," "," ","1","-10","[1283.8999999761581]","1","2","","","1252","109","10","3","lose","go","1","0"
"pit-trial","173","1122376","0.0-114.0","battery-v0.2","","""event"",""trial"",""time""
""fullscreenenter"",""1"",""3214""
","
","
","""event"",""trial"",""time""
""fullscreenenter"",""1"",""3214""
","
","","","-1","","","13","1252","178","m","elianto","#3366ff99"," ","-1","0","+10","[]","0","2","","","1252","110","11","1","win","go","1","0"
"pit-trial","174","1127229","0.0-115.0","battery-v0.2","","""event"",""trial"",""time""
""fullscreenenter"",""1"",""3214""
","
","
","""event"",""trial"",""time""
""fullscreenenter"",""1"",""3214""
","
","","","-1","","","13","1252","178","h","elianto","#f73b6a7A","-1","-1","1","0","[4082.7999999523163]","1","2","","","1252","111","8","4","lose","no-go","0","0"
"pit-trial","175","1130611","0.0-116.0","battery-v0.2","","""event"",""trial"",""time""
""fullscreenenter"",""1"",""3214""
","
","
","""event"",""trial"",""time""
""fullscreenenter"",""1"",""3214""
","
","","","526.6000000238419","","","13","1252","178","y","elianto","#3366ff99"," "," ","1","+10","[1377.6999999284744]","1","2","","","1252","112","9","1","win","go","0","0"
"pit-trial","176","1135466","0.0-117.0","battery-v0.2","","""event"",""trial"",""time""
""fullscreenenter"",""1"",""3214""
","
","
","""event"",""trial"",""time""
""fullscreenenter"",""1"",""3214""
","
","","","-1","","","13","1252","178","m","elianto","#3366ff99"," ","-1","0","0","[]","0","2","","","1252","113","11","1","win","go","0","0"
"pit-trial","177","1138895","0.0-118.0","battery-v0.2","","""event"",""trial"",""time""
""fullscreenenter"",""1"",""3214""
","
","
","""event"",""trial"",""time""
""fullscreenenter"",""1"",""3214""
","
","","","575.9000000953674","","","13","1252","178","y","elianto","#3366ff99"," "," ","1","0","[1426]","1","2","","","1252","114","9","1","win","go","1","0"
"pit-trial","178","1142983","0.0-119.0","battery-v0.2","","""event"",""trial"",""time""
""fullscreenenter"",""1"",""3214""
","
","
","""event"",""trial"",""time""
""fullscreenenter"",""1"",""3214""
","
","","","1233.5","","","13","1252","178","r","elianto","#f73b6a7A"," "," ","1","-10","[2084.5999999046326]","1","2","","","1252","115","10","3","lose","go","1","0"
"pit-trial","179","1147839","0.0-120.0","battery-v0.2","","""event"",""trial"",""time""
""fullscreenenter"",""1"",""3214""
","
","
","""event"",""trial"",""time""
""fullscreenenter"",""1"",""3214""
","
","","","-1","","","13","1252","178","h","elianto","#f73b6a7A","-1","-1","1","0","[]","0","2","","","1252","116","8","4","lose","no-go","0","0"
"pit-trial","180","1152693","0.0-121.0","battery-v0.2","","""event"",""trial"",""time""
""fullscreenenter"",""1"",""3214""
","
","
","""event"",""trial"",""time""
""fullscreenenter"",""1"",""3214""
","
","","","-1","","","13","1252","178","y","elianto","#3366ff99"," ","-1","0","0","[]","0","2","","","1252","117","9","1","win","go","0","0"
"pit-trial","181","1157547","0.0-122.0","battery-v0.2","","""event"",""trial"",""time""
""fullscreenenter"",""1"",""3214""
","
","
","""event"",""trial"",""time""
""fullscreenenter"",""1"",""3214""
","
","","","-1","","","13","1252","178","h","elianto","#f73b6a7A","-1","-1","1","0","[]","0","2","","","1252","118","8","4","lose","no-go","0","0"
"pit-trial","182","1162402","0.0-123.0","battery-v0.2","","""event"",""trial"",""time""
""fullscreenenter"",""1"",""3214""
","
","
","""event"",""trial"",""time""
""fullscreenenter"",""1"",""3214""
","
","","","-1","","","13","1252","178","m","elianto","#3366ff99"," ","-1","0","0","[]","0","2","","","1252","119","11","1","win","go","0","0"
"pit-trial","183","1166507","0.0-124.0","battery-v0.2","","""event"",""trial"",""time""
""fullscreenenter"",""1"",""3214""
","
","
","""event"",""trial"",""time""
""fullscreenenter"",""1"",""3214""
","
","","","1252.8999999761581","","","13","1252","178","r","elianto","#f73b6a7A"," "," ","1","0","[2102.899999976158]","1","2","","","1252","120","10","3","lose","go","0","0"
"pit-trial","184","1170080","0.0-125.0","battery-v0.2","","""event"",""trial"",""time""
""fullscreenenter"",""1"",""3214""
","
","
","""event"",""trial"",""time""
""fullscreenenter"",""1"",""3214""
","
","","","720.1999999284744","","","13","1252","178","r","elianto","#f73b6a7A"," "," ","1","-10","[1570.6999999284744]","1","2","","","1252","121","10","3","lose","go","1","0"
"pit-trial","185","1174933","0.0-126.0","battery-v0.2","","""event"",""trial"",""time""
""fullscreenenter"",""1"",""3214""
","
","
","""event"",""trial"",""time""
""fullscreenenter"",""1"",""3214""
","
","","","-1","","","13","1252","178","m","elianto","#3366ff99"," ","-1","0","+10","[]","0","2","","","1252","122","11","1","win","go","1","0"
"pit-trial","186","1178379","0.0-127.0","battery-v0.2","","""event"",""trial"",""time""
""fullscreenenter"",""1"",""3214""
","
","
","""event"",""trial"",""time""
""fullscreenenter"",""1"",""3214""
","
","","","592.5","","","13","1252","178","y","elianto","#3366ff99"," "," ","1","+10","[1442.8000000715256]","1","2","","","1252","123","9","1","win","go","0","0"
"pit-trial","187","1183245","0.0-128.0","battery-v0.2","","""event"",""trial"",""time""
""fullscreenenter"",""1"",""3214""
","
","
","""event"",""trial"",""time""
""fullscreenenter"",""1"",""3214""
","
","","","-1","","","13","1252","178","h","elianto","#f73b6a7A","-1","-1","1","0","[]","0","2","","","1252","124","8","4","lose","no-go","0","0"
"pit-trial","188","1188098","0.0-129.0","battery-v0.2","","""event"",""trial"",""time""
""fullscreenenter"",""1"",""3214""
","
","
","""event"",""trial"",""time""
""fullscreenenter"",""1"",""3214""
","
","","","-1","","","13","1252","178","h","elianto","#f73b6a7A","-1","-1","1","0","[]","0","2","","","1252","125","8","4","lose","no-go","0","0"
"pit-trial","189","1192951","0.0-130.0","battery-v0.2","","""event"",""trial"",""time""
""fullscreenenter"",""1"",""3214""
","
","
","""event"",""trial"",""time""
""fullscreenenter"",""1"",""3214""
","
","","","-1","","","13","1252","178","m","elianto","#3366ff99"," ","-1","0","0","[]","0","2","","","1252","126","11","1","win","go","0","0"
"pit-trial","190","1196586","0.0-131.0","battery-v0.2","","""event"",""trial"",""time""
""fullscreenenter"",""1"",""3214""
","
","
","""event"",""trial"",""time""
""fullscreenenter"",""1"",""3214""
","
","","","780.8999999761581","","","13","1252","178","y","elianto","#3366ff99"," "," ","1","+10","[1631.6999999284744]","1","2","","","1252","127","9","1","win","go","0","0"
"pit-trial","191","1199906","0.0-132.0","battery-v0.2","","""event"",""trial"",""time""
""fullscreenenter"",""1"",""3214""
","
","
","""event"",""trial"",""time""
""fullscreenenter"",""1"",""3214""
","
","","","467.8000000715256","","","13","1252","178","r","elianto","#f73b6a7A"," "," ","1","0","[1318.1000000238419]","1","2","","","1252","128","10","3","lose","go","0","0"
"pit-trial","192","1204761","0.0-133.0","battery-v0.2","","""event"",""trial"",""time""
""fullscreenenter"",""1"",""3214""
","
","
","""event"",""trial"",""time""
""fullscreenenter"",""1"",""3214""
","
","","","-1","","","13","1252","178","h","elianto","#f73b6a7A","-1","-1","1","0","[]","0","2","","","1252","129","8","4","lose","no-go","0","0"
"pit-trial","193","1208213","0.0-134.0","battery-v0.2","","""event"",""trial"",""time""
""fullscreenenter"",""1"",""3214""
","
","
","""event"",""trial"",""time""
""fullscreenenter"",""1"",""3214""
","
","","","597.3999999761581","","","13","1252","178","r","elianto","#f73b6a7A"," "," ","1","0","[1447.8999999761581]","1","2","","","1252","130","10","3","lose","go","0","0"
"pit-trial","194","1213068","0.0-135.0","battery-v0.2","","""event"",""trial"",""time""
""fullscreenenter"",""1"",""3214""
","
","
","""event"",""trial"",""time""
""fullscreenenter"",""1"",""3214""
","
","","","-1","","","13","1252","178","m","elianto","#3366ff99"," ","-1","0","0","[]","0","2","","","1252","131","11","1","win","go","0","0"
"pit-trial","195","1216410","0.0-136.0","battery-v0.2","","""event"",""trial"",""time""
""fullscreenenter"",""1"",""3214""
","
","
","""event"",""trial"",""time""
""fullscreenenter"",""1"",""3214""
","
","","","488.3000000715256","","","13","1252","178","y","elianto","#3366ff99"," "," ","1","+10","[1338.6000000238419]","1","2","","","1252","132","9","1","win","go","0","0"
"pit-trial","196","1221264","0.0-137.0","battery-v0.2","","""event"",""trial"",""time""
""fullscreenenter"",""1"",""3214""
","
","
","""event"",""trial"",""time""
""fullscreenenter"",""1"",""3214""
","
","","","-1","","","13","1252","178","h","elianto","#f73b6a7A","-1","-1","1","-10","[]","0","2","","","1252","133","8","4","lose","no-go","1","0"
"pit-trial","197","1226117","0.0-138.0","battery-v0.2","","""event"",""trial"",""time""
""fullscreenenter"",""1"",""3214""
","
","
","""event"",""trial"",""time""
""fullscreenenter"",""1"",""3214""
","
","","","-1","","","13","1252","178","m","elianto","#3366ff99"," ","-1","0","0","[]","0","2","","","1252","134","11","1","win","go","0","0"
"pit-trial","198","1229623","0.0-139.0","battery-v0.2","","""event"",""trial"",""time""
""fullscreenenter"",""1"",""3214""
","
","
","""event"",""trial"",""time""
""fullscreenenter"",""1"",""3214""
","
","","","650.6999999284744","","","13","1252","178","r","elianto","#f73b6a7A"," "," ","1","0","[1502.0999999046326]","1","2","","","1252","135","10","3","lose","go","0","0"
"pit-trial","199","1232917","0.0-140.0","battery-v0.2","","""event"",""trial"",""time""
""fullscreenenter"",""1"",""3214""
","
","
","""event"",""trial"",""time""
""fullscreenenter"",""1"",""3214""
","
","","","441.7000000476837","","","13","1252","178","y","elianto","#3366ff99"," "," ","1","+10","[1292.6000000238419]","1","2","","","1252","136","9","1","win","go","0","0"
"pit-trial","200","1237772","0.0-141.0","battery-v0.2","","""event"",""trial"",""time""
""fullscreenenter"",""1"",""3214""
","
","
","""event"",""trial"",""time""
""fullscreenenter"",""1"",""3214""
","
","","","-1","","","13","1252","178","h","elianto","#f73b6a7A","-1","-1","1","0","[]","0","2","","","1252","137","8","4","lose","no-go","0","0"
"pit-trial","201","1241120","0.0-142.0","battery-v0.2","","""event"",""trial"",""time""
""fullscreenenter"",""1"",""3214""
","
","
","""event"",""trial"",""time""
""fullscreenenter"",""1"",""3214""
","
","","","492.60000002384186","","","13","1252","178","y","elianto","#3366ff99"," "," ","1","+10","[1344.1000000238419]","1","2","","","1252","138","9","1","win","go","0","0"
"pit-trial","202","1245975","0.0-143.0","battery-v0.2","","""event"",""trial"",""time""
""fullscreenenter"",""1"",""3214""
","
","
","""event"",""trial"",""time""
""fullscreenenter"",""1"",""3214""
","
","","","-1","","","13","1252","178","m","elianto","#3366ff99"," ","-1","0","0","[]","0","2","","","1252","139","11","1","win","go","0","0"
"pit-trial","203","1249387","0.0-144.0","battery-v0.2","","""event"",""trial"",""time""
""fullscreenenter"",""1"",""3214""
","
","
","""event"",""trial"",""time""
""fullscreenenter"",""1"",""3214""
","
","","","559.3000000715256","","","13","1252","178","r","elianto","#f73b6a7A"," "," ","1","0","[1410]","1","2","","","1252","140","10","3","lose","go","0","0"
"pit-instructions","204","1264796","0.0-145.0","battery-v0.2","","""event"",""trial"",""time""
""fullscreenenter"",""1"",""3214""
","
","
","""event"",""trial"",""time""
""fullscreenenter"",""1"",""3214""
","
","","[{""page_index"":0,""viewing_time"":6554.599999904633},{""page_index"":1,""viewing_time"":8852}]","15406.699999928474","","","","","","","","","","","","","","","","","","","","","","","","",""
"pit-trial","205","1269678","0.0-146.0","battery-v0.2","","""event"",""trial"",""time""
""fullscreenenter"",""1"",""3214""
","
","
","""event"",""trial"",""time""
""fullscreenenter"",""1"",""3214""
","
","","","-1","","","13","1252","178","d","elianto","#f73b6a7A","-1","-1","1","0","[2950.5]","1","3","","","1252","141","2","4","lose","no-go","0","0"
"pit-trial","206","1273311","0.0-147.0","battery-v0.2","","""event"",""trial"",""time""
""fullscreenenter"",""1"",""3214""
","
","
","""event"",""trial"",""time""
""fullscreenenter"",""1"",""3214""
","
","","","766.2000000476837","","","13","1252","178","v","elianto","#3366ff99","-1"," ","0","0","[1618.6000000238419]","1","3","","","1252","142","0","2","win","no-go","0","0"
"pit-trial","207","1276700","0.0-148.0","battery-v0.2","","""event"",""trial"",""time""
""fullscreenenter"",""1"",""3214""
","
","
","""event"",""trial"",""time""
""fullscreenenter"",""1"",""3214""
","
","","","530.5","","","13","1252","178","k","elianto","#3366ff99"," "," ","1","+10","[1384.2999999523163]","1","3","","","1252","143","3","1","win","go","0","0"
"pit-trial","208","1280187","0.0-149.0","battery-v0.2","","""event"",""trial"",""time""
""fullscreenenter"",""1"",""3214""
","
","
","""event"",""trial"",""time""
""fullscreenenter"",""1"",""3214""
","
","","","623.2000000476837","","","13","1252","178","j","elianto","#f73b6a7A"," "," ","1","0","[1477.8000000715256]","1","3","","","1252","144","1","3","lose","go","0","0"
"pit-trial","209","1283718","0.0-150.0","battery-v0.2","","""event"",""trial"",""time""
""fullscreenenter"",""1"",""3214""
","
","
","""event"",""trial"",""time""
""fullscreenenter"",""1"",""3214""
","
","","","670.0999999046326","","","13","1252","178","k","elianto","#3366ff99"," "," ","1","+10","[1520.1000000238419]","1","3","","","1252","145","3","1","win","go","0","0"
"pit-trial","210","1286923","0.0-151.0","battery-v0.2","","""event"",""trial"",""time""
""fullscreenenter"",""1"",""3214""
","
","
","""event"",""trial"",""time""
""fullscreenenter"",""1"",""3214""
","
","","","342.89999997615814","","","13","1252","178","j","elianto","#f73b6a7A"," "," ","1","-10","[1193.2999999523163]","1","3","","","1252","146","1","3","lose","go","1","0"
"pit-trial","211","1290414","0.0-152.0","battery-v0.2","","""event"",""trial"",""time""
""fullscreenenter"",""1"",""3214""
","
","
","""event"",""trial"",""time""
""fullscreenenter"",""1"",""3214""
","
","","","633.8000000715256","","","13","1252","178","d","elianto","#f73b6a7A","-1"," ","0","-10","[1483.8999999761581]","1","3","","","1252","147","2","4","lose","no-go","0","0"
"pit-trial","212","1293942","0.0-153.0","battery-v0.2","","""event"",""trial"",""time""
""fullscreenenter"",""1"",""3214""
","
","
","""event"",""trial"",""time""
""fullscreenenter"",""1"",""3214""
","
","","","660.2000000476837","","","13","1252","178","v","elianto","#3366ff99","-1"," ","0","0","[1513.1000000238419]","1","3","","","1252","148","0","2","win","no-go","0","0"
"pit-trial","213","1298797","0.0-154.0","battery-v0.2","","""event"",""trial"",""time""
""fullscreenenter"",""1"",""3214""
","
","
","""event"",""trial"",""time""
""fullscreenenter"",""1"",""3214""
","
","","","-1","","","13","1252","178","d","elianto","#f73b6a7A","-1","-1","1","0","[]","0","3","","","1252","149","2","4","lose","no-go","0","0"
"pit-trial","214","1303650","0.0-155.0","battery-v0.2","","""event"",""trial"",""time""
""fullscreenenter"",""1"",""3214""
","
","
","""event"",""trial"",""time""
""fullscreenenter"",""1"",""3214""
","
","","","-1","","","13","1252","178","v","elianto","#3366ff99","-1","-1","1","+10","[]","0","3","","","1252","150","0","2","win","no-go","0","0"
"pit-trial","215","1307301","0.0-156.0","battery-v0.2","","""event"",""trial"",""time""
""fullscreenenter"",""1"",""3214""
","
","
","""event"",""trial"",""time""
""fullscreenenter"",""1"",""3214""
","
","","","795.6999999284744","","","13","1252","178","j","elianto","#f73b6a7A"," "," ","1","0","[1646.7999999523163]","1","3","","","1252","151","1","3","lose","go","0","0"
"pit-trial","216","1310663","0.0-157.0","battery-v0.2","","""event"",""trial"",""time""
""fullscreenenter"",""1"",""3214""
","
","
","""event"",""trial"",""time""
""fullscreenenter"",""1"",""3214""
","
","","","510","","","13","1252","178","k","elianto","#3366ff99"," "," ","1","+10","[1360.5]","1","3","","","1252","152","3","1","win","go","0","0"
"pit-trial","217","1315516","0.0-158.0","battery-v0.2","","""event"",""trial"",""time""
""fullscreenenter"",""1"",""3214""
","
","
","""event"",""trial"",""time""
""fullscreenenter"",""1"",""3214""
","
","","","-1","","","13","1252","178","d","elianto","#f73b6a7A","-1","-1","1","-10","[]","0","3","","","1252","153","2","4","lose","no-go","1","0"
"pit-trial","218","1318893","0.0-159.0","battery-v0.2","","""event"",""trial"",""time""
""fullscreenenter"",""1"",""3214""
","
","
","""event"",""trial"",""time""
""fullscreenenter"",""1"",""3214""
","
","","","523.3999999761581","","","13","1252","178","k","elianto","#3366ff99"," "," ","1","+10","[1374.8999999761581]","1","3","","","1252","154","3","1","win","go","0","0"
"pit-trial","219","1322445","0.0-160.0","battery-v0.2","","""event"",""trial"",""time""
""fullscreenenter"",""1"",""3214""
","
","
","""event"",""trial"",""time""
""fullscreenenter"",""1"",""3214""
","
","","","698.2000000476837","","","13","1252","178","j","elianto","#f73b6a7A"," "," ","1","0","[1549]","1","3","","","1252","155","1","3","lose","go","0","0"
"pit-trial","220","1327298","0.0-161.0","battery-v0.2","","""event"",""trial"",""time""
""fullscreenenter"",""1"",""3214""
","
","
","""event"",""trial"",""time""
""fullscreenenter"",""1"",""3214""
","
","","","-1","","","13","1252","178","v","elianto","#3366ff99","-1","-1","1","+10","[]","0","3","","","1252","156","0","2","win","no-go","0","0"
"pit-trial","221","1330636","0.0-162.0","battery-v0.2","","""event"",""trial"",""time""
""fullscreenenter"",""1"",""3214""
","
","
","""event"",""trial"",""time""
""fullscreenenter"",""1"",""3214""
","
","","","485.5","","","13","1252","178","k","elianto","#3366ff99"," "," ","1","+10","[1335.7999999523163]","1","3","","","1252","157","3","1","win","go","0","0"
"pit-trial","222","1334246","0.0-163.0","battery-v0.2","","""event"",""trial"",""time""
""fullscreenenter"",""1"",""3214""
","
","
","""event"",""trial"",""time""
""fullscreenenter"",""1"",""3214""
","
","","","754.5","","","13","1252","178","v","elianto","#3366ff99","-1"," ","0","0","[1606.1999999284744]","1","3","","","1252","158","0","2","win","no-go","0","0"
"pit-trial","223","1339100","0.0-164.0","battery-v0.2","","""event"",""trial"",""time""
""fullscreenenter"",""1"",""3214""
","
","
","""event"",""trial"",""time""
""fullscreenenter"",""1"",""3214""
","
","","","-1","","","13","1252","178","d","elianto","#f73b6a7A","-1","-1","1","0","[]","0","3","","","1252","159","2","4","lose","no-go","0","0"
"pit-trial","224","1342479","0.0-165.0","battery-v0.2","","""event"",""trial"",""time""
""fullscreenenter"",""1"",""3214""
","
","
","""event"",""trial"",""time""
""fullscreenenter"",""1"",""3214""
","
","","","524.5","","","13","1252","178","j","elianto","#f73b6a7A"," "," ","1","-10","[1375.7999999523163]","1","3","","","1252","160","1","3","lose","go","1","0"
"pit-trial","225","1347332","0.0-166.0","battery-v0.2","","""event"",""trial"",""time""
""fullscreenenter"",""1"",""3214""
","
","
","""event"",""trial"",""time""
""fullscreenenter"",""1"",""3214""
","
","","","-1","","","13","1252","178","d","elianto","#f73b6a7A","-1","-1","1","-10","[]","0","3","","","1252","161","2","4","lose","no-go","1","0"
"pit-trial","226","1350747","0.0-167.0","battery-v0.2","","""event"",""trial"",""time""
""fullscreenenter"",""1"",""3214""
","
","
","""event"",""trial"",""time""
""fullscreenenter"",""1"",""3214""
","
","","","552.8000000715256","","","13","1252","178","j","elianto","#f73b6a7A"," "," ","1","0","[1403.6000000238419]","1","3","","","1252","162","1","3","lose","go","0","0"
"pit-trial","227","1355602","0.0-168.0","battery-v0.2","","""event"",""trial"",""time""
""fullscreenenter"",""1"",""3214""
","
","
","""event"",""trial"",""time""
""fullscreenenter"",""1"",""3214""
","
","","","-1","","","13","1252","178","v","elianto","#3366ff99","-1","-1","1","+10","[]","0","3","","","1252","163","0","2","win","no-go","0","0"
"pit-trial","228","1359026","0.0-169.0","battery-v0.2","","""event"",""trial"",""time""
""fullscreenenter"",""1"",""3214""
","
","
","""event"",""trial"",""time""
""fullscreenenter"",""1"",""3214""
","
","","","569.1000000238419","","","13","1252","178","k","elianto","#3366ff99"," "," ","1","0","[1419.8999999761581]","1","3","","","1252","164","3","1","win","go","1","0"
"pit-trial","229","1362448","0.0-170.0","battery-v0.2","","""event"",""trial"",""time""
""fullscreenenter"",""1"",""3214""
","
","
","""event"",""trial"",""time""
""fullscreenenter"",""1"",""3214""
","
","","","568.7999999523163","","","13","1252","178","j","elianto","#f73b6a7A"," "," ","1","-10","[1419.2999999523163]","1","3","","","1252","165","1","3","lose","go","1","0"
"pit-trial","230","1367303","0.0-171.0","battery-v0.2","","""event"",""trial"",""time""
""fullscreenenter"",""1"",""3214""
","
","
","""event"",""trial"",""time""
""fullscreenenter"",""1"",""3214""
","
","","","-1","","","13","1252","178","v","elianto","#3366ff99","-1","-1","1","0","[]","0","3","","","1252","166","0","2","win","no-go","1","0"
"pit-trial","231","1370757","0.0-172.0","battery-v0.2","","""event"",""trial"",""time""
""fullscreenenter"",""1"",""3214""
","
","
","""event"",""trial"",""time""
""fullscreenenter"",""1"",""3214""
","
","","","597.3000000715256","","","13","1252","178","k","elianto","#3366ff99"," "," ","1","+10","[1447.6000000238419]","1","3","","","1252","167","3","1","win","go","0","0"
"pit-trial","232","1375610","0.0-173.0","battery-v0.2","","""event"",""trial"",""time""
""fullscreenenter"",""1"",""3214""
","
","
","""event"",""trial"",""time""
""fullscreenenter"",""1"",""3214""
","
","","","-1","","","13","1252","178","d","elianto","#f73b6a7A","-1","-1","1","0","[]","0","3","","","1252","168","2","4","lose","no-go","0","0"
"pit-trial","233","1378909","0.0-174.0","battery-v0.2","","""event"",""trial"",""time""
""fullscreenenter"",""1"",""3214""
","
","
","""event"",""trial"",""time""
""fullscreenenter"",""1"",""3214""
","
","","","445.5","","","13","1252","178","j","elianto","#f73b6a7A"," "," ","1","0","[1295.6999999284744]","1","3","","","1252","169","1","3","lose","go","0","0"
"pit-trial","234","1382081","0.0-175.0","battery-v0.2","","""event"",""trial"",""time""
""fullscreenenter"",""1"",""3214""
","
","
","""event"",""trial"",""time""
""fullscreenenter"",""1"",""3214""
","
","","","319.39999997615814","","","13","1252","178","v","elianto","#3366ff99","-1"," ","0","0","[1170]","1","3","","","1252","170","0","2","win","no-go","0","0"
"pit-trial","235","1386937","0.0-176.0","battery-v0.2","","""event"",""trial"",""time""
""fullscreenenter"",""1"",""3214""
","
","
","""event"",""trial"",""time""
""fullscreenenter"",""1"",""3214""
","
","","","-1","","","13","1252","178","d","elianto","#f73b6a7A","-1","-1","1","-10","[]","0","3","","","1252","171","2","4","lose","no-go","1","0"
"pit-trial","236","1390249","0.0-177.0","battery-v0.2","","""event"",""trial"",""time""
""fullscreenenter"",""1"",""3214""
","
","
","""event"",""trial"",""time""
""fullscreenenter"",""1"",""3214""
","
","","","458.5","","","13","1252","178","k","elianto","#3366ff99"," "," ","1","+10","[1310]","1","3","","","1252","172","3","1","win","go","0","0"
"pit-trial","237","1393749","0.0-178.0","battery-v0.2","","""event"",""trial"",""time""
""fullscreenenter"",""1"",""3214""
","
","
","""event"",""trial"",""time""
""fullscreenenter"",""1"",""3214""
","
","","","645.1000000238419","","","13","1252","178","j","elianto","#f73b6a7A"," "," ","1","-10","[1496.6999999284744]","1","3","","","1252","173","1","3","lose","go","1","0"
"pit-trial","238","1398604","0.0-179.0","battery-v0.2","","""event"",""trial"",""time""
""fullscreenenter"",""1"",""3214""
","
","
","""event"",""trial"",""time""
""fullscreenenter"",""1"",""3214""
","
","","","-1","","","13","1252","178","w","elianto","#f73b6a7A","-1","-1","1","0","[]","0","3","","","1252","174","5","4","lose","no-go","0","0"
"pit-trial","239","1402234","0.0-180.0","battery-v0.2","","""event"",""trial"",""time""
""fullscreenenter"",""1"",""3214""
","
","
","""event"",""trial"",""time""
""fullscreenenter"",""1"",""3214""
","
","","","774.6999999284744","","","13","1252","178","d","elianto","#f73b6a7A","-1"," ","0","-10","[1626.2999999523163]","1","3","","","1252","175","2","4","lose","no-go","0","0"
"pit-trial","240","1405904","0.0-181.0","battery-v0.2","","""event"",""trial"",""time""
""fullscreenenter"",""1"",""3214""
","
","
","""event"",""trial"",""time""
""fullscreenenter"",""1"",""3214""
","
","","","817.3999999761581","","","13","1252","178","e","elianto","#f73b6a7A"," "," ","1","0","[1667.7999999523163]","1","3","","","1252","176","4","3","lose","go","0","0"
"pit-trial","241","1409620","0.0-182.0","battery-v0.2","","""event"",""trial"",""time""
""fullscreenenter"",""1"",""3214""
","
","
","""event"",""trial"",""time""
""fullscreenenter"",""1"",""3214""
","
","","","862.7999999523163","","","13","1252","178","e","elianto","#f73b6a7A"," "," ","1","0","[1713.2999999523163]","1","3","","","1252","177","4","3","lose","go","0","0"
"pit-trial","242","1414475","0.0-183.0","battery-v0.2","","""event"",""trial"",""time""
""fullscreenenter"",""1"",""3214""
","
","
","""event"",""trial"",""time""
""fullscreenenter"",""1"",""3214""
","
","","","-1","","","13","1252","178","w","elianto","#f73b6a7A","-1","-1","1","0","[]","0","3","","","1252","178","5","4","lose","no-go","0","0"
"pit-trial","243","1417966","0.0-184.0","battery-v0.2","","""event"",""trial"",""time""
""fullscreenenter"",""1"",""3214""
","
","
","""event"",""trial"",""time""
""fullscreenenter"",""1"",""3214""
","
","","","636.7999999523163","","","13","1252","178","j","elianto","#f73b6a7A"," "," ","1","-10","[1487.5]","1","3","","","1252","179","1","3","lose","go","1","0"
"pit-trial","244","1422822","0.0-185.0","battery-v0.2","","""event"",""trial"",""time""
""fullscreenenter"",""1"",""3214""
","
","
","""event"",""trial"",""time""
""fullscreenenter"",""1"",""3214""
","
","","","-1","","","13","1252","178","d","elianto","#f73b6a7A","-1","-1","1","0","[]","0","3","","","1252","180","2","4","lose","no-go","0","0"
"pit-trial","245","1426180","0.0-186.0","battery-v0.2","","""event"",""trial"",""time""
""fullscreenenter"",""1"",""3214""
","
","
","""event"",""trial"",""time""
""fullscreenenter"",""1"",""3214""
","
","","","503.59999990463257","","","13","1252","178","e","elianto","#f73b6a7A"," "," ","1","-10","[1355.0999999046326]","1","3","","","1252","181","4","3","lose","go","1","0"
"pit-trial","246","1431034","0.0-187.0","battery-v0.2","","""event"",""trial"",""time""
""fullscreenenter"",""1"",""3214""
","
","
","""event"",""trial"",""time""
""fullscreenenter"",""1"",""3214""
","
","","","-1","","","13","1252","178","w","elianto","#f73b6a7A","-1","-1","1","0","[]","0","3","","","1252","182","5","4","lose","no-go","0","0"
"pit-trial","247","1435888","0.0-188.0","battery-v0.2","","""event"",""trial"",""time""
""fullscreenenter"",""1"",""3214""
","
","
","""event"",""trial"",""time""
""fullscreenenter"",""1"",""3214""
","
","","","-1","","","13","1252","178","d","elianto","#f73b6a7A","-1","-1","1","-10","[]","0","3","","","1252","183","2","4","lose","no-go","1","0"
"pit-trial","248","1439802","0.0-189.0","battery-v0.2","","""event"",""trial"",""time""
""fullscreenenter"",""1"",""3214""
","
","
","""event"",""trial"",""time""
""fullscreenenter"",""1"",""3214""
","
","","","1060.3999999761581","","","13","1252","178","s","elianto","#3366ff99","-1"," ","0","0","[1911.5]","1","3","","","1252","184","6","2","win","no-go","0","0"
"pit-trial","249","1444655","0.0-190.0","battery-v0.2","","""event"",""trial"",""time""
""fullscreenenter"",""1"",""3214""
","
","
","""event"",""trial"",""time""
""fullscreenenter"",""1"",""3214""
","
","","","-1","","","13","1252","178","d","elianto","#f73b6a7A","-1","-1","1","0","[]","0","3","","","1252","185","2","4","lose","no-go","0","0"
"pit-trial","250","1449509","0.0-191.0","battery-v0.2","","""event"",""trial"",""time""
""fullscreenenter"",""1"",""3214""
","
","
","""event"",""trial"",""time""
""fullscreenenter"",""1"",""3214""
","
","","","-1","","","13","1252","178","w","elianto","#f73b6a7A","-1","-1","1","0","[]","0","3","","","1252","186","5","4","lose","no-go","0","0"
"pit-trial","251","1453113","0.0-192.0","battery-v0.2","","""event"",""trial"",""time""
""fullscreenenter"",""1"",""3214""
","
","
","""event"",""trial"",""time""
""fullscreenenter"",""1"",""3214""
","
","","","748.8999999761581","","","13","1252","178","e","elianto","#f73b6a7A"," "," ","1","0","[1599.6000000238419]","1","3","","","1252","187","4","3","lose","go","0","0"
"pit-trial","252","1457965","0.0-193.0","battery-v0.2","","""event"",""trial"",""time""
""fullscreenenter"",""1"",""3214""
","
","
","""event"",""trial"",""time""
""fullscreenenter"",""1"",""3214""
","
","","","-1","","","13","1252","178","s","elianto","#3366ff99","-1","-1","1","+10","[]","0","3","","","1252","188","6","2","win","no-go","0","0"
"pit-trial","253","1462820","0.0-194.0","battery-v0.2","","""event"",""trial"",""time""
""fullscreenenter"",""1"",""3214""
","
","
","""event"",""trial"",""time""
""fullscreenenter"",""1"",""3214""
","
","","","-1","","","13","1252","178","p","elianto","#3366ff99"," ","-1","0","0","[]","0","3","","","1252","189","7","1","win","go","0","0"
"pit-trial","254","1467686","0.0-195.0","battery-v0.2","","""event"",""trial"",""time""
""fullscreenenter"",""1"",""3214""
","
","
","""event"",""trial"",""time""
""fullscreenenter"",""1"",""3214""
","
","","","-1","","","13","1252","178","w","elianto","#f73b6a7A","-1","-1","1","-10","[]","0","3","","","1252","190","5","4","lose","no-go","1","0"
"pit-trial","255","1472541","0.0-196.0","battery-v0.2","","""event"",""trial"",""time""
""fullscreenenter"",""1"",""3214""
","
","
","""event"",""trial"",""time""
""fullscreenenter"",""1"",""3214""
","
","","","-1","","","13","1252","178","s","elianto","#3366ff99","-1","-1","1","0","[]","0","3","","","1252","191","6","2","win","no-go","1","0"
"pit-trial","256","1475934","0.0-197.0","battery-v0.2","","""event"",""trial"",""time""
""fullscreenenter"",""1"",""3214""
","
","
","""event"",""trial"",""time""
""fullscreenenter"",""1"",""3214""
","
","","","538.3000000715256","","","13","1252","178","e","elianto","#f73b6a7A"," "," ","1","0","[1389.7000000476837]","1","3","","","1252","192","4","3","lose","go","0","0"
"pit-trial","257","1479252","0.0-198.0","battery-v0.2","","""event"",""trial"",""time""
""fullscreenenter"",""1"",""3214""
","
","
","""event"",""trial"",""time""
""fullscreenenter"",""1"",""3214""
","
","","","465","","","13","1252","178","p","elianto","#3366ff99"," "," ","1","+10","[1315.2999999523163]","1","3","","","1252","193","7","1","win","go","0","0"
"pit-trial","258","1482679","0.0-199.0","battery-v0.2","","""event"",""trial"",""time""
""fullscreenenter"",""1"",""3214""
","
","
","""event"",""trial"",""time""
""fullscreenenter"",""1"",""3214""
","
","","","574.1000000238419","","","13","1252","178","s","elianto","#3366ff99","-1"," ","0","0","[1424.8999999761581]","1","3","","","1252","194","6","2","win","no-go","0","0"
"pit-trial","259","1486022","0.0-200.0","battery-v0.2","","""event"",""trial"",""time""
""fullscreenenter"",""1"",""3214""
","
","
","""event"",""trial"",""time""
""fullscreenenter"",""1"",""3214""
","
","","","489.2999999523163","","","13","1252","178","e","elianto","#f73b6a7A"," "," ","1","0","[1340]","1","3","","","1252","195","4","3","lose","go","0","0"
"pit-trial","260","1490876","0.0-201.0","battery-v0.2","","""event"",""trial"",""time""
""fullscreenenter"",""1"",""3214""
","
","
","""event"",""trial"",""time""
""fullscreenenter"",""1"",""3214""
","
","","","-1","","","13","1252","178","w","elianto","#f73b6a7A","-1","-1","1","0","[]","0","3","","","1252","196","5","4","lose","no-go","0","0"
"pit-trial","261","1494419","0.0-202.0","battery-v0.2","","""event"",""trial"",""time""
""fullscreenenter"",""1"",""3214""
","
","
","""event"",""trial"",""time""
""fullscreenenter"",""1"",""3214""
","
","","","688.8999999761581","","","13","1252","178","e","elianto","#f73b6a7A"," "," ","1","0","[1540.5]","1","3","","","1252","197","4","3","lose","go","0","0"
"pit-trial","262","1499273","0.0-203.0","battery-v0.2","","""event"",""trial"",""time""
""fullscreenenter"",""1"",""3214""
","
","
","""event"",""trial"",""time""
""fullscreenenter"",""1"",""3214""
","
","","","-1","","","13","1252","178","s","elianto","#3366ff99","-1","-1","1","+10","[]","0","3","","","1252","198","6","2","win","no-go","0","0"
"pit-trial","263","1503632","0.0-204.0","battery-v0.2","","""event"",""trial"",""time""
""fullscreenenter"",""1"",""3214""
","
","
","""event"",""trial"",""time""
""fullscreenenter"",""1"",""3214""
","
","","","1506","","","13","1252","178","p","elianto","#3366ff99"," "," ","1","+10","[2355.8000000715256]","1","3","","","1252","199","7","1","win","go","0","0"
"pit-trial","264","1508486","0.0-205.0","battery-v0.2","","""event"",""trial"",""time""
""fullscreenenter"",""1"",""3214""
","
","
