"trial_type","trial_index","time_elapsed","internal_node_id","task_version","subject_id","interactions","blur_events","focus_events","fullscreenenter_events","fullscreenexit_events","success","view_history","rt","responses","num_errors","age","subject","participantId","rune","rune_set","hex","correct","choice","accuracy","outcome","keys","total_keys","block","practice","value","sub","trial","stimulus","robot","valence","action","sham","browser_interactions"
"pavlovia","0","16","0.0-0.0","battery-v0.2","","""event"",""trial"",""time""
""fullscreenenter"",""1"",""2140""
","
","
","""event"",""trial"",""time""
""fullscreenenter"",""1"",""2140""
","
","","","","","","","","","","","","","","","","","","","","","","","","","","","",""
"fullscreen","1","3095","0.0-1.0","battery-v0.2","","""event"",""trial"",""time""
""fullscreenenter"",""1"",""2140""
","
","
","""event"",""trial"",""time""
""fullscreenenter"",""1"",""2140""
","
","true","","","","","","","","","","","","","","","","","","","","","","","","","","",""
"pit-instructions","2","10458","0.0-2.0-0.0","battery-v0.2","","""event"",""trial"",""time""
""fullscreenenter"",""1"",""2140""
","
","
","""event"",""trial"",""time""
""fullscreenenter"",""1"",""2140""
","
","","[{""page_index"":0,""viewing_time"":7357.100000023842}]","7358.300000071526","","","","","","","","","","","","","","","","","","","","","","","","",""
"pit-comprehension","3","14660","0.0-2.0-1.0-0.0","battery-v0.2","","""event"",""trial"",""time""
""fullscreenenter"",""1"",""2140""
","
","
","""event"",""trial"",""time""
""fullscreenenter"",""1"",""2140""
","
","","","4198","[""shark""]","0","20","1212","261","","","","","","","","","","","","","","","","","","","",""
"pit-instructions","4","17130","0.0-2.0-1.0-1.0","battery-v0.2","","""event"",""trial"",""time""
""fullscreenenter"",""1"",""2140""
","
","
","""event"",""trial"",""time""
""fullscreenenter"",""1"",""2140""
","
","","[{""page_index"":0,""viewing_time"":2463.600000023842}]","2464.100000023842","","","","","","","","","","","","","","","","","","","","","","","","",""
"pit-comprehension","5","19440","0.0-2.0-2.0-0.0","battery-v0.2","","""event"",""trial"",""time""
""fullscreenenter"",""1"",""2140""
","
","
","""event"",""trial"",""time""
""fullscreenenter"",""1"",""2140""
","
","","","2305","[""tiger""]","0","20","1212","261","","","","","","","","","","","","","","","","","","","",""
"pit-instructions","6","20150","0.0-2.0-2.0-1.0","battery-v0.2","","""event"",""trial"",""time""
""fullscreenenter"",""1"",""2140""
","
","
","""event"",""trial"",""time""
""fullscreenenter"",""1"",""2140""
","
","","[{""page_index"":0,""viewing_time"":706.2999999523163}]","706.6999999284744","","","","","","","","","","","","","","","","","","","","","","","","",""
"pit-instructions","7","116065","0.0-2.0-3.0","battery-v0.2","","""event"",""trial"",""time""
""fullscreenenter"",""1"",""2140""
","
","
","""event"",""trial"",""time""
""fullscreenenter"",""1"",""2140""
","
","","[{""page_index"":0,""viewing_time"":7850.5},{""page_index"":1,""viewing_time"":5899.199999928474},{""page_index"":2,""viewing_time"":7619.700000047684},{""page_index"":3,""viewing_time"":5307.299999952316},{""page_index"":4,""viewing_time"":5446.300000071526},{""page_index"":5,""viewing_time"":5340.699999928474},{""page_index"":6,""viewing_time"":6955.300000071526},{""page_index"":7,""viewing_time"":6676.399999976158},{""page_index"":8,""viewing_time"":6558.399999976158},{""page_index"":9,""viewing_time"":10009.300000071526},{""page_index"":10,""viewing_time"":7525.799999952316},{""page_index"":11,""viewing_time"":8050.399999976158},{""page_index"":12,""viewing_time"":6715.700000047684},{""page_index"":13,""viewing_time"":5956.100000023842}]","95911.69999992847","","","","","","","","","","","","","","","","","","","","","","","","",""
"pit-trial","8","119966","0.0-2.0-4.0-0.0","battery-v0.2","","""event"",""trial"",""time""
""fullscreenenter"",""1"",""2140""
","
","
","""event"",""trial"",""time""
""fullscreenenter"",""1"",""2140""
","
","","","1042.1000000238419","","","20","1212","261","&#9784;","elianto","#FFFFF080"," "," ","1","&#10004","[1893.5]","1","0","0","","","","","","","","",""
"pit-trial","9","123702","0.0-2.0-4.1-0.1","battery-v0.2","","""event"",""trial"",""time""
""fullscreenenter"",""1"",""2140""
","
","
","""event"",""trial"",""time""
""fullscreenenter"",""1"",""2140""
","
","","","877.1999999284744","","","20","1212","261","&#9784;","elianto","#FFFFF080"," "," ","1","&#10004","[1727.6000000238419]","1","0","0","","","","","","","","",""
"pit-trial","10","127358","0.0-2.0-4.2-0.2","battery-v0.2","","""event"",""trial"",""time""
""fullscreenenter"",""1"",""2140""
","
","
","""event"",""trial"",""time""
""fullscreenenter"",""1"",""2140""
","
","","","798.6999999284744","","","20","1212","261","&#9784;","elianto","#FFFFF080"," "," ","1","&#10004","[1648.8999999761581]","1","0","0","","","","","","","","",""
"pit-trial","11","131006","0.0-2.0-4.3-0.3","battery-v0.2","","""event"",""trial"",""time""
""fullscreenenter"",""1"",""2140""
","
","
","""event"",""trial"",""time""
""fullscreenenter"",""1"",""2140""
","
","","","790.1000000238419","","","20","1212","261","&#9784;","elianto","#FFFFF080"," "," ","1","&#10004","[1641.1000000238419]","1","0","0","","","","","","","","",""
"pit-trial","12","134473","0.0-2.0-4.4-0.4","battery-v0.2","","""event"",""trial"",""time""
""fullscreenenter"",""1"",""2140""
","
","
","""event"",""trial"",""time""
""fullscreenenter"",""1"",""2140""
","
","","","610.5","","","20","1212","261","&#9784;","elianto","#FFFFF080"," "," ","1","&#10004","[1460.7000000476837]","1","0","0","","","","","","","","",""
"pit-instructions","13","156809","0.0-2.0-5.0","battery-v0.2","","""event"",""trial"",""time""
""fullscreenenter"",""1"",""2140""
","
","
","""event"",""trial"",""time""
""fullscreenenter"",""1"",""2140""
","
","","[{""page_index"":0,""viewing_time"":4899.5},{""page_index"":1,""viewing_time"":5816.299999952316},{""page_index"":2,""viewing_time"":5702.399999976158},{""page_index"":3,""viewing_time"":5913.100000023842}]","22331.699999928474","","","","","","","","","","","","","","","","","","","","","","","","",""
"pit-trial","14","161671","0.0-2.0-6.0-0.0","battery-v0.2","","""event"",""trial"",""time""
""fullscreenenter"",""1"",""2140""
","
","
","""event"",""trial"",""time""
""fullscreenenter"",""1"",""2140""
","
","","","-1","","","20","1212","261","&#9854;","elianto","#FFFFF080","-1","-1","1","&#10004","[]","0","0","1","","","","","","","","",""
"pit-trial","15","166532","0.0-2.0-6.1-0.1","battery-v0.2","","""event"",""trial"",""time""
""fullscreenenter"",""1"",""2140""
","
","
","""event"",""trial"",""time""
""fullscreenenter"",""1"",""2140""
","
","","","-1","","","20","1212","261","&#9854;","elianto","#FFFFF080","-1","-1","1","&#10004","[]","0","0","1","","","","","","","","",""
"pit-trial","16","171393","0.0-2.0-6.2-0.2","battery-v0.2","","""event"",""trial"",""time""
""fullscreenenter"",""1"",""2140""
","
","
","""event"",""trial"",""time""
""fullscreenenter"",""1"",""2140""
","
","","","-1","","","20","1212","261","&#9854;","elianto","#FFFFF080","-1","-1","1","&#10004","[]","0","0","1","","","","","","","","",""
"pit-trial","17","176255","0.0-2.0-6.3-0.3","battery-v0.2","","""event"",""trial"",""time""
""fullscreenenter"",""1"",""2140""
","
","
","""event"",""trial"",""time""
""fullscreenenter"",""1"",""2140""
","
","","","-1","","","20","1212","261","&#9854;","elianto","#FFFFF080","-1","-1","1","&#10004","[]","0","0","1","","","","","","","","",""
"pit-trial","18","181116","0.0-2.0-6.4-0.4","battery-v0.2","","""event"",""trial"",""time""
""fullscreenenter"",""1"",""2140""
","
","
","""event"",""trial"",""time""
""fullscreenenter"",""1"",""2140""
","
","","","-1","","","20","1212","261","&#9854;","elianto","#FFFFF080","-1","-1","1","&#10004","[]","0","0","1","","","","","","","","",""
"pit-instructions","19","328549","0.0-2.0-7.0","battery-v0.2","","""event"",""trial"",""time""
""fullscreenenter"",""1"",""2140""
","
","
","""event"",""trial"",""time""
""fullscreenenter"",""1"",""2140""
","
","","[{""page_index"":0,""viewing_time"":5962.5},{""page_index"":1,""viewing_time"":7942.5},{""page_index"":2,""viewing_time"":8473.5},{""page_index"":3,""viewing_time"":10038.699999928474},{""page_index"":4,""viewing_time"":6503.300000071526},{""page_index"":5,""viewing_time"":6975.399999976158},{""page_index"":6,""viewing_time"":20883},{""page_index"":7,""viewing_time"":8591},{""page_index"":8,""viewing_time"":7386.600000023842},{""page_index"":9,""viewing_time"":6491.199999928474},{""page_index"":10,""viewing_time"":7166.800000071526},{""page_index"":11,""viewing_time"":4874.799999952316},{""page_index"":12,""viewing_time"":7493.600000023842},{""page_index"":13,""viewing_time"":8660.600000023842},{""page_index"":14,""viewing_time"":7059.299999952316},{""page_index"":15,""viewing_time"":6910.5},{""page_index"":16,""viewing_time"":8661.899999976158},{""page_index"":17,""viewing_time"":7351.800000071526}]","147427.5","","","","","","","","","","","","","","","","","","","","","","","","",""
"pit-trial","20","332141","0.0-2.0-8.0-0.0","battery-v0.2","","""event"",""trial"",""time""
""fullscreenenter"",""1"",""2140""
","
","
","""event"",""trial"",""time""
""fullscreenenter"",""1"",""2140""
","
","","","736.3000000715256","","","20","1212","261","&#9776;","elianto","#3366ff99"," "," ","1","+10","[1586.6999999284744]","1","0","1","","","","","","","","",""
"pit-trial","21","335606","0.0-2.0-8.0-1.0","battery-v0.2","","""event"",""trial"",""time""
""fullscreenenter"",""1"",""2140""
","
","
","""event"",""trial"",""time""
""fullscreenenter"",""1"",""2140""
","
","","","606.7999999523163","","","20","1212","261","&#9776;","elianto","#3366ff99"," "," ","1","+10","[1457.5]","1","0","1","","","","","","","","",""
"pit-trial","22","338923","0.0-2.0-8.0-2.0","battery-v0.2","","""event"",""trial"",""time""
""fullscreenenter"",""1"",""2140""
","
","
","""event"",""trial"",""time""
""fullscreenenter"",""1"",""2140""
","
","","","460.3000000715256","","","20","1212","261","&#9776;","elianto","#3366ff99"," "," ","1","+10","[1310.7000000476837]","1","0","1","","","","","","","","",""
"pit-trial","23","342219","0.0-2.0-8.0-3.0","battery-v0.2","","""event"",""trial"",""time""
""fullscreenenter"",""1"",""2140""
","
","
","""event"",""trial"",""time""
""fullscreenenter"",""1"",""2140""
","
","","","439.2999999523163","","","20","1212","261","&#9776;","elianto","#3366ff99"," "," ","1","0","[1290.3999999761581]","1","0","1","","","","","","","","",""
"pit-trial","24","345691","0.0-2.0-8.0-4.0","battery-v0.2","","""event"",""trial"",""time""
""fullscreenenter"",""1"",""2140""
","
","
","""event"",""trial"",""time""
""fullscreenenter"",""1"",""2140""
","
","","","615","","","20","1212","261","&#9776;","elianto","#3366ff99"," "," ","1","+10","[1465.8999999761581]","1","0","1","","","","","","","","",""
"call-function","25","345693","0.0-2.0-9.0","battery-v0.2","","""event"",""trial"",""time""
""fullscreenenter"",""1"",""2140""
","
","
","""event"",""trial"",""time""
""fullscreenenter"",""1"",""2140""
","
","","","","","","","","","","","","","","","","","","","","","","","","","","","",""
"pit-instructions","26","387933","0.0-2.0-10.0","battery-v0.2","","""event"",""trial"",""time""
""fullscreenenter"",""1"",""2140""
","
","
","""event"",""trial"",""time""
""fullscreenenter"",""1"",""2140""
","
","","[{""page_index"":0,""viewing_time"":5842.300000071526},{""page_index"":1,""viewing_time"":8242.699999928474},{""page_index"":2,""viewing_time"":10089.899999976158},{""page_index"":3,""viewing_time"":9091.800000071526},{""page_index"":4,""viewing_time"":8971.199999928474}]","42238.89999997616","","","","","","","","","","","","","","","","","","","","","","","","",""
"pit-trial","27","392795","0.0-2.0-11.0-0.0","battery-v0.2","","""event"",""trial"",""time""
""fullscreenenter"",""1"",""2140""
","
","
","""event"",""trial"",""time""
""fullscreenenter"",""1"",""2140""
","
","","","-1","","","20","1212","261","&#9761;","elianto","#3366ff99","-1","-1","1","+10","[]","0","0","2","","","","","","","","",""
"pit-trial","28","397657","0.0-2.0-11.0-1.0","battery-v0.2","","""event"",""trial"",""time""
""fullscreenenter"",""1"",""2140""
","
","
","""event"",""trial"",""time""
""fullscreenenter"",""1"",""2140""
","
","","","-1","","","20","1212","261","&#9761;","elianto","#3366ff99","-1","-1","1","+10","[]","0","0","2","","","","","","","","",""
"pit-trial","29","402518","0.0-2.0-11.0-2.0","battery-v0.2","","""event"",""trial"",""time""
""fullscreenenter"",""1"",""2140""
","
","
","""event"",""trial"",""time""
""fullscreenenter"",""1"",""2140""
","
","","","-1","","","20","1212","261","&#9761;","elianto","#3366ff99","-1","-1","1","+10","[]","0","0","2","","","","","","","","",""
"pit-trial","30","406046","0.0-2.0-11.0-3.0","battery-v0.2","","""event"",""trial"",""time""
""fullscreenenter"",""1"",""2140""
","
","
","""event"",""trial"",""time""
""fullscreenenter"",""1"",""2140""
","
","","","668.1999999284744","","","20","1212","261","&#9761;","elianto","#3366ff99","-1"," ","0","+10","[1520.6999999284744]","1","0","2","","","","","","","","",""
"pit-trial","31","410905","0.0-2.0-11.0-4.0","battery-v0.2","","""event"",""trial"",""time""
""fullscreenenter"",""1"",""2140""
","
","
","""event"",""trial"",""time""
""fullscreenenter"",""1"",""2140""
","
","","","-1","","","20","1212","261","&#9761;","elianto","#3366ff99","-1","-1","1","+10","[]","0","0","2","","","","","","","","",""
"pit-trial","32","415766","0.0-2.0-11.1-0.1","battery-v0.2","","""event"",""trial"",""time""
""fullscreenenter"",""1"",""2140""
","
","
","""event"",""trial"",""time""
""fullscreenenter"",""1"",""2140""
","
","","","-1","","","20","1212","261","&#9761;","elianto","#3366ff99","-1","-1","1","+10","[]","0","0","2","","","","","","","","",""
"pit-trial","33","419132","0.0-2.0-11.1-1.1","battery-v0.2","","""event"",""trial"",""time""
""fullscreenenter"",""1"",""2140""
","
","
","""event"",""trial"",""time""
""fullscreenenter"",""1"",""2140""
","
","","","507.10000002384186","","","20","1212","261","&#9761;","elianto","#3366ff99","-1"," ","0","0","[1358.0999999046326]","1","0","2","","","","","","","","",""
"pit-trial","34","423993","0.0-2.0-11.1-2.1","battery-v0.2","","""event"",""trial"",""time""
""fullscreenenter"",""1"",""2140""
","
","
","""event"",""trial"",""time""
""fullscreenenter"",""1"",""2140""
","
","","","-1","","","20","1212","261","&#9761;","elianto","#3366ff99","-1","-1","1","+10","[]","0","0","2","","","","","","","","",""
"pit-trial","35","428854","0.0-2.0-11.1-3.1","battery-v0.2","","""event"",""trial"",""time""
""fullscreenenter"",""1"",""2140""
","
","
","""event"",""trial"",""time""
""fullscreenenter"",""1"",""2140""
","
","","","-1","","","20","1212","261","&#9761;","elianto","#3366ff99","-1","-1","1","0","[]","0","0","2","","","","","","","","",""
"pit-trial","36","433710","0.0-2.0-11.1-4.1","battery-v0.2","","""event"",""trial"",""time""
""fullscreenenter"",""1"",""2140""
","
","
","""event"",""trial"",""time""
""fullscreenenter"",""1"",""2140""
","
","","","-1","","","20","1212","261","&#9761;","elianto","#3366ff99","-1","-1","1","+10","[]","0","0","2","","","","","","","","",""
"pit-trial","37","438567","0.0-2.0-11.2-0.2","battery-v0.2","","""event"",""trial"",""time""
""fullscreenenter"",""1"",""2140""
","
","
","""event"",""trial"",""time""
""fullscreenenter"",""1"",""2140""
","
","","","-1","","","20","1212","261","&#9761;","elianto","#3366ff99","-1","-1","1","+10","[]","0","0","2","","","","","","","","",""
"pit-trial","38","441842","0.0-2.0-11.2-1.2","battery-v0.2","","""event"",""trial"",""time""
""fullscreenenter"",""1"",""2140""
","
","
","""event"",""trial"",""time""
""fullscreenenter"",""1"",""2140""
","
","","","419","","","20","1212","261","&#9761;","elianto","#3366ff99","-1"," ","0","0","[1270.1000000238419]","1","0","2","","","","","","","","",""
"pit-trial","39","446701","0.0-2.0-11.2-2.2","battery-v0.2","","""event"",""trial"",""time""
""fullscreenenter"",""1"",""2140""
","
","
","""event"",""trial"",""time""
""fullscreenenter"",""1"",""2140""
","
","","","-1","","","20","1212","261","&#9761;","elianto","#3366ff99","-1","-1","1","+10","[]","0","0","2","","","","","","","","",""
"pit-trial","40","451560","0.0-2.0-11.2-3.2","battery-v0.2","","""event"",""trial"",""time""
""fullscreenenter"",""1"",""2140""
","
","
","""event"",""trial"",""time""
""fullscreenenter"",""1"",""2140""
","
","","","-1","","","20","1212","261","&#9761;","elianto","#3366ff99","-1","-1","1","0","[]","0","0","2","","","","","","","","",""
"pit-trial","41","456417","0.0-2.0-11.2-4.2","battery-v0.2","","""event"",""trial"",""time""
""fullscreenenter"",""1"",""2140""
","
","
","""event"",""trial"",""time""
""fullscreenenter"",""1"",""2140""
","
","","","-1","","","20","1212","261","&#9761;","elianto","#3366ff99","-1","-1","1","+10","[]","0","0","2","","","","","","","","",""
"pit-trial","42","461274","0.0-2.0-11.3-0.3","battery-v0.2","","""event"",""trial"",""time""
""fullscreenenter"",""1"",""2140""
","
","
","""event"",""trial"",""time""
""fullscreenenter"",""1"",""2140""
","
","","","-1","","","20","1212","261","&#9761;","elianto","#3366ff99","-1","-1","1","+10","[]","0","0","2","","","","","","","","",""
"pit-trial","43","466132","0.0-2.0-11.3-1.3","battery-v0.2","","""event"",""trial"",""time""
""fullscreenenter"",""1"",""2140""
","
","
","""event"",""trial"",""time""
""fullscreenenter"",""1"",""2140""
","
","","","-1","","","20","1212","261","&#9761;","elianto","#3366ff99","-1","-1","1","+10","[]","0","0","2","","","","","","","","",""
"pit-trial","44","470993","0.0-2.0-11.3-2.3","battery-v0.2","","""event"",""trial"",""time""
""fullscreenenter"",""1"",""2140""
","
","
","""event"",""trial"",""time""
""fullscreenenter"",""1"",""2140""
","
","","","-1","","","20","1212","261","&#9761;","elianto","#3366ff99","-1","-1","1","+10","[]","0","0","2","","","","","","","","",""
"pit-trial","45","475854","0.0-2.0-11.3-3.3","battery-v0.2","","""event"",""trial"",""time""
""fullscreenenter"",""1"",""2140""
","
","
","""event"",""trial"",""time""
""fullscreenenter"",""1"",""2140""
","
","","","-1","","","20","1212","261","&#9761;","elianto","#3366ff99","-1","-1","1","0","[]","0","0","2","","","","","","","","",""
"pit-trial","46","480715","0.0-2.0-11.3-4.3","battery-v0.2","","""event"",""trial"",""time""
""fullscreenenter"",""1"",""2140""
","
","
","""event"",""trial"",""time""
""fullscreenenter"",""1"",""2140""
","
","","","-1","","","20","1212","261","&#9761;","elianto","#3366ff99","-1","-1","1","+10","[]","0","0","2","","","","","","","","",""
"call-function","47","480717","0.0-2.0-12.0","battery-v0.2","","""event"",""trial"",""time""
""fullscreenenter"",""1"",""2140""
","
","
","""event"",""trial"",""time""
""fullscreenenter"",""1"",""2140""
","
","","","","","","","","","","","","","","","","","","","","","","","","","","","",""
"pit-instructions","48","518958","0.0-2.0-13.0","battery-v0.2","","""event"",""trial"",""time""
""fullscreenenter"",""1"",""2140""
","
","
","""event"",""trial"",""time""
""fullscreenenter"",""1"",""2140""
","
","","[{""page_index"":0,""viewing_time"":5732.899999976158},{""page_index"":1,""viewing_time"":8043.5},{""page_index"":2,""viewing_time"":8275.700000047684},{""page_index"":3,""viewing_time"":10610.699999928474},{""page_index"":4,""viewing_time"":5576.899999976158}]","38240.60000002384","","","","","","","","","","","","","","","","","","","","","","","","",""
"pit-trial","49","522368","0.0-2.0-14.0-0.0","battery-v0.2","","""event"",""trial"",""time""
""fullscreenenter"",""1"",""2140""
","
","
","""event"",""trial"",""time""
""fullscreenenter"",""1"",""2140""
","
","","","551.7999999523163","","","20","1212","261","&#9826;","elianto","#f73b6a7A","-1"," ","0","-10","[1403.1000000238419]","1","0","3","","","","","","","","",""
"pit-trial","50","527229","0.0-2.0-14.0-1.0","battery-v0.2","","""event"",""trial"",""time""
""fullscreenenter"",""1"",""2140""
","
","
","""event"",""trial"",""time""
""fullscreenenter"",""1"",""2140""
","
","","","-1","","","20","1212","261","&#9826;","elianto","#f73b6a7A","-1","-1","1","0","[]","0","0","3","","","","","","","","",""
"pit-trial","51","532090","0.0-2.0-14.0-2.0","battery-v0.2","","""event"",""trial"",""time""
""fullscreenenter"",""1"",""2140""
","
","
","""event"",""trial"",""time""
""fullscreenenter"",""1"",""2140""
","
","","","-1","","","20","1212","261","&#9826;","elianto","#f73b6a7A","-1","-1","1","0","[]","0","0","3","","","","","","","","",""
"pit-trial","52","536952","0.0-2.0-14.0-3.0","battery-v0.2","","""event"",""trial"",""time""
""fullscreenenter"",""1"",""2140""
","
","
","""event"",""trial"",""time""
""fullscreenenter"",""1"",""2140""
","
","","","-1","","","20","1212","261","&#9826;","elianto","#f73b6a7A","-1","-1","1","-10","[]","0","0","3","","","","","","","","",""
"pit-trial","53","541813","0.0-2.0-14.0-4.0","battery-v0.2","","""event"",""trial"",""time""
""fullscreenenter"",""1"",""2140""
","
","
","""event"",""trial"",""time""
""fullscreenenter"",""1"",""2140""
","
","","","-1","","","20","1212","261","&#9826;","elianto","#f73b6a7A","-1","-1","1","0","[]","0","0","3","","","","","","","","",""
"call-function","54","541815","0.0-2.0-15.0","battery-v0.2","","""event"",""trial"",""time""
""fullscreenenter"",""1"",""2140""
","
","
","""event"",""trial"",""time""
""fullscreenenter"",""1"",""2140""
","
","","","","","","","","","","","","","","","","","","","","","","","","","","","",""
"pit-instructions","55","571130","0.0-2.0-16.0","battery-v0.2","","""event"",""trial"",""time""
""fullscreenenter"",""1"",""2140""
","
","
","""event"",""trial"",""time""
""fullscreenenter"",""1"",""2140""
","
","","[{""page_index"":0,""viewing_time"":7103},{""page_index"":1,""viewing_time"":9470.100000023842},{""page_index"":2,""viewing_time"":6428.200000047684},{""page_index"":3,""viewing_time"":6312}]","29313.899999976158","","","","","","","","","","","","","","","","","","","","","","","","",""
"pit-trial","56","574421","0.0-2.0-17.0-0.0","battery-v0.2","","""event"",""trial"",""time""
""fullscreenenter"",""1"",""2140""
","
","
","""event"",""trial"",""time""
""fullscreenenter"",""1"",""2140""
","
","","","433.40000009536743","","","20","1212","261","&#9789;","elianto","#f73b6a7A"," "," ","1","0","[1284.2000000476837]","1","0","4","","","","","","","","",""
"pit-trial","57","577690","0.0-2.0-17.0-1.0","battery-v0.2","","""event"",""trial"",""time""
""fullscreenenter"",""1"",""2140""
","
","
","""event"",""trial"",""time""
""fullscreenenter"",""1"",""2140""
","
","","","413.60000002384186","","","20","1212","261","&#9789;","elianto","#f73b6a7A"," "," ","1","0","[1264.5]","1","0","4","","","","","","","","",""
"pit-trial","58","580866","0.0-2.0-17.0-2.0","battery-v0.2","","""event"",""trial"",""time""
""fullscreenenter"",""1"",""2140""
","
","
","""event"",""trial"",""time""
""fullscreenenter"",""1"",""2140""
","
","","","318.5","","","20","1212","261","&#9789;","elianto","#f73b6a7A"," "," ","1","0","[1169.8999999761581]","1","0","4","","","","","","","","",""
"pit-trial","59","585727","0.0-2.0-17.0-3.0","battery-v0.2","","""event"",""trial"",""time""
""fullscreenenter"",""1"",""2140""
","
","
","""event"",""trial"",""time""
""fullscreenenter"",""1"",""2140""
","
","","","-1","","","20","1212","261","&#9789;","elianto","#f73b6a7A"," ","-1","0","0","[]","0","0","4","","","","","","","","",""
"pit-trial","60","589124","0.0-2.0-17.0-4.0","battery-v0.2","","""event"",""trial"",""time""
""fullscreenenter"",""1"",""2140""
","
","
","""event"",""trial"",""time""
""fullscreenenter"",""1"",""2140""
","
","","","538.5","","","20","1212","261","&#9789;","elianto","#f73b6a7A"," "," ","1","0","[1390]","1","0","4","","","","","","","","",""
"pit-trial","61","592356","0.0-2.0-17.1-0.1","battery-v0.2","","""event"",""trial"",""time""
""fullscreenenter"",""1"",""2140""
","
","
","""event"",""trial"",""time""
""fullscreenenter"",""1"",""2140""
","
","","","376","","","20","1212","261","&#9789;","elianto","#f73b6a7A"," "," ","1","0","[1226.6999999284744]","1","0","4","","","","","","","","",""
"pit-trial","62","595607","0.0-2.0-17.1-1.1","battery-v0.2","","""event"",""trial"",""time""
""fullscreenenter"",""1"",""2140""
","
","
","""event"",""trial"",""time""
""fullscreenenter"",""1"",""2140""
","
","","","394.39999997615814","","","20","1212","261","&#9789;","elianto","#f73b6a7A"," "," ","1","0","[1245.6000000238419]","1","0","4","","","","","","","","",""
"pit-trial","63","600468","0.0-2.0-17.1-2.1","battery-v0.2","","""event"",""trial"",""time""
""fullscreenenter"",""1"",""2140""
","
","
","""event"",""trial"",""time""
""fullscreenenter"",""1"",""2140""
","
","","","-1","","","20","1212","261","&#9789;","elianto","#f73b6a7A"," ","-1","0","-10","[]","0","0","4","","","","","","","","",""
"pit-trial","64","603871","0.0-2.0-17.1-3.1","battery-v0.2","","""event"",""trial"",""time""
""fullscreenenter"",""1"",""2140""
","
","
","""event"",""trial"",""time""
""fullscreenenter"",""1"",""2140""
","
","","","546.1000000238419","","","20","1212","261","&#9789;","elianto","#f73b6a7A"," "," ","1","-10","[1397.4000000953674]","1","0","4","","","","","","","","",""
"pit-trial","65","607279","0.0-2.0-17.1-4.1","battery-v0.2","","""event"",""trial"",""time""
""fullscreenenter"",""1"",""2140""
","
","
","""event"",""trial"",""time""
""fullscreenenter"",""1"",""2140""
","
","","","551","","","20","1212","261","&#9789;","elianto","#f73b6a7A"," "," ","1","0","[1403.1000000238419]","1","0","4","","","","","","","","",""
"pit-trial","66","610391","0.0-2.0-17.2-0.2","battery-v0.2","","""event"",""trial"",""time""
""fullscreenenter"",""1"",""2140""
","
","
","""event"",""trial"",""time""
""fullscreenenter"",""1"",""2140""
","
","","","255.20000004768372","","","20","1212","261","&#9789;","elianto","#f73b6a7A"," "," ","1","0","[1105.7999999523163]","1","0","4","","","","","","","","",""
"pit-trial","67","613524","0.0-2.0-17.2-1.2","battery-v0.2","","""event"",""trial"",""time""
""fullscreenenter"",""1"",""2140""
","
","
","""event"",""trial"",""time""
""fullscreenenter"",""1"",""2140""
","
","","","275.5","","","20","1212","261","&#9789;","elianto","#f73b6a7A"," "," ","1","0","[1126.4000000953674]","1","0","4","","","","","","","","",""
"pit-trial","68","616612","0.0-2.0-17.2-2.2","battery-v0.2","","""event"",""trial"",""time""
""fullscreenenter"",""1"",""2140""
","
","
","""event"",""trial"",""time""
""fullscreenenter"",""1"",""2140""
","
","","","230.60000002384186","","","20","1212","261","&#9789;","elianto","#f73b6a7A"," "," ","1","0","[1082.1000000238419]","1","0","4","","","","","","","","",""
"pit-trial","69","619874","0.0-2.0-17.2-3.2","battery-v0.2","","""event"",""trial"",""time""
""fullscreenenter"",""1"",""2140""
","
","
","""event"",""trial"",""time""
""fullscreenenter"",""1"",""2140""
","
","","","404.39999997615814","","","20","1212","261","&#9789;","elianto","#f73b6a7A"," "," ","1","-10","[1254.5]","1","0","4","","","","","","","","",""
"pit-trial","70","623028","0.0-2.0-17.2-4.2","battery-v0.2","","""event"",""trial"",""time""
""fullscreenenter"",""1"",""2140""
","
","
","""event"",""trial"",""time""
""fullscreenenter"",""1"",""2140""
","
","","","298.39999997615814","","","20","1212","261","&#9789;","elianto","#f73b6a7A"," "," ","1","0","[1148.5999999046326]","1","0","4","","","","","","","","",""
"call-function","71","623030","0.0-2.0-18.0","battery-v0.2","","""event"",""trial"",""time""
""fullscreenenter"",""1"",""2140""
","
","
","""event"",""trial"",""time""
""fullscreenenter"",""1"",""2140""
","
","","","","","","","","","","","","","","","","","","","","","","","","","","","",""
"pit-instructions","72","762140","0.0-2.0-19.0","battery-v0.2","","""event"",""trial"",""time""
""fullscreenenter"",""1"",""2140""
","
","
","""event"",""trial"",""time""
""fullscreenenter"",""1"",""2140""
","
","","[{""page_index"":0,""viewing_time"":6487.799999952316},{""page_index"":1,""viewing_time"":28498.100000023842},{""page_index"":2,""viewing_time"":29306.699999928474},{""page_index"":3,""viewing_time"":16165.900000095367},{""page_index"":4,""viewing_time"":8443.599999904633},{""page_index"":5,""viewing_time"":9246.900000095367},{""page_index"":6,""viewing_time"":28772.5},{""page_index"":7,""viewing_time"":7264.199999928474},{""page_index"":8,""viewing_time"":4923.5}]","139109.69999992847","","","","","","","","","","","","","","","","","","","","","","","","",""
"pit-comprehension","73","766957","0.0-2.0-20.0-0.0","battery-v0.2","","""event"",""trial"",""time""
""fullscreenenter"",""1"",""2140""
","
","
","""event"",""trial"",""time""
""fullscreenenter"",""1"",""2140""
","
","","","4813.399999976158","[""SPACE""]","0","20","1212","261","","","","","","","","","","","","","","","","","","","",""
"pit-instructions","74","770750","0.0-2.0-20.0-1.0","battery-v0.2","","""event"",""trial"",""time""
""fullscreenenter"",""1"",""2140""
","
","
","""event"",""trial"",""time""
""fullscreenenter"",""1"",""2140""
","
","","[{""page_index"":0,""viewing_time"":3769.6999999284744}]","3770.2999999523163","","","","","","","","","","","","","","","","","","","","","","","","",""
"pit-comprehension","75","778070","0.0-2.0-21.0-0.0","battery-v0.2","","""event"",""trial"",""time""
""fullscreenenter"",""1"",""2140""
","
","
","""event"",""trial"",""time""
""fullscreenenter"",""1"",""2140""
","
","","","7315","[""10""]","0","20","1212","261","","","","","","","","","","","","","","","","","","","",""
"pit-instructions","76","780870","0.0-2.0-21.0-1.0","battery-v0.2","","""event"",""trial"",""time""
""fullscreenenter"",""1"",""2140""
","
","
","""event"",""trial"",""time""
""fullscreenenter"",""1"",""2140""
","
","","[{""page_index"":0,""viewing_time"":2775.5}]","2776.100000023842","","","","","","","","","","","","","","","","","","","","","","","","",""
"pit-comprehension","77","787622","0.0-2.0-22.0-0.0","battery-v0.2","","""event"",""trial"",""time""
""fullscreenenter"",""1"",""2140""
","
","
","""event"",""trial"",""time""
""fullscreenenter"",""1"",""2140""
","
","","","6748.100000023842","[""0""]","0","20","1212","261","","","","","","","","","","","","","","","","","","","",""
"pit-instructions","78","789359","0.0-2.0-22.0-1.0","battery-v0.2","","""event"",""trial"",""time""
""fullscreenenter"",""1"",""2140""
","
","
","""event"",""trial"",""time""
""fullscreenenter"",""1"",""2140""
","
","","[{""page_index"":0,""viewing_time"":1714.5}]","1714.8999999761581","","","","","","","","","","","","","","","","","","","","","","","","",""
"pit-comprehension","79","800877","0.0-2.0-23.0-0.0","battery-v0.2","","""event"",""trial"",""time""
""fullscreenenter"",""1"",""2140""
","
","
","""event"",""trial"",""time""
""fullscreenenter"",""1"",""2140""
","
","","","11514.299999952316","[""True""]","0","20","1212","261","","","","","","","","","","","","","","","","","","","",""
"pit-instructions","80","803831","0.0-2.0-23.0-1.0","battery-v0.2","","""event"",""trial"",""time""
""fullscreenenter"",""1"",""2140""
","
","
","""event"",""trial"",""time""
""fullscreenenter"",""1"",""2140""
","
","","[{""page_index"":0,""viewing_time"":2930.7999999523163}]","2931.2000000476837","","","","","","","","","","","","","","","","","","","","","","","","",""
"pit-comprehension","81","811288","0.0-2.0-24.0-0.0","battery-v0.2","","""event"",""trial"",""time""
""fullscreenenter"",""1"",""2140""
","
","
","""event"",""trial"",""time""
""fullscreenenter"",""1"",""2140""
","
","","","7453.600000023842","[""True""]","0","20","1212","261","","","","","","","","","","","","","","","","","","","",""
"pit-instructions","82","814832","0.0-2.0-24.0-1.0","battery-v0.2","","""event"",""trial"",""time""
""fullscreenenter"",""1"",""2140""
","
","
","""event"",""trial"",""time""
""fullscreenenter"",""1"",""2140""
","
","","[{""page_index"":0,""viewing_time"":3519.399999976158}]","3520","","","","","","","","","","","","","","","","","","","","","","","","",""
"pit-comprehension","83","821407","0.0-2.0-25.0-0.0","battery-v0.2","","""event"",""trial"",""time""
""fullscreenenter"",""1"",""2140""
","
","
","""event"",""trial"",""time""
""fullscreenenter"",""1"",""2140""
","
","","","6572","[""True""]","0","20","1212","261","","","","","","","","","","","","","","","","","","","",""
"pit-instructions","84","825215","0.0-2.0-25.0-1.0","battery-v0.2","","""event"",""trial"",""time""
""fullscreenenter"",""1"",""2140""
","
","
","""event"",""trial"",""time""
""fullscreenenter"",""1"",""2140""
","
","","[{""page_index"":0,""viewing_time"":3784}]","3784.399999976158","","","","","","","","","","","","","","","","","","","","","","","","",""
"pit-comprehension","85","830251","0.0-2.0-26.0-0.0","battery-v0.2","","""event"",""trial"",""time""
""fullscreenenter"",""1"",""2140""
","
","
","""event"",""trial"",""time""
""fullscreenenter"",""1"",""2140""
","
","","","5031.299999952316","[""False""]","0","20","1212","261","","","","","","","","","","","","","","","","","","","",""
"pit-instructions","86","832685","0.0-2.0-26.0-1.0","battery-v0.2","","""event"",""trial"",""time""
""fullscreenenter"",""1"",""2140""
","
","
","""event"",""trial"",""time""
""fullscreenenter"",""1"",""2140""
","
","","[{""page_index"":0,""viewing_time"":2409}]","2409.5","","","","","","","","","","","","","","","","","","","","","","","","",""
"pit-instructions","87","849757","0.0-3.0","battery-v0.2","","""event"",""trial"",""time""
""fullscreenenter"",""1"",""2140""
","
","
","""event"",""trial"",""time""
""fullscreenenter"",""1"",""2140""
","
","","[{""page_index"":0,""viewing_time"":3751.7999999523163},{""page_index"":1,""viewing_time"":5034.800000071526},{""page_index"":2,""viewing_time"":8283.5}]","17070.5","","","","","","","","","","","","","","","","","","","","","","","","",""
"pit-trial","88","853651","0.0-4.0","battery-v0.2","","""event"",""trial"",""time""
""fullscreenenter"",""1"",""2140""
","
","
","""event"",""trial"",""time""
""fullscreenenter"",""1"",""2140""
","
","","","1033.6999999284744","","","20","1212","261","&#9733;","elianto","#3366ff99","-1"," ","0","0","[1885.6000000238419]","1","1","","","1212","1","2","2","win","no-go","0","[]"
"pit-trial","89","858513","0.0-5.0","battery-v0.2","","""event"",""trial"",""time""
""fullscreenenter"",""1"",""2140""
","
","
","""event"",""trial"",""time""
""fullscreenenter"",""1"",""2140""
","
","","","-1","","","20","1212","261","&#9752;","elianto","#f73b6a7A"," ","-1","0","-10","[]","0","1","","","1212","2","3","3","lose","go","0","0"
"pit-trial","90","862736","0.0-6.0","battery-v0.2","","""event"",""trial"",""time""
""fullscreenenter"",""1"",""2140""
","
","
","""event"",""trial"",""time""
""fullscreenenter"",""1"",""2140""
","
","","","1366.7000000476837","","","20","1212","261","&#9728;","elianto","#f73b6a7A","-1"," ","0","-10","[2217.899999976158]","1","1","","","1212","3","0","4","lose","no-go","0","0"
"pit-trial","91","867118","0.0-7.0","battery-v0.2","","""event"",""trial"",""time""
""fullscreenenter"",""1"",""2140""
","
","
","""event"",""trial"",""time""
""fullscreenenter"",""1"",""2140""
","
","","","1526.5999999046326","","","20","1212","261","&#9730;","elianto","#3366ff99"," "," ","1","+10","[2377.2000000476837]","1","1","","","1212","4","1","1","win","go","0","0"
"pit-trial","92","870873","0.0-8.0","battery-v0.2","","""event"",""trial"",""time""
""fullscreenenter"",""1"",""2140""
","
","
","""event"",""trial"",""time""
""fullscreenenter"",""1"",""2140""
","
","","","896.5","","","20","1212","261","&#9730;","elianto","#3366ff99"," "," ","1","+10","[1747.3000000715256]","1","1","","","1212","5","1","1","win","go","0","0"
"pit-trial","93","875729","0.0-9.0","battery-v0.2","","""event"",""trial"",""time""
""fullscreenenter"",""1"",""2140""
","
","
","""event"",""trial"",""time""
""fullscreenenter"",""1"",""2140""
","
","","","-1","","","20","1212","261","&#9733;","elianto","#3366ff99","-1","-1","1","+10","[]","0","1","","","1212","6","2","2","win","no-go","0","0"
"pit-trial","94","880590","0.0-10.0","battery-v0.2","","""event"",""trial"",""time""
""fullscreenenter"",""1"",""2140""
","
","
","""event"",""trial"",""time""
""fullscreenenter"",""1"",""2140""
","
","","","-1","","","20","1212","261","&#9752;","elianto","#f73b6a7A"," ","-1","0","-10","[]","0","1","","","1212","7","3","3","lose","go","0","0"
"pit-trial","95","885451","0.0-11.0","battery-v0.2","","""event"",""trial"",""time""
""fullscreenenter"",""1"",""2140""
","
","
","""event"",""trial"",""time""
""fullscreenenter"",""1"",""2140""
","
","","","-1","","","20","1212","261","&#9728;","elianto","#f73b6a7A","-1","-1","1","0","[]","0","1","","","1212","8","0","4","lose","no-go","0","0"
"pit-trial","96","890313","0.0-12.0","battery-v0.2","","""event"",""trial"",""time""
""fullscreenenter"",""1"",""2140""
","
","
","""event"",""trial"",""time""
""fullscreenenter"",""1"",""2140""
","
","","","-1","","","20","1212","261","&#9733;","elianto","#3366ff99","-1","-1","1","0","[]","0","1","","","1212","9","2","2","win","no-go","1","0"
"pit-trial","97","895174","0.0-13.0","battery-v0.2","","""event"",""trial"",""time""
""fullscreenenter"",""1"",""2140""
","
","
","""event"",""trial"",""time""
""fullscreenenter"",""1"",""2140""
","
","","","-1","","","20","1212","261","&#9728;","elianto","#f73b6a7A","-1","-1","1","0","[]","0","1","","","1212","10","0","4","lose","no-go","0","0"
"pit-trial","98","899010","0.0-14.0","battery-v0.2","","""event"",""trial"",""time""
""fullscreenenter"",""1"",""2140""
","
","
","""event"",""trial"",""time""
""fullscreenenter"",""1"",""2140""
","
","","","979","","","20","1212","261","&#9730;","elianto","#3366ff99"," "," ","1","+10","[1830.1000000238419]","1","1","","","1212","11","1","1","win","go","0","0"
"pit-trial","99","903147","0.0-15.0","battery-v0.2","","""event"",""trial"",""time""
""fullscreenenter"",""1"",""2140""
","
","
","""event"",""trial"",""time""
""fullscreenenter"",""1"",""2140""
","
","","","1279.1000000238419","","","20","1212","261","&#9752;","elianto","#f73b6a7A"," "," ","1","0","[2131.7999999523163]","1","1","","","1212","12","3","3","lose","go","0","0"
"pit-trial","100","907043","0.0-16.0","battery-v0.2","","""event"",""trial"",""time""
""fullscreenenter"",""1"",""2140""
","
","
","""event"",""trial"",""time""
""fullscreenenter"",""1"",""2140""
","
","","","1039.0999999046326","","","20","1212","261","&#9730;","elianto","#3366ff99"," "," ","1","+10","[1889.3999999761581]","1","1","","","1212","13","1","1","win","go","0","0"
"pit-trial","101","911904","0.0-17.0","battery-v0.2","","""event"",""trial"",""time""
""fullscreenenter"",""1"",""2140""
","
","
","""event"",""trial"",""time""
""fullscreenenter"",""1"",""2140""
","
","","","-1","","","20","1212","261","&#9728;","elianto","#f73b6a7A","-1","-1","1","0","[]","0","1","","","1212","14","0","4","lose","no-go","0","0"
"pit-trial","102","916243","0.0-18.0","battery-v0.2","","""event"",""trial"",""time""
""fullscreenenter"",""1"",""2140""
","
","
","""event"",""trial"",""time""
""fullscreenenter"",""1"",""2140""
","
","","","1481.6000000238419","","","20","1212","261","&#9752;","elianto","#f73b6a7A"," "," ","1","-10","[2332.600000023842]","1","1","","","1212","15","3","3","lose","go","1","0"
"pit-trial","103","921104","0.0-19.0","battery-v0.2","","""event"",""trial"",""time""
""fullscreenenter"",""1"",""2140""
","
","
","""event"",""trial"",""time""
""fullscreenenter"",""1"",""2140""
","
","","","-1","","","20","1212","261","&#9733;","elianto","#3366ff99","-1","-1","1","0","[]","0","1","","","1212","16","2","2","win","no-go","1","0"
"pit-trial","104","925963","0.0-20.0","battery-v0.2","","""event"",""trial"",""time""
""fullscreenenter"",""1"",""2140""
","
","
","""event"",""trial"",""time""
""fullscreenenter"",""1"",""2140""
","
","","","-1","","","20","1212","261","&#9752;","elianto","#f73b6a7A"," ","-1","0","-10","[]","0","1","","","1212","17","3","3","lose","go","0","0"
"pit-trial","105","929494","0.0-21.0","battery-v0.2","","""event"",""trial"",""time""
""fullscreenenter"",""1"",""2140""
","
","
","""event"",""trial"",""time""
""fullscreenenter"",""1"",""2140""
","
","","","673.5","","","20","1212","261","&#9733;","elianto","#3366ff99","-1"," ","0","0","[1523.5]","1","1","","","1212","18","2","2","win","no-go","0","0"
"pit-trial","106","932875","0.0-22.0","battery-v0.2","","""event"",""trial"",""time""
""fullscreenenter"",""1"",""2140""
","
","
","""event"",""trial"",""time""
""fullscreenenter"",""1"",""2140""
","
","","","523.7000000476837","","","20","1212","261","&#9730;","elianto","#3366ff99"," "," ","1","+10","[1375.3000000715256]","1","1","","","1212","19","1","1","win","go","0","0"
"pit-trial","107","937737","0.0-23.0","battery-v0.2","","""event"",""trial"",""time""
""fullscreenenter"",""1"",""2140""
","
","
","""event"",""trial"",""time""
""fullscreenenter"",""1"",""2140""
","
","","","-1","","","20","1212","261","&#9728;","elianto","#f73b6a7A","-1","-1","1","0","[]","0","1","","","1212","20","0","4","lose","no-go","0","0"
"pit-instructions","108","1166755","0.0-24.0","battery-v0.2","","""event"",""trial"",""time""
""fullscreenenter"",""1"",""2140""
","
","
","""event"",""trial"",""time""
""fullscreenenter"",""1"",""2140""
","
","","[{""page_index"":0,""viewing_time"":221755.69999992847},{""page_index"":1,""viewing_time"":7260.399999976158}]","229016.69999992847","","","","","","","","","","","","","","","","","","","","","","","","",""
"pit-trial","109","1171618","0.0-25.0","battery-v0.2","","""event"",""trial"",""time""
""fullscreenenter"",""1"",""2140""
","
","
","""event"",""trial"",""time""
""fullscreenenter"",""1"",""2140""
","
","","","-1","","","20","1212","261","a","elianto","#f73b6a7A","-1","-1","1","0","[2981.5]","1","2","","","1212","21","2","4","lose","no-go","0","0"
"pit-trial","110","1175776","0.0-26.0","battery-v0.2","","""event"",""trial"",""time""
""fullscreenenter"",""1"",""2140""
","
","
","""event"",""trial"",""time""
""fullscreenenter"",""1"",""2140""
","
","","","1298.6000000238419","","","20","1212","261","l","elianto","#f73b6a7A"," "," ","1","0","[2149.399999976158]","1","2","","","1212","22","1","3","lose","go","0","0"
"pit-trial","111","1180637","0.0-27.0","battery-v0.2","","""event"",""trial"",""time""
""fullscreenenter"",""1"",""2140""
","
","
","""event"",""trial"",""time""
""fullscreenenter"",""1"",""2140""
","
","","","-1","","","20","1212","261","u","elianto","#3366ff99","-1","-1","1","+10","[]","0","2","","","1212","23","0","2","win","no-go","0","0"
"pit-trial","112","1185499","0.0-28.0","battery-v0.2","","""event"",""trial"",""time""
""fullscreenenter"",""1"",""2140""
","
","
","""event"",""trial"",""time""
""fullscreenenter"",""1"",""2140""
","
","","","-1","","","20","1212","261","g","elianto","#3366ff99"," ","-1","0","0","[]","0","2","","","1212","24","3","1","win","go","0","0"
"pit-trial","113","1189157","0.0-29.0","battery-v0.2","","""event"",""trial"",""time""
""fullscreenenter"",""1"",""2140""
","
","
","""event"",""trial"",""time""
""fullscreenenter"",""1"",""2140""
","
","","","800.2999999523163","","","20","1212","261","g","elianto","#3366ff99"," "," ","1","+10","[1651.1999999284744]","1","2","","","1212","25","3","1","win","go","0","0"
"pit-trial","114","1193722","0.0-30.0","battery-v0.2","","""event"",""trial"",""time""
""fullscreenenter"",""1"",""2140""
","
","
","""event"",""trial"",""time""
""fullscreenenter"",""1"",""2140""
","
","","","1708.3000000715256","","","20","1212","261","a","elianto","#f73b6a7A","-1"," ","0","0","[2559.4000000953674]","1","2","","","1212","26","2","4","lose","no-go","1","0"
"pit-trial","115","1198581","0.0-31.0","battery-v0.2","","""event"",""trial"",""time""
""fullscreenenter"",""1"",""2140""
","
","
","""event"",""trial"",""time""
""fullscreenenter"",""1"",""2140""
","
","","","-1","","","20","1212","261","u","elianto","#3366ff99","-1","-1","1","+10","[]","0","2","","","1212","27","0","2","win","no-go","0","0"
"pit-trial","116","1203442","0.0-32.0","battery-v0.2","","""event"",""trial"",""time""
""fullscreenenter"",""1"",""2140""
","
","
","""event"",""trial"",""time""
""fullscreenenter"",""1"",""2140""
","
","","","-1","","","20","1212","261","l","elianto","#f73b6a7A"," ","-1","0","-10","[]","0","2","","","1212","28","1","3","lose","go","0","0"
"pit-trial","117","1207778","0.0-33.0","battery-v0.2","","""event"",""trial"",""time""
""fullscreenenter"",""1"",""2140""
","
","
","""event"",""trial"",""time""
""fullscreenenter"",""1"",""2140""
","
","","","1478.6999999284744","","","20","1212","261","l","elianto","#f73b6a7A"," "," ","1","-10","[2329.6999999284744]","1","2","","","1212","29","1","3","lose","go","1","0"
"pit-trial","118","1211640","0.0-34.0","battery-v0.2","","""event"",""trial"",""time""
""fullscreenenter"",""1"",""2140""
","
","
","""event"",""trial"",""time""
""fullscreenenter"",""1"",""2140""
","
","","","1003.3999999761581","","","20","1212","261","u","elianto","#3366ff99","-1"," ","0","0","[1855.3999999761581]","1","2","","","1212","30","0","2","win","no-go","0","0"
"pit-trial","119","1216501","0.0-35.0","battery-v0.2","","""event"",""trial"",""time""
""fullscreenenter"",""1"",""2140""
","
","
","""event"",""trial"",""time""
""fullscreenenter"",""1"",""2140""
","
","","","-1","","","20","1212","261","a","elianto","#f73b6a7A","-1","-1","1","-10","[]","0","2","","","1212","31","2","4","lose","no-go","1","0"
"pit-trial","120","1220521","0.0-36.0","battery-v0.2","","""event"",""trial"",""time""
""fullscreenenter"",""1"",""2140""
","
","
","""event"",""trial"",""time""
""fullscreenenter"",""1"",""2140""
","
","","","1167.1999999284744","","","20","1212","261","g","elianto","#3366ff99"," "," ","1","+10","[2017.5]","1","2","","","1212","32","3","1","win","go","0","0"
"pit-trial","121","1225383","0.0-37.0","battery-v0.2","","""event"",""trial"",""time""
""fullscreenenter"",""1"",""2140""
","
","
","""event"",""trial"",""time""
""fullscreenenter"",""1"",""2140""
","
","","","-1","","","20","1212","261","u","elianto","#3366ff99","-1","-1","1","0","[]","0","2","","","1212","33","0","2","win","no-go","1","0"
"pit-trial","122","1229596","0.0-38.0","battery-v0.2","","""event"",""trial"",""time""
""fullscreenenter"",""1"",""2140""
","
","
","""event"",""trial"",""time""
""fullscreenenter"",""1"",""2140""
","
","","","1357","","","20","1212","261","a","elianto","#f73b6a7A","-1"," ","0","-10","[2207.399999976158]","1","2","","","1212","34","2","4","lose","no-go","0","0"
"pit-trial","123","1234007","0.0-39.0","battery-v0.2","","""event"",""trial"",""time""
""fullscreenenter"",""1"",""2140""
","
","
","""event"",""trial"",""time""
""fullscreenenter"",""1"",""2140""
","
","","","1555","","","20","1212","261","g","elianto","#3366ff99"," "," ","1","+10","[2405.600000023842]","1","2","","","1212","35","3","1","win","go","0","0"
"pit-trial","124","1238205","0.0-40.0","battery-v0.2","","""event"",""trial"",""time""
""fullscreenenter"",""1"",""2140""
","
","
","""event"",""trial"",""time""
""fullscreenenter"",""1"",""2140""
","
","","","1340.1000000238419","","","20","1212","261","l","elianto","#f73b6a7A"," "," ","1","0","[2191.7000000476837]","1","2","","","1212","36","1","3","lose","go","0","0"
"pit-trial","125","1242509","0.0-41.0","battery-v0.2","","""event"",""trial"",""time""
""fullscreenenter"",""1"",""2140""
","
","
","""event"",""trial"",""time""
""fullscreenenter"",""1"",""2140""
","
","","","1447.4000000953674","","","20","1212","261","g","elianto","#3366ff99"," "," ","1","+10","[2298.600000023842]","1","2","","","1212","37","3","1","win","go","0","0"
"pit-trial","126","1246845","0.0-42.0","battery-v0.2","","""event"",""trial"",""time""
""fullscreenenter"",""1"",""2140""
","
","
","""event"",""trial"",""time""
""fullscreenenter"",""1"",""2140""
","
","","","1479.7999999523163","","","20","1212","261","l","elianto","#f73b6a7A"," "," ","1","0","[2330.5]","1","2","","","1212","38","1","3","lose","go","0","0"
"pit-trial","127","1251706","0.0-43.0","battery-v0.2","","""event"",""trial"",""time""
""fullscreenenter"",""1"",""2140""
","
","
","""event"",""trial"",""time""
""fullscreenenter"",""1"",""2140""
","
","","","-1","","","20","1212","261","u","elianto","#3366ff99","-1","-1","1","+10","[]","0","2","","","1212","39","0","2","win","no-go","0","0"
"pit-trial","128","1255794","0.0-44.0","battery-v0.2","","""event"",""trial"",""time""
""fullscreenenter"",""1"",""2140""
","
","
","""event"",""trial"",""time""
""fullscreenenter"",""1"",""2140""
","
","","","1229.8000000715256","","","20","1212","261","a","elianto","#f73b6a7A","-1"," ","0","-10","[2080.7000000476837]","1","2","","","1212","40","2","4","lose","no-go","0","0"
"pit-trial","129","1260655","0.0-45.0","battery-v0.2","","""event"",""trial"",""time""
""fullscreenenter"",""1"",""2140""
","
","
","""event"",""trial"",""time""
""fullscreenenter"",""1"",""2140""
","
","","","-1","","","20","1212","261","a","elianto","#f73b6a7A","-1","-1","1","0","[]","0","2","","","1212","41","2","4","lose","no-go","0","0"
"pit-trial","130","1264913","0.0-46.0","battery-v0.2","","""event"",""trial"",""time""
""fullscreenenter"",""1"",""2140""
","
","
","""event"",""trial"",""time""
""fullscreenenter"",""1"",""2140""
","
","","","1400.7000000476837","","","20","1212","261","g","elianto","#3366ff99"," "," ","1","+10","[2251.7999999523163]","1","2","","","1212","42","3","1","win","go","0","0"
"pit-trial","131","1269413","0.0-47.0","battery-v0.2","","""event"",""trial"",""time""
""fullscreenenter"",""1"",""2140""
","
","
","""event"",""trial"",""time""
""fullscreenenter"",""1"",""2140""
","
","","","1642.2000000476837","","","20","1212","261","l","elianto","#f73b6a7A"," "," ","1","0","[2493]","1","2","","","1212","43","1","3","lose","go","0","0"
"pit-trial","132","1274274","0.0-48.0","battery-v0.2","","""event"",""trial"",""time""
""fullscreenenter"",""1"",""2140""
","
","
","""event"",""trial"",""time""
""fullscreenenter"",""1"",""2140""
","
","","","-1","","","20","1212","261","u","elianto","#3366ff99","-1","-1","1","+10","[]","0","2","","","1212","44","0","2","win","no-go","0","0"
"pit-trial","133","1279136","0.0-49.0","battery-v0.2","","""event"",""trial"",""time""
""fullscreenenter"",""1"",""2140""
","
","
","""event"",""trial"",""time""
""fullscreenenter"",""1"",""2140""
","
","","","-1","","","20","1212","261","u","elianto","#3366ff99","-1","-1","1","+10","[]","0","2","","","1212","45","0","2","win","no-go","0","0"
"pit-trial","134","1283085","0.0-50.0","battery-v0.2","","""event"",""trial"",""time""
""fullscreenenter"",""1"",""2140""
","
","
","""event"",""trial"",""time""
""fullscreenenter"",""1"",""2140""
","
","","","1092.8999999761581","","","20","1212","261","l","elianto","#f73b6a7A"," "," ","1","-10","[1943.7000000476837]","1","2","","","1212","46","1","3","lose","go","1","0"
"pit-trial","135","1287946","0.0-51.0","battery-v0.2","","""event"",""trial"",""time""
""fullscreenenter"",""1"",""2140""
","
","
","""event"",""trial"",""time""
""fullscreenenter"",""1"",""2140""
","
","","","-1","","","20","1212","261","a","elianto","#f73b6a7A","-1","-1","1","0","[]","0","2","","","1212","47","2","4","lose","no-go","0","0"
"pit-trial","136","1292224","0.0-52.0","battery-v0.2","","""event"",""trial"",""time""
""fullscreenenter"",""1"",""2140""
","
","
","""event"",""trial"",""time""
""fullscreenenter"",""1"",""2140""
","
","","","1420.2000000476837","","","20","1212","261","g","elianto","#3366ff99"," "," ","1","+10","[2270.399999976158]","1","2","","","1212","48","3","1","win","go","0","0"
"pit-trial","137","1296192","0.0-53.0","battery-v0.2","","""event"",""trial"",""time""
""fullscreenenter"",""1"",""2140""
","
","
","""event"",""trial"",""time""
""fullscreenenter"",""1"",""2140""
","
","","","1108.3999999761581","","","20","1212","261","g","elianto","#3366ff99"," "," ","1","0","[1960.6999999284744]","1","2","","","1212","49","3","1","win","go","1","0"
"pit-trial","138","1301053","0.0-54.0","battery-v0.2","","""event"",""trial"",""time""
""fullscreenenter"",""1"",""2140""
","
","
","""event"",""trial"",""time""
""fullscreenenter"",""1"",""2140""
","
","","","-1","","","20","1212","261","a","elianto","#f73b6a7A","-1","-1","1","0","[]","0","2","","","1212","50","2","4","lose","no-go","0","0"
"pit-trial","139","1305392","0.0-55.0","battery-v0.2","","""event"",""trial"",""time""
""fullscreenenter"",""1"",""2140""
","
","
","""event"",""trial"",""time""
""fullscreenenter"",""1"",""2140""
","
","","","1482.5999999046326","","","20","1212","261","l","elianto","#f73b6a7A"," "," ","1","0","[2332.600000023842]","1","2","","","1212","51","1","3","lose","go","0","0"
"pit-trial","140","1310252","0.0-56.0","battery-v0.2","","""event"",""trial"",""time""
""fullscreenenter"",""1"",""2140""
","
","
","""event"",""trial"",""time""
""fullscreenenter"",""1"",""2140""
","
","","","-1","","","20","1212","261","u","elianto","#3366ff99","-1","-1","1","0","[]","0","2","","","1212","52","0","2","win","no-go","1","0"
"pit-trial","141","1314769","0.0-57.0","battery-v0.2","","""event"",""trial"",""time""
""fullscreenenter"",""1"",""2140""
","
","
","""event"",""trial"",""time""
""fullscreenenter"",""1"",""2140""
","
","","","1660.2000000476837","","","20","1212","261","l","elianto","#f73b6a7A"," "," ","1","0","[2511.2000000476837]","1","2","","","1212","53","1","3","lose","go","0","0"
"pit-trial","142","1319631","0.0-58.0","battery-v0.2","","""event"",""trial"",""time""
""fullscreenenter"",""1"",""2140""
","
","
","""event"",""trial"",""time""
""fullscreenenter"",""1"",""2140""
","
","","","-1","","","20","1212","261","s","elianto","#f73b6a7A","-1","-1","1","0","[]","0","2","","","1212","54","5","4","lose","no-go","0","0"
"pit-trial","143","1324294","0.0-59.0","battery-v0.2","","""event"",""trial"",""time""
""fullscreenenter"",""1"",""2140""
","
","
","""event"",""trial"",""time""
""fullscreenenter"",""1"",""2140""
","
","","","1807.7999999523163","","","20","1212","261","a","elianto","#f73b6a7A","-1"," ","0","-10","[2657.899999976158]","1","2","","","1212","55","2","4","lose","no-go","0","0"
"pit-trial","144","1329154","0.0-60.0","battery-v0.2","","""event"",""trial"",""time""
""fullscreenenter"",""1"",""2140""
","
","
","""event"",""trial"",""time""
""fullscreenenter"",""1"",""2140""
","
","","","-1","","","20","1212","261","p","elianto","#f73b6a7A"," ","-1","0","-10","[]","0","2","","","1212","56","4","3","lose","go","0","0"
"pit-trial","145","1333253","0.0-61.0","battery-v0.2","","""event"",""trial"",""time""
""fullscreenenter"",""1"",""2140""
","
","
","""event"",""trial"",""time""
""fullscreenenter"",""1"",""2140""
","
","","","1241.5999999046326","","","20","1212","261","p","elianto","#f73b6a7A"," "," ","1","0","[2092.7999999523163]","1","2","","","1212","57","4","3","lose","go","0","0"
"pit-trial","146","1338114","0.0-62.0","battery-v0.2","","""event"",""trial"",""time""
""fullscreenenter"",""1"",""2140""
","
","
","""event"",""trial"",""time""
""fullscreenenter"",""1"",""2140""
","
","","","-1","","","20","1212","261","a","elianto","#f73b6a7A","-1","-1","1","0","[3019.5999999046326]","1","2","","","1212","58","2","4","lose","no-go","0","0"
"pit-trial","147","1342975","0.0-63.0","battery-v0.2","","""event"",""trial"",""time""
""fullscreenenter"",""1"",""2140""
","
","
","""event"",""trial"",""time""
""fullscreenenter"",""1"",""2140""
","
","","","-1","","","20","1212","261","l","elianto","#f73b6a7A"," ","-1","0","-10","[2924.399999976158]","1","2","","","1212","59","1","3","lose","go","0","0"
"pit-trial","148","1347836","0.0-64.0","battery-v0.2","","""event"",""trial"",""time""
""fullscreenenter"",""1"",""2140""
","
","
","""event"",""trial"",""time""
""fullscreenenter"",""1"",""2140""
","
","","","-1","","","20","1212","261","s","elianto","#f73b6a7A","-1","-1","1","-10","[]","0","2","","","1212","60","5","4","lose","no-go","1","0"
"pit-trial","149","1352698","0.0-65.0","battery-v0.2","","""event"",""trial"",""time""
""fullscreenenter"",""1"",""2140""
","
","
","""event"",""trial"",""time""
""fullscreenenter"",""1"",""2140""
","
","","","-1","","","20","1212","261","p","elianto","#f73b6a7A"," ","-1","0","0","[3151.0999999046326]","1","2","","","1212","61","4","3","lose","go","1","0"
"pit-trial","150","1357559","0.0-66.0","battery-v0.2","","""event"",""trial"",""time""
""fullscreenenter"",""1"",""2140""
","
","
","""event"",""trial"",""time""
""fullscreenenter"",""1"",""2140""
","
","","","-1","","","20","1212","261","a","elianto","#f73b6a7A","-1","-1","1","0","[2871.7999999523163]","1","2","","","1212","62","2","4","lose","no-go","0","0"
"pit-trial","151","1362420","0.0-67.0","battery-v0.2","","""event"",""trial"",""time""
""fullscreenenter"",""1"",""2140""
","
","
","""event"",""trial"",""time""
""fullscreenenter"",""1"",""2140""
","
","","","-1","","","20","1212","261","s","elianto","#f73b6a7A","-1","-1","1","0","[]","0","2","","","1212","63","5","4","lose","no-go","0","0"
"pit-trial","152","1367004","0.0-68.0","battery-v0.2","","""event"",""trial"",""time""
""fullscreenenter"",""1"",""2140""
","
","
","""event"",""trial"",""time""
""fullscreenenter"",""1"",""2140""
","
","","","1725.3000000715256","","","20","1212","261","w","elianto","#3366ff99","-1"," ","0","+10","[2576.600000023842]","1","2","","","1212","64","6","2","win","no-go","1","0"
"pit-trial","153","1371258","0.0-69.0","battery-v0.2","","""event"",""trial"",""time""
""fullscreenenter"",""1"",""2140""
","
","
","""event"",""trial"",""time""
""fullscreenenter"",""1"",""2140""
","
","","","1395","","","20","1212","261","p","elianto","#f73b6a7A"," "," ","1","0","[2247]","1","2","","","1212","65","4","3","lose","go","0","0"
"pit-trial","154","1376117","0.0-70.0","battery-v0.2","","""event"",""trial"",""time""
""fullscreenenter"",""1"",""2140""
","
","
","""event"",""trial"",""time""
""fullscreenenter"",""1"",""2140""
","
","","","-1","","","20","1212","261","s","elianto","#f73b6a7A","-1","-1","1","0","[]","0","2","","","1212","66","5","4","lose","no-go","0","0"
"pit-trial","155","1380433","0.0-71.0","battery-v0.2","","""event"",""trial"",""time""
""fullscreenenter"",""1"",""2140""
","
","
","""event"",""trial"",""time""
""fullscreenenter"",""1"",""2140""
","
","","","1460.5","","","20","1212","261","w","elianto","#3366ff99","-1"," ","0","+10","[2311.9000000953674]","1","2","","","1212","67","6","2","win","no-go","1","0"
"pit-trial","156","1385170","0.0-72.0","battery-v0.2","","""event"",""trial"",""time""
""fullscreenenter"",""1"",""2140""
","
","
","""event"",""trial"",""time""
""fullscreenenter"",""1"",""2140""
","
","","","1877.6999999284744","","","20","1212","261","a","elianto","#f73b6a7A","-1"," ","0","-10","[2729.1999999284744]","1","2","","","1212","68","2","4","lose","no-go","0","0"
"pit-trial","157","1390031","0.0-73.0","battery-v0.2","","""event"",""trial"",""time""
""fullscreenenter"",""1"",""2140""
","
","
","""event"",""trial"",""time""
""fullscreenenter"",""1"",""2140""
","
","","","-1","","","20","1212","261","s","elianto","#f73b6a7A","-1","-1","1","0","[]","0","2","","","1212","69","5","4","lose","no-go","0","0"
"pit-trial","158","1394145","0.0-74.0","battery-v0.2","","""event"",""trial"",""time""
""fullscreenenter"",""1"",""2140""
","
","
","""event"",""trial"",""time""
""fullscreenenter"",""1"",""2140""
","
","","","1256.6000000238419","","","20","1212","261","p","elianto","#f73b6a7A"," "," ","1","-10","[2107.600000023842]","1","2","","","1212","70","4","3","lose","go","1","0"
"pit-trial","159","1397626","0.0-75.0","battery-v0.2","","""event"",""trial"",""time""
""fullscreenenter"",""1"",""2140""
","
","
","""event"",""trial"",""time""
""fullscreenenter"",""1"",""2140""
","
","","","622.7000000476837","","","20","1212","261","w","elianto","#3366ff99","-1"," ","0","0","[1473.5]","1","2","","","1212","71","6","2","win","no-go","0","0"
"pit-trial","160","1402487","0.0-76.0","battery-v0.2","","""event"",""trial"",""time""
""fullscreenenter"",""1"",""2140""
","
","
","""event"",""trial"",""time""
""fullscreenenter"",""1"",""2140""
","
","","","-1","","","20","1212","261","e","elianto","#3366ff99"," ","-1","0","0","[]","0","2","","","1212","72","7","1","win","go","0","0"
"pit-trial","161","1406506","0.0-77.0","battery-v0.2","","""event"",""trial"",""time""
""fullscreenenter"",""1"",""2140""
","
","
","""event"",""trial"",""time""
""fullscreenenter"",""1"",""2140""
","
","","","1164.6000000238419","","","20","1212","261","e","elianto","#3366ff99"," "," ","1","+10","[2016.2000000476837]","1","2","","","1212","73","7","1","win","go","0","0"
"pit-trial","162","1410327","0.0-78.0","battery-v0.2","","""event"",""trial"",""time""
""fullscreenenter"",""1"",""2140""
","
","
","""event"",""trial"",""time""
""fullscreenenter"",""1"",""2140""
","
","","","963.6000000238419","","","20","1212","261","w","elianto","#3366ff99","-1"," ","0","0","[1814]","1","2","","","1212","74","6","2","win","no-go","0","0"
"pit-trial","163","1415173","0.0-79.0","battery-v0.2","","""event"",""trial"",""time""
""fullscreenenter"",""1"",""2140""
","
","
","""event"",""trial"",""time""
""fullscreenenter"",""1"",""2140""
","
","","","1988.5","","","20","1212","261","p","elianto","#f73b6a7A"," "," ","1","0","[2839.100000023842]","1","2","","","1212","75","4","3","lose","go","0","0"
"pit-trial","164","1420034","0.0-80.0","battery-v0.2","","""event"",""trial"",""time""
""fullscreenenter"",""1"",""2140""
","
","
","""event"",""trial"",""time""
""fullscreenenter"",""1"",""2140""
","
","","","-1","","","20","1212","261","s","elianto","#f73b6a7A","-1","-1","1","0","[]","0","2","","","1212","76","5","4","lose","no-go","0","0"
"pit-trial","165","1423682","0.0-81.0","battery-v0.2","","""event"",""trial"",""time""
""fullscreenenter"",""1"",""2140""
","
","
","""event"",""trial"",""time""
""fullscreenenter"",""1"",""2140""
","
","","","790.3999999761581","","","20","1212","261","w","elianto","#3366ff99","-1"," ","0","0","[1640.5]","1","2","","","1212","77","6","2","win","no-go","0","0"
"pit-trial","166","1427932","0.0-82.0","battery-v0.2","","""event"",""trial"",""time""
""fullscreenenter"",""1"",""2140""
","
","
","""event"",""trial"",""time""
""fullscreenenter"",""1"",""2140""
","
","","","1393.1999999284744","","","20","1212","261","p","elianto","#f73b6a7A"," "," ","1","0","[2243.399999976158]","1","2","","","1212","78","4","3","lose","go","0","0"
"pit-trial","167","1432793","0.0-83.0","battery-v0.2","","""event"",""trial"",""time""
""fullscreenenter"",""1"",""2140""
","
","
","""event"",""trial"",""time""
""fullscreenenter"",""1"",""2140""
","
","","","-1","","","20","1212","261","s","elianto","#f73b6a7A","-1","-1","1","0","[]","0","2","","","1212","79","5","4","lose","no-go","0","0"
"pit-trial","168","1436907","0.0-84.0","battery-v0.2","","""event"",""trial"",""time""
""fullscreenenter"",""1"",""2140""
","
","
","""event"",""trial"",""time""
""fullscreenenter"",""1"",""2140""
","
","","","1259.0999999046326","","","20","1212","261","e","elianto","#3366ff99"," "," ","1","0","[2109.5]","1","2","","","1212","80","7","1","win","go","1","0"
"pit-trial","169","1441769","0.0-85.0","battery-v0.2","","""event"",""trial"",""time""
""fullscreenenter"",""1"",""2140""
","
","
","""event"",""trial"",""time""
""fullscreenenter"",""1"",""2140""
","
","","","-1","","","20","1212","261","s","elianto","#f73b6a7A","-1","-1","1","0","[]","0","2","","","1212","81","5","4","lose","no-go","0","0"
"pit-trial","170","1446079","0.0-86.0","battery-v0.2","","""event"",""trial"",""time""
""fullscreenenter"",""1"",""2140""
","
","
","""event"",""trial"",""time""
""fullscreenenter"",""1"",""2140""
","
","","","1450.8000000715256","","","20","1212","261","e","elianto","#3366ff99"," "," ","1","+10","[2302.600000023842]","1","2","","","1212","82","7","1","win","go","0","0"
"pit-trial","171","1450287","0.0-87.0","battery-v0.2","","""event"",""trial"",""time""
""fullscreenenter"",""1"",""2140""
","
","
","""event"",""trial"",""time""
""fullscreenenter"",""1"",""2140""
","
","","","1350.7000000476837","","","20","1212","261","p","elianto","#f73b6a7A"," "," ","1","0","[2202]","1","2","","","1212","83","4","3","lose","go","0","0"
"pit-trial","172","1453999","0.0-88.0","battery-v0.2","","""event"",""trial"",""time""
""fullscreenenter"",""1"",""2140""
","
","
","""event"",""trial"",""time""
""fullscreenenter"",""1"",""2140""
","
","","","854.3999999761581","","","20","1212","261","w","elianto","#3366ff99","-1"," ","0","0","[1705.5]","1","2","","","1212","84","6","2","win","no-go","0","0"
"pit-trial","173","1458796","0.0-89.0","battery-v0.2","","""event"",""trial"",""time""
""fullscreenenter"",""1"",""2140""
","
","
","""event"",""trial"",""time""
""fullscreenenter"",""1"",""2140""
","
","","","1939.7000000476837","","","20","1212","261","p","elianto","#f73b6a7A"," "," ","1","0","[2791.5]","1","2","","","1212","85","4","3","lose","go","0","0"
"pit-trial","174","1463249","0.0-90.0","battery-v0.2","","""event"",""trial"",""time""
""fullscreenenter"",""1"",""2140""
","
","
","""event"",""trial"",""time""
""fullscreenenter"",""1"",""2140""
","
","","","1595.3999999761581","","","20","1212","261","e","elianto","#3366ff99"," "," ","1","+10","[2446.2999999523163]","1","2","","","1212","86","7","1","win","go","0","0"
"pit-trial","175","1468111","0.0-91.0","battery-v0.2","","""event"",""trial"",""time""
""fullscreenenter"",""1"",""2140""
","
","
","""event"",""trial"",""time""
""fullscreenenter"",""1"",""2140""
","
","","","-1","","","20","1212","261","s","elianto","#f73b6a7A","-1","-1","1","0","[]","0","2","","","1212","87","5","4","lose","no-go","0","0"
"pit-trial","176","1472268","0.0-92.0","battery-v0.2","","""event"",""trial"",""time""
""fullscreenenter"",""1"",""2140""
","
","
","""event"",""trial"",""time""
""fullscreenenter"",""1"",""2140""
","
","","","1300","","","20","1212","261","w","elianto","#3366ff99","-1"," ","0","+10","[2150.4000000953674]","1","2","","","1212","88","6","2","win","no-go","1","0"
"pit-trial","177","1476143","0.0-93.0","battery-v0.2","","""event"",""trial"",""time""
""fullscreenenter"",""1"",""2140""
","
","
","""event"",""trial"",""time""
""fullscreenenter"",""1"",""2140""
","
","","","1017.7000000476837","","","20","1212","261","w","elianto","#3366ff99","-1"," ","0","+10","[1868.6000000238419]","1","2","","","1212","89","6","2","win","no-go","1","0"
"pit-trial","178","1480500","0.0-94.0","battery-v0.2","","""event"",""trial"",""time""
""fullscreenenter"",""1"",""2140""
","
","
","""event"",""trial"",""time""
""fullscreenenter"",""1"",""2140""
","
","","","1501","","","20","1212","261","e","elianto","#3366ff99"," "," ","1","0","[2351.1999999284744]","1","2","","","1212","90","7","1","win","go","1","0"
"pit-trial","179","1485361","0.0-95.0","battery-v0.2","","""event"",""trial"",""time""
""fullscreenenter"",""1"",""2140""
","
","
","""event"",""trial"",""time""
""fullscreenenter"",""1"",""2140""
","
","","","-1","","","20","1212","261","s","elianto","#f73b6a7A","-1","-1","1","0","[]","0","2","","","1212","91","5","4","lose","no-go","0","0"
"pit-trial","180","1489732","0.0-96.0","battery-v0.2","","""event"",""trial"",""time""
""fullscreenenter"",""1"",""2140""
","
","
","""event"",""trial"",""time""
""fullscreenenter"",""1"",""2140""
","
","","","1513.1999999284744","","","20","1212","261","p","elianto","#f73b6a7A"," "," ","1","-10","[2364]","1","2","","","1212","92","4","3","lose","go","1","0"
"pit-trial","181","1494593","0.0-97.0","battery-v0.2","","""event"",""trial"",""time""
""fullscreenenter"",""1"",""2140""
","
","
","""event"",""trial"",""time""
""fullscreenenter"",""1"",""2140""
","
","","","-1","","","20","1212","261","p","elianto","#f73b6a7A"," ","-1","0","-10","[3092.100000023842]","1","2","","","1212","93","4","3","lose","go","0","0"
"pit-trial","182","1498561","0.0-98.0","battery-v0.2","","""event"",""trial"",""time""
""fullscreenenter"",""1"",""2140""
","
","
","""event"",""trial"",""time""
""fullscreenenter"",""1"",""2140""
","
","","","1112","","","20","1212","261","e","elianto","#3366ff99"," "," ","1","+10","[1962.6999999284744]","1","2","","","1212","94","7","1","win","go","0","0"
"pit-trial","183","1502655","0.0-99.0","battery-v0.2","","""event"",""trial"",""time""
""fullscreenenter"",""1"",""2140""
","
","
","""event"",""trial"",""time""
""fullscreenenter"",""1"",""2140""
","
","","","1236.5","","","20","1212","261","k","elianto","#3366ff99"," "," ","1","+10","[2087.5]","1","2","","","1212","95","8","1","win","go","0","0"
"pit-trial","184","1506623","0.0-100.0","battery-v0.2","","""event"",""trial"",""time""
""fullscreenenter"",""1"",""2140""
","
","
","""event"",""trial"",""time""
""fullscreenenter"",""1"",""2140""
","
","","","1111.6999999284744","","","20","1212","261","w","elianto","#3366ff99","-1"," ","0","0","[1961.7999999523163]","1","2","","","1212","96","6","2","win","no-go","0","0"
"pit-trial","185","1510399","0.0-101.0","battery-v0.2","","""event"",""trial"",""time""
""fullscreenenter"",""1"",""2140""
","
","
","""event"",""trial"",""time""
""fullscreenenter"",""1"",""2140""
","
","","","918.1000000238419","","","20","1212","261","w","elianto","#3366ff99","-1"," ","0","+10","[1768.3999999761581]","1","2","","","1212","97","6","2","win","no-go","1","0"
"pit-trial","186","1514678","0.0-102.0","battery-v0.2","","""event"",""trial"",""time""
""fullscreenenter"",""1"",""2140""
","
","
","""event"",""trial"",""time""
""fullscreenenter"",""1"",""2140""
","
","","","1419.6000000238419","","","20","1212","261","p","elianto","#f73b6a7A"," "," ","1","0","[2272.8000000715256]","1","2","","","1212","98","4","3","lose","go","0","0"
"pit-trial","187","1518366","0.0-103.0","battery-v0.2","","""event"",""trial"",""time""
""fullscreenenter"",""1"",""2140""
","
","
","""event"",""trial"",""time""
""fullscreenenter"",""1"",""2140""
","
","","","829.8999999761581","","","20","1212","261","k","elianto","#3366ff99"," "," ","1","+10","[1680.5999999046326]","1","2","","","1212","99","8","1","win","go","0","0"
"pit-trial","188","1523130","0.0-104.0","battery-v0.2","","""event"",""trial"",""time""
""fullscreenenter"",""1"",""2140""
","
","
","""event"",""trial"",""time""
""fullscreenenter"",""1"",""2140""
","
","","","1905.7000000476837","","","20","1212","261","e","elianto","#3366ff99"," "," ","1","0","[2756.8000000715256]","1","2","","","1212","100","7","1","win","go","1","0"
"pit-trial","189","1527466","0.0-105.0","battery-v0.2","","""event"",""trial"",""time""
""fullscreenenter"",""1"",""2140""
","
","
","""event"",""trial"",""time""
""fullscreenenter"",""1"",""2140""
","
","","","1478.8999999761581","","","20","1212","261","d","elianto","#3366ff99","-1"," ","0","0","[2330]","1","2","","","1212","101","9","2","win","no-go","0","0"
"pit-trial","190","1531807","0.0-106.0","battery-v0.2","","""event"",""trial"",""time""
""fullscreenenter"",""1"",""2140""
","
","
","""event"",""trial"",""time""
""fullscreenenter"",""1"",""2140""
","
","","","1481.7000000476837","","","20","1212","261","k","elianto","#3366ff99"," "," ","1","+10","[2334.100000023842]","1","2","","","1212","102","8","1","win","go","0","0"
"pit-trial","191","1535732","0.0-107.0","battery-v0.2","","""event"",""trial"",""time""
""fullscreenenter"",""1"",""2140""
","
","
","""event"",""trial"",""time""
""fullscreenenter"",""1"",""2140""
","
","","","1067.2000000476837","","","20","1212","261","w","elianto","#3366ff99","-1"," ","0","0","[1918.2999999523163]","1","2","","","1212","103","6","2","win","no-go","0","0"
"pit-trial","192","1540591","0.0-108.0","battery-v0.2","","""event"",""trial"",""time""
""fullscreenenter"",""1"",""2140""
","
","
","""event"",""trial"",""time""
""fullscreenenter"",""1"",""2140""
","
","","","-1","","","20","1212","261","e","elianto","#3366ff99"," ","-1","0","0","[]","0","2","","","1212","104","7","1","win","go","0","0"
"pit-trial","193","1544459","0.0-109.0","battery-v0.2","","""event"",""trial"",""time""
""fullscreenenter"",""1"",""2140""
","
","
","""event"",""trial"",""time""
""fullscreenenter"",""1"",""2140""
","
","","","1012","","","20","1212","261","w","elianto","#3366ff99","-1"," ","0","0","[1862.5999999046326]","1","2","","","1212","105","6","2","win","no-go","0","0"
"pit-trial","194","1548767","0.0-110.0","battery-v0.2","","""event"",""trial"",""time""
""fullscreenenter"",""1"",""2140""
","
","
","""event"",""trial"",""time""
""fullscreenenter"",""1"",""2140""
","
","","","1450.8999999761581","","","20","1212","261","e","elianto","#3366ff99"," "," ","1","+10","[2301.7000000476837]","1","2","","","1212","106","7","1","win","go","0","0"
"pit-trial","195","1552950","0.0-111.0","battery-v0.2","","""event"",""trial"",""time""
""fullscreenenter"",""1"",""2140""
","
","
","""event"",""trial"",""time""
""fullscreenenter"",""1"",""2140""
","
","","","1325.5","","","20","1212","261","d","elianto","#3366ff99","-1"," ","0","0","[2177.2999999523163]","1","2","","","1212","107","9","2","win","no-go","0","0"
"pit-trial","196","1556972","0.0-112.0","battery-v0.2","","""event"",""trial"",""time""
""fullscreenenter"",""1"",""2140""
","
","
","""event"",""trial"",""time""
""fullscreenenter"",""1"",""2140""
","
","","","1167.7000000476837","","","20","1212","261","k","elianto","#3366ff99"," "," ","1","+10","[2018.8000000715256]","1","2","","","1212","108","8","1","win","go","0","0"
"pit-trial","197","1561833","0.0-113.0","battery-v0.2","","""event"",""trial"",""time""
""fullscreenenter"",""1"",""2140""
","
","
","""event"",""trial"",""time""
""fullscreenenter"",""1"",""2140""
","
","","","-1","","","20","1212","261","j","elianto","#f73b6a7A"," ","-1","0","-10","[]","0","2","","","1212","109","10","3","lose","go","0","0"
"pit-trial","198","1566112","0.0-114.0","battery-v0.2","","""event"",""trial"",""time""
""fullscreenenter"",""1"",""2140""
","
","
","""event"",""trial"",""time""
""fullscreenenter"",""1"",""2140""
","
","","","1422.0999999046326","","","20","1212","261","d","elianto","#3366ff99","-1"," ","0","0","[2273.3000000715256]","1","2","","","1212","110","9","2","win","no-go","0","0"
"pit-trial","199","1570756","0.0-115.0","battery-v0.2","","""event"",""trial"",""time""
""fullscreenenter"",""1"",""2140""
","
","
","""event"",""trial"",""time""
""fullscreenenter"",""1"",""2140""
","
","","","1785","","","20","1212","261","k","elianto","#3366ff99"," "," ","1","+10","[2637.3000000715256]","1","2","","","1212","111","8","1","win","go","0","0"
"pit-trial","200","1575614","0.0-116.0","battery-v0.2","","""event"",""trial"",""time""
""fullscreenenter"",""1"",""2140""
","
","
","""event"",""trial"",""time""
""fullscreenenter"",""1"",""2140""
","
","","","-1","","","20","1212","261","v","elianto","#f73b6a7A","-1","-1","1","0","[2870]","1","2","","","1212","112","11","4","lose","no-go","0","0"
"pit-trial","201","1580475","0.0-117.0","battery-v0.2","","""event"",""trial"",""time""
""fullscreenenter"",""1"",""2140""
","
","
","""event"",""trial"",""time""
""fullscreenenter"",""1"",""2140""
","
","","","-1","","","20","1212","261","d","elianto","#3366ff99","-1","-1","1","+10","[]","0","2","","","1212","113","9","2","win","no-go","0","0"
"pit-trial","202","1584784","0.0-118.0","battery-v0.2","","""event"",""trial"",""time""
""fullscreenenter"",""1"",""2140""
","
","
","""event"",""trial"",""time""
""fullscreenenter"",""1"",""2140""
","
","","","1451.7999999523163","","","20","1212","261","k","elianto","#3366ff99"," "," ","1","+10","[2302.7000000476837]","1","2","","","1212","114","8","1","win","go","0","0"
"pit-trial","203","1589329","0.0-119.0","battery-v0.2","","""event"",""trial"",""time""
""fullscreenenter"",""1"",""2140""
","
","
","""event"",""trial"",""time""
""fullscreenenter"",""1"",""2140""
","
","","","1687.7000000476837","","","20","1212","261","j","elianto","#f73b6a7A"," "," ","1","0","[2537.9000000953674]","1","2","","","1212","115","10","3","lose","go","0","0"
"pit-trial","204","1593606","0.0-120.0","battery-v0.2","","""event"",""trial"",""time""
""fullscreenenter"",""1"",""2140""
","
","
","""event"",""trial"",""time""
""fullscreenenter"",""1"",""2140""
","
","","","1419.7999999523163","","","20","1212","261","v","elianto","#f73b6a7A","-1"," ","0","-10","[2270.399999976158]","1","2","","","1212","116","11","4","lose","no-go","0","0"
"pit-trial","205","1597924","0.0-121.0","battery-v0.2","","""event"",""trial"",""time""
""fullscreenenter"",""1"",""2140""
","
","
","""event"",""trial"",""time""
""fullscreenenter"",""1"",""2140""
","
","","","1461.0999999046326","","","20","1212","261","k","elianto","#3366ff99"," "," ","1","0","[2311.6999999284744]","1","2","","","1212","117","8","1","win","go","1","0"
"pit-trial","206","1602785","0.0-122.0","battery-v0.2","","""event"",""trial"",""time""
""fullscreenenter"",""1"",""2140""
","
","
","""event"",""trial"",""time""
""fullscreenenter"",""1"",""2140""
","
","","","-1","","","20","1212","261","v","elianto","#f73b6a7A","-1","-1","1","0","[]","0","2","","","1212","118","11","4","lose","no-go","0","0"
"pit-trial","207","1607646","0.0-123.0","battery-v0.2","","""event"",""trial"",""time""
""fullscreenenter"",""1"",""2140""
","
","
","""event"",""trial"",""time""
""fullscreenenter"",""1"",""2140""
","
","","","-1","","","20","1212","261","d","elianto","#3366ff99","-1","-1","1","+10","[]","0","2","","","1212","119","9","2","win","no-go","0","0"
"pit-trial","208","1612143","0.0-124.0","battery-v0.2","","""event"",""trial"",""time""
""fullscreenenter"",""1"",""2140""
","
","
","""event"",""trial"",""time""
""fullscreenenter"",""1"",""2140""
","
","","","1638.4000000953674","","","20","1212","261","j","elianto","#f73b6a7A"," "," ","1","0","[2489.899999976158]","1","2","","","1212","120","10","3","lose","go","0","0"
"pit-trial","209","1617003","0.0-125.0","battery-v0.2","","""event"",""trial"",""time""
""fullscreenenter"",""1"",""2140""
","
","
","""event"",""trial"",""time""
""fullscreenenter"",""1"",""2140""
","
","","","-1","","","20","1212","261","v","elianto","#f73b6a7A","-1","-1","1","0","[]","0","2","","","1212","121","11","4","lose","no-go","0","0"
"pit-trial","210","1621865","0.0-126.0","battery-v0.2","","""event"",""trial"",""time""
""fullscreenenter"",""1"",""2140""
","
","
","""event"",""trial"",""time""
""fullscreenenter"",""1"",""2140""
","
","","","-1","","","20","1212","261","d","elianto","#3366ff99","-1","-1","1","+10","[]","0","2","","","1212","122","9","2","win","no-go","0","0"
"pit-trial","211","1625883","0.0-127.0","battery-v0.2","","""event"",""trial"",""time""
""fullscreenenter"",""1"",""2140""
","
","
","""event"",""trial"",""time""
""fullscreenenter"",""1"",""2140""
","
","","","1161.2999999523163","","","20","1212","261","k","elianto","#3366ff99"," "," ","1","0","[2011.3999999761581]","1","2","","","1212","123","8","1","win","go","1","0"
"pit-trial","212","1630454","0.0-128.0","battery-v0.2","","""event"",""trial"",""time""
""fullscreenenter"",""1"",""2140""
","
","
","""event"",""trial"",""time""
""fullscreenenter"",""1"",""2140""
","
","","","1712.8999999761581","","","20","1212","261","j","elianto","#f73b6a7A"," "," ","1","0","[2563.399999976158]","1","2","","","1212","124","10","3","lose","go","0","0"
"pit-trial","213","1634654","0.0-129.0","battery-v0.2","","""event"",""trial"",""time""
""fullscreenenter"",""1"",""2140""
","
","
","""event"",""trial"",""time""
""fullscreenenter"",""1"",""2140""
","
","","","1341.6000000238419","","","20","1212","261","k","elianto","#3366ff99"," "," ","1","0","[2192.7999999523163]","1","2","","","1212","125","8","1","win","go","1","0"
"pit-trial","214","1638926","0.0-130.0","battery-v0.2","","""event"",""trial"",""time""
""fullscreenenter"",""1"",""2140""
","
","
","""event"",""trial"",""time""
""fullscreenenter"",""1"",""2140""
","
","","","1414","","","20","1212","261","j","elianto","#f73b6a7A"," "," ","1","0","[2264.7999999523163]","1","2","","","1212","126","10","3","lose","go","0","0"
"pit-trial","215","1643787","0.0-131.0","battery-v0.2","","""event"",""trial"",""time""
""fullscreenenter"",""1"",""2140""
","
","
","""event"",""trial"",""time""
""fullscreenenter"",""1"",""2140""
","
","","","-1","","","20","1212","261","d","elianto","#3366ff99","-1","-1","1","+10","[]","0","2","","","1212","127","9","2","win","no-go","0","0"
"pit-trial","216","1648649","0.0-132.0","battery-v0.2","","""event"",""trial"",""time""
""fullscreenenter"",""1"",""2140""
","
","
","""event"",""trial"",""time""
""fullscreenenter"",""1"",""2140""
","
","","","-1","","","20","1212","261","v","elianto","#f73b6a7A","-1","-1","1","0","[]","0","2","","","1212","128","11","4","lose","no-go","0","0"
"pit-trial","217","1653510","0.0-133.0","battery-v0.2","","""event"",""trial"",""time""
""fullscreenenter"",""1"",""2140""
","
","
","""event"",""trial"",""time""
""fullscreenenter"",""1"",""2140""
","
","","","-1","","","20","1212","261","v","elianto","#f73b6a7A","-1","-1","1","0","[]","0","2","","","1212","129","11","4","lose","no-go","0","0"
"pit-trial","218","1657696","0.0-134.0","battery-v0.2","","""event"",""trial"",""time""
""fullscreenenter"",""1"",""2140""
","
","
","""event"",""trial"",""time""
""fullscreenenter"",""1"",""2140""
","
","","","1328.0999999046326","","","20","1212","261","j","elianto","#f73b6a7A"," "," ","1","0","[2180]","1","2","","","1212","130","10","3","lose","go","0","0"
"pit-trial","219","1662558","0.0-135.0","battery-v0.2","","""event"",""trial"",""time""
""fullscreenenter"",""1"",""2140""
","
","
","""event"",""trial"",""time""
""fullscreenenter"",""1"",""2140""
","
","","","-1","","","20","1212","261","d","elianto","#3366ff99","-1","-1","1","+10","[]","0","2","","","1212","131","9","2","win","no-go","0","0"
"pit-trial","220","1666694","0.0-136.0","battery-v0.2","","""event"",""trial"",""time""
""fullscreenenter"",""1"",""2140""
","
","
","""event"",""trial"",""time""
""fullscreenenter"",""1"",""2140""
","
","","","1275.7000000476837","","","20","1212","261","k","elianto","#3366ff99"," "," ","1","0","[2128.399999976158]","1","2","","","1212","132","8","1","win","go","1","0"
"pit-trial","221","1671555","0.0-137.0","battery-v0.2","","""event"",""trial"",""time""
""fullscreenenter"",""1"",""2140""
","
","
","""event"",""trial"",""time""
""fullscreenenter"",""1"",""2140""
","
","","","-1","","","20","1212","261","d","elianto","#3366ff99","-1","-1","1","+10","[]","0","2","","","1212","133","9","2","win","no-go","0","0"
"pit-trial","222","1675733","0.0-138.0","battery-v0.2","","""event"",""trial"",""time""
""fullscreenenter"",""1"",""2140""
","
","
","""event"",""trial"",""time""
""fullscreenenter"",""1"",""2140""
","
","","","1323.1000000238419","","","20","1212","261","j","elianto","#f73b6a7A"," "," ","1","0","[2174.7000000476837]","1","2","","","1212","134","10","3","lose","go","0","0"
"pit-trial","223","1680590","0.0-139.0","battery-v0.2","","""event"",""trial"",""time""
""fullscreenenter"",""1"",""2140""
","
","
","""event"",""trial"",""time""
""fullscreenenter"",""1"",""2140""
","
","","","-1","","","20","1212","261","k","elianto","#3366ff99"," ","-1","0","+10","[]","0","2","","","1212","135","8","1","win","go","1","0"
"pit-trial","224","1685451","0.0-140.0","battery-v0.2","","""event"",""trial"",""time""
""fullscreenenter"",""1"",""2140""
","
","
","""event"",""trial"",""time""
""fullscreenenter"",""1"",""2140""
","
","","","-1","","","20","1212","261","v","elianto","#f73b6a7A","-1","-1","1","0","[]","0","2","","","1212","136","11","4","lose","no-go","0","0"
"pit-trial","225","1690313","0.0-141.0","battery-v0.2","","""event"",""trial"",""time""
""fullscreenenter"",""1"",""2140""
","
","
","""event"",""trial"",""time""
""fullscreenenter"",""1"",""2140""
","
","","","-1","","","20","1212","261","d","elianto","#3366ff99","-1","-1","1","+10","[]","0","2","","","1212","137","9","2","win","no-go","0","0"
"pit-trial","226","1695174","0.0-142.0","battery-v0.2","","""event"",""trial"",""time""
""fullscreenenter"",""1"",""2140""
","
","
","""event"",""trial"",""time""
""fullscreenenter"",""1"",""2140""
","
","","","-1","","","20","1212","261","k","elianto","#3366ff99"," ","-1","0","0","[]","0","2","","","1212","138","8","1","win","go","0","0"
"pit-trial","227","1699486","0.0-143.0","battery-v0.2","","""event"",""trial"",""time""
""fullscreenenter"",""1"",""2140""
","
","
","""event"",""trial"",""time""
""fullscreenenter"",""1"",""2140""
","
","","","1453.6000000238419","","","20","1212","261","j","elianto","#f73b6a7A"," "," ","1","0","[2304]","1","2","","","1212","139","10","3","lose","go","0","0"
"pit-trial","228","1704347","0.0-144.0","battery-v0.2","","""event"",""trial"",""time""
""fullscreenenter"",""1"",""2140""
","
","
","""event"",""trial"",""time""
""fullscreenenter"",""1"",""2140""
","
","","","-1","","","20","1212","261","v","elianto","#f73b6a7A","-1","-1","1","0","[]","0","2","","","1212","140","11","4","lose","no-go","0","0"
"pit-instructions","229","1720030","0.0-145.0","battery-v0.2","","""event"",""trial"",""time""
""fullscreenenter"",""1"",""2140""
","
","
","""event"",""trial"",""time""
""fullscreenenter"",""1"",""2140""
","
","","[{""page_index"":0,""viewing_time"":6655.799999952316},{""page_index"":1,""viewing_time"":9024.300000071526}]","15680.600000023842","","","","","","","","","","","","","","","","","","","","","","","","",""
"pit-trial","230","1724894","0.0-146.0","battery-v0.2","","""event"",""trial"",""time""
""fullscreenenter"",""1"",""2140""
","
","
","""event"",""trial"",""time""
""fullscreenenter"",""1"",""2140""
","
","","","-1","","","20","1212","261","h","elianto","#f73b6a7A"," ","-1","0","-10","[]","0","3","","","1212","141","3","3","lose","go","0","0"
"pit-trial","231","1729753","0.0-147.0","battery-v0.2","","""event"",""trial"",""time""
""fullscreenenter"",""1"",""2140""
","
","
","""event"",""trial"",""time""
""fullscreenenter"",""1"",""2140""
","
","","","-1","","","20","1212","261","m","elianto","#3366ff99","-1","-1","1","+10","[]","0","3","","","1212","142","0","2","win","no-go","0","0"
"pit-trial","232","1734614","0.0-148.0","battery-v0.2","","""event"",""trial"",""time""
""fullscreenenter"",""1"",""2140""
","
","
","""event"",""trial"",""time""
""fullscreenenter"",""1"",""2140""
","
","","","-1","","","20","1212","261","y","elianto","#3366ff99"," ","-1","0","0","[]","0","3","","","1212","143","2","1","win","go","0","0"
"pit-trial","233","1738563","0.0-149.0","battery-v0.2","","""event"",""trial"",""time""
""fullscreenenter"",""1"",""2140""
","
","
","""event"",""trial"",""time""
""fullscreenenter"",""1"",""2140""
","
","","","1092.3999999761581","","","20","1212","261","r","elianto","#3366ff99","-1"," ","0","+10","[1943.2999999523163]","1","3","","","1212","144","1","2","win","no-go","1","0"
"pit-trial","234","1743422","0.0-150.0","battery-v0.2","","""event"",""trial"",""time""
""fullscreenenter"",""1"",""2140""
","
","
","""event"",""trial"",""time""
""fullscreenenter"",""1"",""2140""
","
","","","-1","","","20","1212","261","h","elianto","#f73b6a7A"," ","-1","0","-10","[]","0","3","","","1212","145","3","3","lose","go","0","0"
"pit-trial","235","1747744","0.0-151.0","battery-v0.2","","""event"",""trial"",""time""
""fullscreenenter"",""1"",""2140""
","
","
","""event"",""trial"",""time""
""fullscreenenter"",""1"",""2140""
","
","","","1464.6999999284744","","","20","1212","261","y","elianto","#3366ff99"," "," ","1","+10","[2316.7999999523163]","1","3","","","1212","146","2","1","win","go","0","0"
"pit-trial","236","1751758","0.0-152.0","battery-v0.2","","""event"",""trial"",""time""
""fullscreenenter"",""1"",""2140""
","
","
","""event"",""trial"",""time""
""fullscreenenter"",""1"",""2140""
","
","","","1157.1999999284744","","","20","1212","261","r","elianto","#3366ff99","-1"," ","0","0","[2007.3000000715256]","1","3","","","1212","147","1","2","win","no-go","0","0"
"pit-trial","237","1756619","0.0-153.0","battery-v0.2","","""event"",""trial"",""time""
""fullscreenenter"",""1"",""2140""
","
","
","""event"",""trial"",""time""
""fullscreenenter"",""1"",""2140""
","
","","","-1","","","20","1212","261","m","elianto","#3366ff99","-1","-1","1","+10","[]","0","3","","","1212","148","0","2","win","no-go","0","0"
"pit-trial","238","1761480","0.0-154.0","battery-v0.2","","""event"",""trial"",""time""
""fullscreenenter"",""1"",""2140""
","
","
","""event"",""trial"",""time""
""fullscreenenter"",""1"",""2140""
","
","","","-1","","","20","1212","261","y","elianto","#3366ff99"," ","-1","0","0","[]","0","3","","","1212","149","2","1","win","go","0","0"
"pit-trial","239","1765766","0.0-155.0","battery-v0.2","","""event"",""trial"",""time""
""fullscreenenter"",""1"",""2140""
","
","
","""event"",""trial"",""time""
""fullscreenenter"",""1"",""2140""
","
","","","1427","","","20","1212","261","r","elianto","#3366ff99","-1"," ","0","0","[2278.399999976158]","1","3","","","1212","150","1","2","win","no-go","0","0"
"pit-trial","240","1770628","0.0-156.0","battery-v0.2","","""event"",""trial"",""time""
""fullscreenenter"",""1"",""2140""
","
","
","""event"",""trial"",""time""
""fullscreenenter"",""1"",""2140""
","
","","","-1","","","20","1212","261","m","elianto","#3366ff99","-1","-1","1","0","[]","0","3","","","1212","151","0","2","win","no-go","1","0"
"pit-trial","241","1775066","0.0-157.0","battery-v0.2","","""event"",""trial"",""time""
""fullscreenenter"",""1"",""2140""
","
","
","""event"",""trial"",""time""
""fullscreenenter"",""1"",""2140""
","
","","","1582.3999999761581","","","20","1212","261","h","elianto","#f73b6a7A"," "," ","1","0","[2433.100000023842]","1","3","","","1212","152","3","3","lose","go","0","0"
"pit-trial","242","1779744","0.0-158.0","battery-v0.2","","""event"",""trial"",""time""
""fullscreenenter"",""1"",""2140""
","
","
","""event"",""trial"",""time""
""fullscreenenter"",""1"",""2140""
","
","","","1820.3999999761581","","","20","1212","261","y","elianto","#3366ff99"," "," ","1","+10","[2672.100000023842]","1","3","","","1212","153","2","1","win","go","0","0"
"pit-trial","243","1784169","0.0-159.0","battery-v0.2","","""event"",""trial"",""time""
""fullscreenenter"",""1"",""2140""
","
","
","""event"",""trial"",""time""
""fullscreenenter"",""1"",""2140""
","
","","","1567.6000000238419","","","20","1212","261","h","elianto","#f73b6a7A"," "," ","1","0","[2418.5]","1","3","","","1212","154","3","3","lose","go","0","0"
"pit-trial","244","1789032","0.0-160.0","battery-v0.2","","""event"",""trial"",""time""
""fullscreenenter"",""1"",""2140""
","
","
","""event"",""trial"",""time""
""fullscreenenter"",""1"",""2140""
","
","","","-1","","","20","1212","261","m","elianto","#3366ff99","-1","-1","1","0","[]","0","3","","","1212","155","0","2","win","no-go","1","0"
"pit-trial","245","1793893","0.0-161.0","battery-v0.2","","""event"",""trial"",""time""
""fullscreenenter"",""1"",""2140""
","
","
","""event"",""trial"",""time""
""fullscreenenter"",""1"",""2140""
","
","","","-1","","","20","1212","261","r","elianto","#3366ff99","-1","-1","1","+10","[]","0","3","","","1212","156","1","2","win","no-go","0","0"
"pit-trial","246","1798020","0.0-162.0","battery-v0.2","","""event"",""trial"",""time""
""fullscreenenter"",""1"",""2140""
","
","
","""event"",""trial"",""time""
""fullscreenenter"",""1"",""2140""
","
","","","1268.8999999761581","","","20","1212","261","y","elianto","#3366ff99"," "," ","1","+10","[2119.2000000476837]","1","3","","","1212","157","2","1","win","go","0","0"
"pit-trial","247","1802880","0.0-163.0","battery-v0.2","","""event"",""trial"",""time""
""fullscreenenter"",""1"",""2140""
","
","
","""event"",""trial"",""time""
""fullscreenenter"",""1"",""2140""
","
","","","-1","","","20","1212","261","r","elianto","#3366ff99","-1","-1","1","0","[]","0","3","","","1212","158","1","2","win","no-go","1","0"
"pit-trial","248","1807141","0.0-164.0","battery-v0.2","","""event"",""trial"",""time""
""fullscreenenter"",""1"",""2140""
","
","
","""event"",""trial"",""time""
""fullscreenenter"",""1"",""2140""
","
","","","1403.3999999761581","","","20","1212","261","h","elianto","#f73b6a7A"," "," ","1","0","[2254.399999976158]","1","3","","","1212","159","3","3","lose","go","0","0"
"pit-trial","249","1810637","0.0-165.0","battery-v0.2","","""event"",""trial"",""time""
""fullscreenenter"",""1"",""2140""
","
","
","""event"",""trial"",""time""
""fullscreenenter"",""1"",""2140""
","
","","","639.5","","","20","1212","261","m","elianto","#3366ff99","-1"," ","0","0","[1490.1999999284744]","1","3","","","1212","160","0","2","win","no-go","0","0"
"pit-trial","250","1815251","0.0-166.0","battery-v0.2","","""event"",""trial"",""time""
""fullscreenenter"",""1"",""2140""
","
","
","""event"",""trial"",""time""
""fullscreenenter"",""1"",""2140""
","
","","","1755.1000000238419","","","20","1212","261","r","elianto","#3366ff99","-1"," ","0","0","[2606.2999999523163]","1","3","","","1212","161","1","2","win","no-go","0","0"
"pit-trial","251","1819555","0.0-167.0","battery-v0.2","","""event"",""trial"",""time""
""fullscreenenter"",""1"",""2140""
","
","
","""event"",""trial"",""time""
""fullscreenenter"",""1"",""2140""
","
","","","1444.6000000238419","","","20","1212","261","h","elianto","#f73b6a7A"," "," ","1","0","[2297]","1","3","","","1212","162","3","3","lose","go","0","0"
"pit-trial","252","1824416","0.0-168.0","battery-v0.2","","""event"",""trial"",""time""
""fullscreenenter"",""1"",""2140""
","
","
","""event"",""trial"",""time""
""fullscreenenter"",""1"",""2140""
","
","","","-1","","","20","1212","261","m","elianto","#3366ff99","-1","-1","1","0","[]","0","3","","","1212","163","0","2","win","no-go","1","0"
"pit-trial","253","1828424","0.0-169.0","battery-v0.2","","""event"",""trial"",""time""
""fullscreenenter"",""1"",""2140""
","
","
","""event"",""trial"",""time""
""fullscreenenter"",""1"",""2140""
","
","","","1153.6999999284744","","","20","1212","261","y","elianto","#3366ff99"," "," ","1","+10","[2004.5999999046326]","1","3","","","1212","164","2","1","win","go","0","0"
"pit-trial","254","1832724","0.0-170.0","battery-v0.2","","""event"",""trial"",""time""
""fullscreenenter"",""1"",""2140""
","
","
","""event"",""trial"",""time""
""fullscreenenter"",""1"",""2140""
","
","","","1442.3000000715256","","","20","1212","261","y","elianto","#3366ff99"," "," ","1","+10","[2292.9000000953674]","1","3","","","1212","165","2","1","win","go","0","0"
"pit-trial","255","1837088","0.0-171.0","battery-v0.2","","""event"",""trial"",""time""
""fullscreenenter"",""1"",""2140""
","
","
","""event"",""trial"",""time""
""fullscreenenter"",""1"",""2140""
","
","","","1509","","","20","1212","261","h","elianto","#f73b6a7A"," "," ","1","-10","[2359.2999999523163]","1","3","","","1212","166","3","3","lose","go","1","0"
"pit-trial","256","1841950","0.0-172.0","battery-v0.2","","""event"",""trial"",""time""
""fullscreenenter"",""1"",""2140""
","
","
","""event"",""trial"",""time""
""fullscreenenter"",""1"",""2140""
","
","","","-1","","","20","1212","261","m","elianto","#3366ff99","-1","-1","1","+10","[]","0","3","","","1212","167","0","2","win","no-go","0","0"
"pit-trial","257","1846810","0.0-173.0","battery-v0.2","","""event"",""trial"",""time""
""fullscreenenter"",""1"",""2140""
","
","
","""event"",""trial"",""time""
""fullscreenenter"",""1"",""2140""
","
","","","-1","","","20","1212","261","r","elianto","#3366ff99","-1","-1","1","+10","[]","0","3","","","1212","168","1","2","win","no-go","0","0"
"pit-trial","258","1851673","0.0-174.0","battery-v0.2","","""event"",""trial"",""time""
""fullscreenenter"",""1"",""2140""
","
","
","""event"",""trial"",""time""
""fullscreenenter"",""1"",""2140""
","
","","","-1","","","20","1212","261","m","elianto","#3366ff99","-1","-1","1","+10","[]","0","3","","","1212","169","0","2","win","no-go","0","0"
"pit-trial","259","1855503","0.0-175.0","battery-v0.2","","""event"",""trial"",""time""
""fullscreenenter"",""1"",""2140""
","
","
","""event"",""trial"",""time""
""fullscreenenter"",""1"",""2140""
","
","","","974.1999999284744","","","20","1212","261","h","elianto","#f73b6a7A"," "," ","1","0","[1824.6999999284744]","1","3","","","1212","170","3","3","lose","go","0","0"
"pit-trial","260","1859952","0.0-176.0","battery-v0.2","","""event"",""trial"",""time""
""fullscreenenter"",""1"",""2140""
","
","
","""event"",""trial"",""time""
""fullscreenenter"",""1"",""2140""
","
","","","1590.7999999523163","","","20","1212","261","y","elianto","#3366ff99"," "," ","1","+10","[2441.7000000476837]","1","3","","","1212","171","2","1","win","go","0","0"
"pit-trial","261","1864814","0.0-177.0","battery-v0.2","","""event"",""trial"",""time""
""fullscreenenter"",""1"",""2140""
","
","
","""event"",""trial"",""time""
""fullscreenenter"",""1"",""2140""
","
","","","-1","","","20","1212","261","r","elianto","#3366ff99","-1","-1","1","+10","[]","0","3","","","1212","172","1","2","win","no-go","0","0"
"pit-trial","262","1869677","0.0-178.0","battery-v0.2","","""event"",""trial"",""time""
""fullscreenenter"",""1"",""2140""
","
","
","""event"",""trial"",""time""
""fullscreenenter"",""1"",""2140""
","
","","","-1","","","20","1212","261","c","elianto","#f73b6a7A"," ","-1","0","-10","[]","0","3","","","1212","173","5","3","lose","go","0","0"
"pit-trial","263","1874197","0.0-179.0","battery-v0.2","","""event"",""trial"",""time""
""fullscreenenter"",""1"",""2140""
","
","
","""event"",""trial"",""time""
""fullscreenenter"",""1"",""2140""
","
","","","1661.3000000715256","","","20","1212","261","y","elianto","#3366ff99"," "," ","1","+10","[2513.2000000476837]","1","3","","","1212","174","2","1","win","go","0","0"
"pit-trial","264","1879056","0.0-180.0","battery-v0.2","","""event"",""trial"",""time""
""fullscreenenter"",""1"",""2140""
","
","
","""event"",""trial"",""time""
""fullscreenenter"",""1"",""2140""
","
","","","-1","","","20","1212","261","z","elianto","#f73b6a7A","-1","-1","1","0","[]","0","3","","","1212","175","4","4","lose","no-go","0","0"
"pit-trial","265","1883918","0.0-181.0","battery-v0.2","","""event"",""trial"",""time""
""fullscreenenter"",""1"",""2140""
","
","
