"trial_type","trial_index","time_elapsed","internal_node_id","task_version","subject_id","interactions","blur_events","focus_events","fullscreenenter_events","fullscreenexit_events","success","view_history","rt","responses","num_errors","age","subject","participantId","rune","rune_set","hex","correct","choice","accuracy","outcome","keys","total_keys","block","practice","value","sub","trial","stimulus","robot","valence","action","sham","browser_interactions"
"pavlovia","0","12","0.0-0.0","battery-v0.2","","""event"",""trial"",""time""
""fullscreenenter"",""1"",""2666""
","
","
","""event"",""trial"",""time""
""fullscreenenter"",""1"",""2666""
","
","","","","","","","","","","","","","","","","","","","","","","","","","","","",""
"fullscreen","1","3647","0.0-1.0","battery-v0.2","","""event"",""trial"",""time""
""fullscreenenter"",""1"",""2666""
","
","
","""event"",""trial"",""time""
""fullscreenenter"",""1"",""2666""
","
","true","","","","","","","","","","","","","","","","","","","","","","","","","","",""
"pit-instructions","2","7163","0.0-2.0-0.0","battery-v0.2","","""event"",""trial"",""time""
""fullscreenenter"",""1"",""2666""
","
","
","""event"",""trial"",""time""
""fullscreenenter"",""1"",""2666""
","
","","[{""page_index"":0,""viewing_time"":3512.7999999821186}]","3513.2999999821186","","","","","","","","","","","","","","","","","","","","","","","","",""
"pit-comprehension","3","14310","0.0-2.0-1.0-0.0","battery-v0.2","","""event"",""trial"",""time""
""fullscreenenter"",""1"",""2666""
""blur"",""4"",""16074""
""focus"",""4"",""17945""
","""event"",""trial"",""time""
""blur"",""4"",""16074""
","""event"",""trial"",""time""
""focus"",""4"",""17945""
","""event"",""trial"",""time""
""fullscreenenter"",""1"",""2666""
","
","","","7144.300000011921","[""tiger""]","1","999","999","999","","","","","","","","","","","","","","","","","","","",""
"pit-instructions","4","18012","0.0-2.0-1.0-1.0","battery-v0.2","","""event"",""trial"",""time""
""fullscreenenter"",""1"",""2666""
""blur"",""4"",""16074""
""focus"",""4"",""17945""
","""event"",""trial"",""time""
""blur"",""4"",""16074""
","""event"",""trial"",""time""
""focus"",""4"",""17945""
","""event"",""trial"",""time""
""fullscreenenter"",""1"",""2666""
","
","","[{""page_index"":0,""viewing_time"":3695.7000000178814}]","3696","","","","","","","","","","","","","","","","","","","","","","","","",""
"pit-instructions","5","18919","0.0-2.0-1.0-2.0-0.0","battery-v0.2","","""event"",""trial"",""time""
""fullscreenenter"",""1"",""2666""
""blur"",""4"",""16074""
""focus"",""4"",""17945""
","""event"",""trial"",""time""
""blur"",""4"",""16074""
","""event"",""trial"",""time""
""focus"",""4"",""17945""
","""event"",""trial"",""time""
""fullscreenenter"",""1"",""2666""
","
","","[{""page_index"":0,""viewing_time"":904.9000000059605}]","905.0999999940395","","","","","","","","","","","","","","","","","","","","","","","","",""
"pit-comprehension","6","21455","0.0-2.0-1.1-0.1","battery-v0.2","","""event"",""trial"",""time""
""fullscreenenter"",""1"",""2666""
""blur"",""4"",""16074""
""focus"",""4"",""17945""
","""event"",""trial"",""time""
""blur"",""4"",""16074""
","""event"",""trial"",""time""
""focus"",""4"",""17945""
","""event"",""trial"",""time""
""fullscreenenter"",""1"",""2666""
","
","","","2533.0999999940395","[""shark""]","0","999","999","999","","","","","","","","","","","","","","","","","","","",""
"pit-instructions","7","24128","0.0-2.0-1.1-1.1","battery-v0.2","","""event"",""trial"",""time""
""fullscreenenter"",""1"",""2666""
""blur"",""4"",""16074""
""focus"",""4"",""17945""
","""event"",""trial"",""time""
""blur"",""4"",""16074""
","""event"",""trial"",""time""
""focus"",""4"",""17945""
","""event"",""trial"",""time""
""fullscreenenter"",""1"",""2666""
","
","","[{""page_index"":0,""viewing_time"":2670.9000000059605}]","2671.199999988079","","","","","","","","","","","","","","","","","","","","","","","","",""
"pit-comprehension","8","27748","0.0-2.0-2.0-0.0","battery-v0.2","","""event"",""trial"",""time""
""fullscreenenter"",""1"",""2666""
""blur"",""4"",""16074""
""focus"",""4"",""17945""
","""event"",""trial"",""time""
""blur"",""4"",""16074""
","""event"",""trial"",""time""
""focus"",""4"",""17945""
","""event"",""trial"",""time""
""fullscreenenter"",""1"",""2666""
","
","","","3616.699999988079","[""tiger""]","0","999","999","999","","","","","","","","","","","","","","","","","","","",""
"pit-instructions","9","29209","0.0-2.0-2.0-1.0","battery-v0.2","","""event"",""trial"",""time""
""fullscreenenter"",""1"",""2666""
""blur"",""4"",""16074""
""focus"",""4"",""17945""
""blur"",""10"",""31346""
""focus"",""10"",""32172""
""fullscreenexit"",""10"",""33329""
""blur"",""10"",""34458""
""focus"",""10"",""47424""
""blur"",""10"",""113859""
""focus"",""10"",""117296""
","""event"",""trial"",""time""
""blur"",""4"",""16074""
""blur"",""10"",""31346""
""blur"",""10"",""34458""
""blur"",""10"",""113859""
","""event"",""trial"",""time""
""focus"",""4"",""17945""
""focus"",""10"",""32172""
""focus"",""10"",""47424""
""focus"",""10"",""117296""
","""event"",""trial"",""time""
""fullscreenenter"",""1"",""2666""
","""event"",""trial"",""time""
""fullscreenexit"",""10"",""33329""
","","[{""page_index"":0,""viewing_time"":1457.5999999940395}]","1457.7999999821186","","","","","","","","","","","","","","","","","","","","","","","","",""
"pit-instructions","10","155276","0.0-2.0-3.0","battery-v0.2","","""event"",""trial"",""time""
""fullscreenenter"",""1"",""2666""
""blur"",""4"",""16074""
""focus"",""4"",""17945""
""blur"",""10"",""31346""
""focus"",""10"",""32172""
""fullscreenexit"",""10"",""33329""
""blur"",""10"",""34458""
""focus"",""10"",""47424""
""blur"",""10"",""113859""
""focus"",""10"",""117296""
","""event"",""trial"",""time""
""blur"",""4"",""16074""
""blur"",""10"",""31346""
""blur"",""10"",""34458""
""blur"",""10"",""113859""
","""event"",""trial"",""time""
""focus"",""4"",""17945""
""focus"",""10"",""32172""
""focus"",""10"",""47424""
""focus"",""10"",""117296""
","""event"",""trial"",""time""
""fullscreenenter"",""1"",""2666""
","""event"",""trial"",""time""
""fullscreenexit"",""10"",""33329""
","","[{""page_index"":0,""viewing_time"":18321.69999998808},{""page_index"":1,""viewing_time"":5508.600000023842},{""page_index"":2,""viewing_time"":6249.5999999940395},{""page_index"":3,""viewing_time"":16411.29999998212},{""page_index"":4,""viewing_time"":7822.300000011921},{""page_index"":5,""viewing_time"":8510.40000000596},{""page_index"":6,""viewing_time"":5364.299999982119},{""page_index"":7,""viewing_time"":6321.600000023842},{""page_index"":8,""viewing_time"":6487.5999999940395},{""page_index"":9,""viewing_time"":7222.9000000059605},{""page_index"":10,""viewing_time"":9147.899999976158},{""page_index"":11,""viewing_time"":12930},{""page_index"":12,""viewing_time"":7301.5},{""page_index"":13,""viewing_time"":8465.5}]","126065.59999999404","","","","","","","","","","","","","","","","","","","","","","","","",""
"pit-trial","11","159750","0.0-2.0-4.0-0.0","battery-v0.2","","""event"",""trial"",""time""
""fullscreenenter"",""1"",""2666""
""blur"",""4"",""16074""
""focus"",""4"",""17945""
""blur"",""10"",""31346""
""focus"",""10"",""32172""
""fullscreenexit"",""10"",""33329""
""blur"",""10"",""34458""
""focus"",""10"",""47424""
""blur"",""10"",""113859""
""focus"",""10"",""117296""
","""event"",""trial"",""time""
""blur"",""4"",""16074""
""blur"",""10"",""31346""
""blur"",""10"",""34458""
""blur"",""10"",""113859""
","""event"",""trial"",""time""
""focus"",""4"",""17945""
""focus"",""10"",""32172""
""focus"",""10"",""47424""
""focus"",""10"",""117296""
","""event"",""trial"",""time""
""fullscreenenter"",""1"",""2666""
","""event"",""trial"",""time""
""fullscreenexit"",""10"",""33329""
","","","1617.5999999940395","","","999","999","999","&#9784;","elianto","#FFFFF080"," "," ","1","&#10004","[2470]","1","0","0","","","","","","","","",""
"pit-trial","12","164606","0.0-2.0-4.1-0.1","battery-v0.2","","""event"",""trial"",""time""
""fullscreenenter"",""1"",""2666""
""blur"",""4"",""16074""
""focus"",""4"",""17945""
""blur"",""10"",""31346""
""focus"",""10"",""32172""
""fullscreenexit"",""10"",""33329""
""blur"",""10"",""34458""
""focus"",""10"",""47424""
""blur"",""10"",""113859""
""focus"",""10"",""117296""
","""event"",""trial"",""time""
""blur"",""4"",""16074""
""blur"",""10"",""31346""
""blur"",""10"",""34458""
""blur"",""10"",""113859""
","""event"",""trial"",""time""
""focus"",""4"",""17945""
""focus"",""10"",""32172""
""focus"",""10"",""47424""
""focus"",""10"",""117296""
","""event"",""trial"",""time""
""fullscreenenter"",""1"",""2666""
","""event"",""trial"",""time""
""fullscreenexit"",""10"",""33329""
","","","-1","","","999","999","999","&#9784;","elianto","#FFFFF080"," ","-1","0","&#10060","[]","0","0","0","","","","","","","","",""
"pit-trial","13","169464","0.0-2.0-4.2-0.2","battery-v0.2","","""event"",""trial"",""time""
""fullscreenenter"",""1"",""2666""
""blur"",""4"",""16074""
""focus"",""4"",""17945""
""blur"",""10"",""31346""
""focus"",""10"",""32172""
""fullscreenexit"",""10"",""33329""
""blur"",""10"",""34458""
""focus"",""10"",""47424""
""blur"",""10"",""113859""
""focus"",""10"",""117296""
","""event"",""trial"",""time""
""blur"",""4"",""16074""
""blur"",""10"",""31346""
""blur"",""10"",""34458""
""blur"",""10"",""113859""
","""event"",""trial"",""time""
""focus"",""4"",""17945""
""focus"",""10"",""32172""
""focus"",""10"",""47424""
""focus"",""10"",""117296""
","""event"",""trial"",""time""
""fullscreenenter"",""1"",""2666""
","""event"",""trial"",""time""
""fullscreenexit"",""10"",""33329""
","","","-1","","","999","999","999","&#9784;","elianto","#FFFFF080"," ","-1","0","&#10060","[366.5]","1","0","0","","","","","","","","",""
"pit-trial","14","172997","0.0-2.0-4.3-0.3","battery-v0.2","","""event"",""trial"",""time""
""fullscreenenter"",""1"",""2666""
""blur"",""4"",""16074""
""focus"",""4"",""17945""
""blur"",""10"",""31346""
""focus"",""10"",""32172""
""fullscreenexit"",""10"",""33329""
""blur"",""10"",""34458""
""focus"",""10"",""47424""
""blur"",""10"",""113859""
""focus"",""10"",""117296""
","""event"",""trial"",""time""
""blur"",""4"",""16074""
""blur"",""10"",""31346""
""blur"",""10"",""34458""
""blur"",""10"",""113859""
","""event"",""trial"",""time""
""focus"",""4"",""17945""
""focus"",""10"",""32172""
""focus"",""10"",""47424""
""focus"",""10"",""117296""
","""event"",""trial"",""time""
""fullscreenenter"",""1"",""2666""
","""event"",""trial"",""time""
""fullscreenexit"",""10"",""33329""
","","","676.1999999880791","","","999","999","999","&#9784;","elianto","#FFFFF080"," "," ","1","&#10004","[1527.4000000059605]","1","0","0","","","","","","","","",""
"pit-trial","15","176140","0.0-2.0-4.4-0.4","battery-v0.2","","""event"",""trial"",""time""
""fullscreenenter"",""1"",""2666""
""blur"",""4"",""16074""
""focus"",""4"",""17945""
""blur"",""10"",""31346""
""focus"",""10"",""32172""
""fullscreenexit"",""10"",""33329""
""blur"",""10"",""34458""
""focus"",""10"",""47424""
""blur"",""10"",""113859""
""focus"",""10"",""117296""
","""event"",""trial"",""time""
""blur"",""4"",""16074""
""blur"",""10"",""31346""
""blur"",""10"",""34458""
""blur"",""10"",""113859""
","""event"",""trial"",""time""
""focus"",""4"",""17945""
""focus"",""10"",""32172""
""focus"",""10"",""47424""
""focus"",""10"",""117296""
","""event"",""trial"",""time""
""fullscreenenter"",""1"",""2666""
","""event"",""trial"",""time""
""fullscreenexit"",""10"",""33329""
","","","288.2999999821186","","","999","999","999","&#9784;","elianto","#FFFFF080"," "," ","1","&#10004","[1140.0999999940395]","1","0","0","","","","","","","","",""
"pit-trial","16","179414","0.0-2.0-4.5-0.5","battery-v0.2","","""event"",""trial"",""time""
""fullscreenenter"",""1"",""2666""
""blur"",""4"",""16074""
""focus"",""4"",""17945""
""blur"",""10"",""31346""
""focus"",""10"",""32172""
""fullscreenexit"",""10"",""33329""
""blur"",""10"",""34458""
""focus"",""10"",""47424""
""blur"",""10"",""113859""
""focus"",""10"",""117296""
","""event"",""trial"",""time""
""blur"",""4"",""16074""
""blur"",""10"",""31346""
""blur"",""10"",""34458""
""blur"",""10"",""113859""
","""event"",""trial"",""time""
""focus"",""4"",""17945""
""focus"",""10"",""32172""
""focus"",""10"",""47424""
""focus"",""10"",""117296""
","""event"",""trial"",""time""
""fullscreenenter"",""1"",""2666""
","""event"",""trial"",""time""
""fullscreenexit"",""10"",""33329""
","","","419.69999998807907","","","999","999","999","&#9784;","elianto","#FFFFF080"," "," ","1","&#10004","[1270.9000000059605]","1","0","0","","","","","","","","",""
"pit-instructions","17","210196","0.0-2.0-5.0","battery-v0.2","","""event"",""trial"",""time""
""fullscreenenter"",""1"",""2666""
""blur"",""4"",""16074""
""focus"",""4"",""17945""
""blur"",""10"",""31346""
""focus"",""10"",""32172""
""fullscreenexit"",""10"",""33329""
""blur"",""10"",""34458""
""focus"",""10"",""47424""
""blur"",""10"",""113859""
""focus"",""10"",""117296""
","""event"",""trial"",""time""
""blur"",""4"",""16074""
""blur"",""10"",""31346""
""blur"",""10"",""34458""
""blur"",""10"",""113859""
","""event"",""trial"",""time""
""focus"",""4"",""17945""
""focus"",""10"",""32172""
""focus"",""10"",""47424""
""focus"",""10"",""117296""
","""event"",""trial"",""time""
""fullscreenenter"",""1"",""2666""
","""event"",""trial"",""time""
""fullscreenexit"",""10"",""33329""
","","[{""page_index"":0,""viewing_time"":13192.899999976158},{""page_index"":1,""viewing_time"":5295.600000023842},{""page_index"":2,""viewing_time"":4531.299999982119},{""page_index"":3,""viewing_time"":7758.800000011921}]","30778.79999998212","","","","","","","","","","","","","","","","","","","","","","","","",""
"pit-trial","18","215056","0.0-2.0-6.0-0.0","battery-v0.2","","""event"",""trial"",""time""
""fullscreenenter"",""1"",""2666""
""blur"",""4"",""16074""
""focus"",""4"",""17945""
""blur"",""10"",""31346""
""focus"",""10"",""32172""
""fullscreenexit"",""10"",""33329""
""blur"",""10"",""34458""
""focus"",""10"",""47424""
""blur"",""10"",""113859""
""focus"",""10"",""117296""
","""event"",""trial"",""time""
""blur"",""4"",""16074""
""blur"",""10"",""31346""
""blur"",""10"",""34458""
""blur"",""10"",""113859""
","""event"",""trial"",""time""
""focus"",""4"",""17945""
""focus"",""10"",""32172""
""focus"",""10"",""47424""
""focus"",""10"",""117296""
","""event"",""trial"",""time""
""fullscreenenter"",""1"",""2666""
","""event"",""trial"",""time""
""fullscreenexit"",""10"",""33329""
","","","-1","","","999","999","999","&#9854;","elianto","#FFFFF080","-1","-1","1","&#10004","[]","0","0","1","","","","","","","","",""
"pit-trial","19","219909","0.0-2.0-6.1-0.1","battery-v0.2","","""event"",""trial"",""time""
""fullscreenenter"",""1"",""2666""
""blur"",""4"",""16074""
""focus"",""4"",""17945""
""blur"",""10"",""31346""
""focus"",""10"",""32172""
""fullscreenexit"",""10"",""33329""
""blur"",""10"",""34458""
""focus"",""10"",""47424""
""blur"",""10"",""113859""
""focus"",""10"",""117296""
","""event"",""trial"",""time""
""blur"",""4"",""16074""
""blur"",""10"",""31346""
""blur"",""10"",""34458""
""blur"",""10"",""113859""
","""event"",""trial"",""time""
""focus"",""4"",""17945""
""focus"",""10"",""32172""
""focus"",""10"",""47424""
""focus"",""10"",""117296""
","""event"",""trial"",""time""
""fullscreenenter"",""1"",""2666""
","""event"",""trial"",""time""
""fullscreenexit"",""10"",""33329""
","","","-1","","","999","999","999","&#9854;","elianto","#FFFFF080","-1","-1","1","&#10004","[]","0","0","1","","","","","","","","",""
"pit-trial","20","224763","0.0-2.0-6.2-0.2","battery-v0.2","","""event"",""trial"",""time""
""fullscreenenter"",""1"",""2666""
""blur"",""4"",""16074""
""focus"",""4"",""17945""
""blur"",""10"",""31346""
""focus"",""10"",""32172""
""fullscreenexit"",""10"",""33329""
""blur"",""10"",""34458""
""focus"",""10"",""47424""
""blur"",""10"",""113859""
""focus"",""10"",""117296""
","""event"",""trial"",""time""
""blur"",""4"",""16074""
""blur"",""10"",""31346""
""blur"",""10"",""34458""
""blur"",""10"",""113859""
","""event"",""trial"",""time""
""focus"",""4"",""17945""
""focus"",""10"",""32172""
""focus"",""10"",""47424""
""focus"",""10"",""117296""
","""event"",""trial"",""time""
""fullscreenenter"",""1"",""2666""
","""event"",""trial"",""time""
""fullscreenexit"",""10"",""33329""
","","","-1","","","999","999","999","&#9854;","elianto","#FFFFF080","-1","-1","1","&#10004","[]","0","0","1","","","","","","","","",""
"pit-trial","21","229619","0.0-2.0-6.3-0.3","battery-v0.2","","""event"",""trial"",""time""
""fullscreenenter"",""1"",""2666""
""blur"",""4"",""16074""
""focus"",""4"",""17945""
""blur"",""10"",""31346""
""focus"",""10"",""32172""
""fullscreenexit"",""10"",""33329""
""blur"",""10"",""34458""
""focus"",""10"",""47424""
""blur"",""10"",""113859""
""focus"",""10"",""117296""
","""event"",""trial"",""time""
""blur"",""4"",""16074""
""blur"",""10"",""31346""
""blur"",""10"",""34458""
""blur"",""10"",""113859""
","""event"",""trial"",""time""
""focus"",""4"",""17945""
""focus"",""10"",""32172""
""focus"",""10"",""47424""
""focus"",""10"",""117296""
","""event"",""trial"",""time""
""fullscreenenter"",""1"",""2666""
","""event"",""trial"",""time""
""fullscreenexit"",""10"",""33329""
","","","-1","","","999","999","999","&#9854;","elianto","#FFFFF080","-1","-1","1","&#10004","[]","0","0","1","","","","","","","","",""
"pit-trial","22","234471","0.0-2.0-6.4-0.4","battery-v0.2","","""event"",""trial"",""time""
""fullscreenenter"",""1"",""2666""
""blur"",""4"",""16074""
""focus"",""4"",""17945""
""blur"",""10"",""31346""
""focus"",""10"",""32172""
""fullscreenexit"",""10"",""33329""
""blur"",""10"",""34458""
""focus"",""10"",""47424""
""blur"",""10"",""113859""
""focus"",""10"",""117296""
","""event"",""trial"",""time""
""blur"",""4"",""16074""
""blur"",""10"",""31346""
""blur"",""10"",""34458""
""blur"",""10"",""113859""
","""event"",""trial"",""time""
""focus"",""4"",""17945""
""focus"",""10"",""32172""
""focus"",""10"",""47424""
""focus"",""10"",""117296""
","""event"",""trial"",""time""
""fullscreenenter"",""1"",""2666""
","""event"",""trial"",""time""
""fullscreenexit"",""10"",""33329""
","","","-1","","","999","999","999","&#9854;","elianto","#FFFFF080","-1","-1","1","&#10004","[]","0","0","1","","","","","","","","",""
"pit-instructions","23","424567","0.0-2.0-7.0","battery-v0.2","","""event"",""trial"",""time""
""fullscreenenter"",""1"",""2666""
""blur"",""4"",""16074""
""focus"",""4"",""17945""
""blur"",""10"",""31346""
""focus"",""10"",""32172""
""fullscreenexit"",""10"",""33329""
""blur"",""10"",""34458""
""focus"",""10"",""47424""
""blur"",""10"",""113859""
""focus"",""10"",""117296""
","""event"",""trial"",""time""
""blur"",""4"",""16074""
""blur"",""10"",""31346""
""blur"",""10"",""34458""
""blur"",""10"",""113859""
","""event"",""trial"",""time""
""focus"",""4"",""17945""
""focus"",""10"",""32172""
""focus"",""10"",""47424""
""focus"",""10"",""117296""
","""event"",""trial"",""time""
""fullscreenenter"",""1"",""2666""
","""event"",""trial"",""time""
""fullscreenexit"",""10"",""33329""
","","[{""page_index"":0,""viewing_time"":5707.199999988079},{""page_index"":1,""viewing_time"":29558.59999999404},{""page_index"":2,""viewing_time"":8280.40000000596},{""page_index"":3,""viewing_time"":7826.300000011921},{""page_index"":4,""viewing_time"":6113.5},{""page_index"":5,""viewing_time"":7558.5},{""page_index"":6,""viewing_time"":6644.5999999940395},{""page_index"":7,""viewing_time"":8070.5999999940395},{""page_index"":8,""viewing_time"":6430.0999999940395},{""page_index"":9,""viewing_time"":6253.100000023842},{""page_index"":10,""viewing_time"":6693.199999988079},{""page_index"":11,""viewing_time"":8435.199999988079},{""page_index"":12,""viewing_time"":27957.20000001788},{""page_index"":13,""viewing_time"":19647},{""page_index"":14,""viewing_time"":10352.299999982119},{""page_index"":15,""viewing_time"":7728.800000011921},{""page_index"":16,""viewing_time"":10777.90000000596},{""page_index"":17,""viewing_time"":6059.9000000059605}]","190094.79999998212","","","","","","","","","","","","","","","","","","","","","","","","",""
"pit-trial","24","427982","0.0-2.0-8.0-0.0","battery-v0.2","","""event"",""trial"",""time""
""fullscreenenter"",""1"",""2666""
""blur"",""4"",""16074""
""focus"",""4"",""17945""
""blur"",""10"",""31346""
""focus"",""10"",""32172""
""fullscreenexit"",""10"",""33329""
""blur"",""10"",""34458""
""focus"",""10"",""47424""
""blur"",""10"",""113859""
""focus"",""10"",""117296""
","""event"",""trial"",""time""
""blur"",""4"",""16074""
""blur"",""10"",""31346""
""blur"",""10"",""34458""
""blur"",""10"",""113859""
","""event"",""trial"",""time""
""focus"",""4"",""17945""
""focus"",""10"",""32172""
""focus"",""10"",""47424""
""focus"",""10"",""117296""
","""event"",""trial"",""time""
""fullscreenenter"",""1"",""2666""
","""event"",""trial"",""time""
""fullscreenexit"",""10"",""33329""
","","","558.1999999880791","","","999","999","999","&#9776;","elianto","#3366ff99"," "," ","1","+10","[1408.300000011921]","1","0","1","","","","","","","","",""
"pit-trial","25","430951","0.0-2.0-8.0-1.0","battery-v0.2","","""event"",""trial"",""time""
""fullscreenenter"",""1"",""2666""
""blur"",""4"",""16074""
""focus"",""4"",""17945""
""blur"",""10"",""31346""
""focus"",""10"",""32172""
""fullscreenexit"",""10"",""33329""
""blur"",""10"",""34458""
""focus"",""10"",""47424""
""blur"",""10"",""113859""
""focus"",""10"",""117296""
","""event"",""trial"",""time""
""blur"",""4"",""16074""
""blur"",""10"",""31346""
""blur"",""10"",""34458""
""blur"",""10"",""113859""
","""event"",""trial"",""time""
""focus"",""4"",""17945""
""focus"",""10"",""32172""
""focus"",""10"",""47424""
""focus"",""10"",""117296""
","""event"",""trial"",""time""
""fullscreenenter"",""1"",""2666""
","""event"",""trial"",""time""
""fullscreenexit"",""10"",""33329""
","","","114.09999999403954","","","999","999","999","&#9776;","elianto","#3366ff99"," "," ","1","+10","[966.3000000119209]","1","0","1","","","","","","","","",""
"pit-trial","26","434289","0.0-2.0-8.0-2.0","battery-v0.2","","""event"",""trial"",""time""
""fullscreenenter"",""1"",""2666""
""blur"",""4"",""16074""
""focus"",""4"",""17945""
""blur"",""10"",""31346""
""focus"",""10"",""32172""
""fullscreenexit"",""10"",""33329""
""blur"",""10"",""34458""
""focus"",""10"",""47424""
""blur"",""10"",""113859""
""focus"",""10"",""117296""
","""event"",""trial"",""time""
""blur"",""4"",""16074""
""blur"",""10"",""31346""
""blur"",""10"",""34458""
""blur"",""10"",""113859""
","""event"",""trial"",""time""
""focus"",""4"",""17945""
""focus"",""10"",""32172""
""focus"",""10"",""47424""
""focus"",""10"",""117296""
","""event"",""trial"",""time""
""fullscreenenter"",""1"",""2666""
","""event"",""trial"",""time""
""fullscreenexit"",""10"",""33329""
","","","485.5","","","999","999","999","&#9776;","elianto","#3366ff99"," "," ","1","+10","[1335.5]","1","0","1","","","","","","","","",""
"pit-trial","27","437360","0.0-2.0-8.0-3.0","battery-v0.2","","""event"",""trial"",""time""
""fullscreenenter"",""1"",""2666""
""blur"",""4"",""16074""
""focus"",""4"",""17945""
""blur"",""10"",""31346""
""focus"",""10"",""32172""
""fullscreenexit"",""10"",""33329""
""blur"",""10"",""34458""
""focus"",""10"",""47424""
""blur"",""10"",""113859""
""focus"",""10"",""117296""
","""event"",""trial"",""time""
""blur"",""4"",""16074""
""blur"",""10"",""31346""
""blur"",""10"",""34458""
""blur"",""10"",""113859""
","""event"",""trial"",""time""
""focus"",""4"",""17945""
""focus"",""10"",""32172""
""focus"",""10"",""47424""
""focus"",""10"",""117296""
","""event"",""trial"",""time""
""fullscreenenter"",""1"",""2666""
","""event"",""trial"",""time""
""fullscreenexit"",""10"",""33329""
","","","215.7000000178814","","","999","999","999","&#9776;","elianto","#3366ff99"," "," ","1","0","[1066.7000000178814]","1","0","1","","","","","","","","",""
"pit-trial","28","442216","0.0-2.0-8.0-4.0","battery-v0.2","","""event"",""trial"",""time""
""fullscreenenter"",""1"",""2666""
""blur"",""4"",""16074""
""focus"",""4"",""17945""
""blur"",""10"",""31346""
""focus"",""10"",""32172""
""fullscreenexit"",""10"",""33329""
""blur"",""10"",""34458""
""focus"",""10"",""47424""
""blur"",""10"",""113859""
""focus"",""10"",""117296""
","""event"",""trial"",""time""
""blur"",""4"",""16074""
""blur"",""10"",""31346""
""blur"",""10"",""34458""
""blur"",""10"",""113859""
","""event"",""trial"",""time""
""focus"",""4"",""17945""
""focus"",""10"",""32172""
""focus"",""10"",""47424""
""focus"",""10"",""117296""
","""event"",""trial"",""time""
""fullscreenenter"",""1"",""2666""
","""event"",""trial"",""time""
""fullscreenexit"",""10"",""33329""
","","","-1","","","999","999","999","&#9776;","elianto","#3366ff99"," ","-1","0","0","[3066.699999988079]","1","0","1","","","","","","","","",""
"pit-trial","29","446471","0.0-2.0-8.1-0.1","battery-v0.2","","""event"",""trial"",""time""
""fullscreenenter"",""1"",""2666""
""blur"",""4"",""16074""
""focus"",""4"",""17945""
""blur"",""10"",""31346""
""focus"",""10"",""32172""
""fullscreenexit"",""10"",""33329""
""blur"",""10"",""34458""
""focus"",""10"",""47424""
""blur"",""10"",""113859""
""focus"",""10"",""117296""
","""event"",""trial"",""time""
""blur"",""4"",""16074""
""blur"",""10"",""31346""
""blur"",""10"",""34458""
""blur"",""10"",""113859""
","""event"",""trial"",""time""
""focus"",""4"",""17945""
""focus"",""10"",""32172""
""focus"",""10"",""47424""
""focus"",""10"",""117296""
","""event"",""trial"",""time""
""fullscreenenter"",""1"",""2666""
","""event"",""trial"",""time""
""fullscreenexit"",""10"",""33329""
","","","1401.5","","","999","999","999","&#9776;","elianto","#3366ff99"," "," ","1","+10","[2252.7999999821186]","1","0","1","","","","","","","","",""
"pit-trial","30","449873","0.0-2.0-8.1-1.1","battery-v0.2","","""event"",""trial"",""time""
""fullscreenenter"",""1"",""2666""
""blur"",""4"",""16074""
""focus"",""4"",""17945""
""blur"",""10"",""31346""
""focus"",""10"",""32172""
""fullscreenexit"",""10"",""33329""
""blur"",""10"",""34458""
""focus"",""10"",""47424""
""blur"",""10"",""113859""
""focus"",""10"",""117296""
","""event"",""trial"",""time""
""blur"",""4"",""16074""
""blur"",""10"",""31346""
""blur"",""10"",""34458""
""blur"",""10"",""113859""
","""event"",""trial"",""time""
""focus"",""4"",""17945""
""focus"",""10"",""32172""
""focus"",""10"",""47424""
""focus"",""10"",""117296""
","""event"",""trial"",""time""
""fullscreenenter"",""1"",""2666""
","""event"",""trial"",""time""
""fullscreenexit"",""10"",""33329""
","","","549.3999999761581","","","999","999","999","&#9776;","elianto","#3366ff99"," "," ","1","+10","[1399.7999999821186]","1","0","1","","","","","","","","",""
"pit-trial","31","453118","0.0-2.0-8.1-2.1","battery-v0.2","","""event"",""trial"",""time""
""fullscreenenter"",""1"",""2666""
""blur"",""4"",""16074""
""focus"",""4"",""17945""
""blur"",""10"",""31346""
""focus"",""10"",""32172""
""fullscreenexit"",""10"",""33329""
""blur"",""10"",""34458""
""focus"",""10"",""47424""
""blur"",""10"",""113859""
""focus"",""10"",""117296""
","""event"",""trial"",""time""
""blur"",""4"",""16074""
""blur"",""10"",""31346""
""blur"",""10"",""34458""
""blur"",""10"",""113859""
","""event"",""trial"",""time""
""focus"",""4"",""17945""
""focus"",""10"",""32172""
""focus"",""10"",""47424""
""focus"",""10"",""117296""
","""event"",""trial"",""time""
""fullscreenenter"",""1"",""2666""
","""event"",""trial"",""time""
""fullscreenexit"",""10"",""33329""
","","","391.2000000178814","","","999","999","999","&#9776;","elianto","#3366ff99"," "," ","1","+10","[1241.5999999940395]","1","0","1","","","","","","","","",""
"pit-trial","32","456117","0.0-2.0-8.1-3.1","battery-v0.2","","""event"",""trial"",""time""
""fullscreenenter"",""1"",""2666""
""blur"",""4"",""16074""
""focus"",""4"",""17945""
""blur"",""10"",""31346""
""focus"",""10"",""32172""
""fullscreenexit"",""10"",""33329""
""blur"",""10"",""34458""
""focus"",""10"",""47424""
""blur"",""10"",""113859""
""focus"",""10"",""117296""
","""event"",""trial"",""time""
""blur"",""4"",""16074""
""blur"",""10"",""31346""
""blur"",""10"",""34458""
""blur"",""10"",""113859""
","""event"",""trial"",""time""
""focus"",""4"",""17945""
""focus"",""10"",""32172""
""focus"",""10"",""47424""
""focus"",""10"",""117296""
","""event"",""trial"",""time""
""fullscreenenter"",""1"",""2666""
","""event"",""trial"",""time""
""fullscreenexit"",""10"",""33329""
","","","141.89999997615814","","","999","999","999","&#9776;","elianto","#3366ff99"," "," ","1","0","[993.6999999880791]","1","0","1","","","","","","","","",""
"pit-trial","33","459055","0.0-2.0-8.1-4.1","battery-v0.2","","""event"",""trial"",""time""
""fullscreenenter"",""1"",""2666""
""blur"",""4"",""16074""
""focus"",""4"",""17945""
""blur"",""10"",""31346""
""focus"",""10"",""32172""
""fullscreenexit"",""10"",""33329""
""blur"",""10"",""34458""
""focus"",""10"",""47424""
""blur"",""10"",""113859""
""focus"",""10"",""117296""
","""event"",""trial"",""time""
""blur"",""4"",""16074""
""blur"",""10"",""31346""
""blur"",""10"",""34458""
""blur"",""10"",""113859""
","""event"",""trial"",""time""
""focus"",""4"",""17945""
""focus"",""10"",""32172""
""focus"",""10"",""47424""
""focus"",""10"",""117296""
","""event"",""trial"",""time""
""fullscreenenter"",""1"",""2666""
","""event"",""trial"",""time""
""fullscreenexit"",""10"",""33329""
","","","77.80000001192093","","","999","999","999","&#9776;","elianto","#3366ff99"," "," ","1","+10","[930.2999999821186]","1","0","1","","","","","","","","",""
"call-function","34","459058","0.0-2.0-9.0","battery-v0.2","","""event"",""trial"",""time""
""fullscreenenter"",""1"",""2666""
""blur"",""4"",""16074""
""focus"",""4"",""17945""
""blur"",""10"",""31346""
""focus"",""10"",""32172""
""fullscreenexit"",""10"",""33329""
""blur"",""10"",""34458""
""focus"",""10"",""47424""
""blur"",""10"",""113859""
""focus"",""10"",""117296""
","""event"",""trial"",""time""
""blur"",""4"",""16074""
""blur"",""10"",""31346""
""blur"",""10"",""34458""
""blur"",""10"",""113859""
","""event"",""trial"",""time""
""focus"",""4"",""17945""
""focus"",""10"",""32172""
""focus"",""10"",""47424""
""focus"",""10"",""117296""
","""event"",""trial"",""time""
""fullscreenenter"",""1"",""2666""
","""event"",""trial"",""time""
""fullscreenexit"",""10"",""33329""
","","","","","","","","","","","","","","","","","","","","","","","","","","","",""
"pit-instructions","35","499229","0.0-2.0-10.0","battery-v0.2","","""event"",""trial"",""time""
""fullscreenenter"",""1"",""2666""
""blur"",""4"",""16074""
""focus"",""4"",""17945""
""blur"",""10"",""31346""
""focus"",""10"",""32172""
""fullscreenexit"",""10"",""33329""
""blur"",""10"",""34458""
""focus"",""10"",""47424""
""blur"",""10"",""113859""
""focus"",""10"",""117296""
","""event"",""trial"",""time""
""blur"",""4"",""16074""
""blur"",""10"",""31346""
""blur"",""10"",""34458""
""blur"",""10"",""113859""
","""event"",""trial"",""time""
""focus"",""4"",""17945""
""focus"",""10"",""32172""
""focus"",""10"",""47424""
""focus"",""10"",""117296""
","""event"",""trial"",""time""
""fullscreenenter"",""1"",""2666""
","""event"",""trial"",""time""
""fullscreenexit"",""10"",""33329""
","","[{""page_index"":0,""viewing_time"":5632},{""page_index"":1,""viewing_time"":6977.799999982119},{""page_index"":2,""viewing_time"":9941.700000017881},{""page_index"":3,""viewing_time"":9822.799999982119},{""page_index"":4,""viewing_time"":7794.800000011921}]","40169.5","","","","","","","","","","","","","","","","","","","","","","","","",""
"pit-trial","36","504085","0.0-2.0-11.0-0.0","battery-v0.2","","""event"",""trial"",""time""
""fullscreenenter"",""1"",""2666""
""blur"",""4"",""16074""
""focus"",""4"",""17945""
""blur"",""10"",""31346""
""focus"",""10"",""32172""
""fullscreenexit"",""10"",""33329""
""blur"",""10"",""34458""
""focus"",""10"",""47424""
""blur"",""10"",""113859""
""focus"",""10"",""117296""
","""event"",""trial"",""time""
""blur"",""4"",""16074""
""blur"",""10"",""31346""
""blur"",""10"",""34458""
""blur"",""10"",""113859""
","""event"",""trial"",""time""
""focus"",""4"",""17945""
""focus"",""10"",""32172""
""focus"",""10"",""47424""
""focus"",""10"",""117296""
","""event"",""trial"",""time""
""fullscreenenter"",""1"",""2666""
","""event"",""trial"",""time""
""fullscreenexit"",""10"",""33329""
","","","-1","","","999","999","999","&#9761;","elianto","#3366ff99","-1","-1","1","+10","[]","0","0","2","","","","","","","","",""
"pit-trial","37","508942","0.0-2.0-11.0-1.0","battery-v0.2","","""event"",""trial"",""time""
""fullscreenenter"",""1"",""2666""
""blur"",""4"",""16074""
""focus"",""4"",""17945""
""blur"",""10"",""31346""
""focus"",""10"",""32172""
""fullscreenexit"",""10"",""33329""
""blur"",""10"",""34458""
""focus"",""10"",""47424""
""blur"",""10"",""113859""
""focus"",""10"",""117296""
","""event"",""trial"",""time""
""blur"",""4"",""16074""
""blur"",""10"",""31346""
""blur"",""10"",""34458""
""blur"",""10"",""113859""
","""event"",""trial"",""time""
""focus"",""4"",""17945""
""focus"",""10"",""32172""
""focus"",""10"",""47424""
""focus"",""10"",""117296""
","""event"",""trial"",""time""
""fullscreenenter"",""1"",""2666""
","""event"",""trial"",""time""
""fullscreenexit"",""10"",""33329""
","","","-1","","","999","999","999","&#9761;","elianto","#3366ff99","-1","-1","1","+10","[]","0","0","2","","","","","","","","",""
"pit-trial","38","513798","0.0-2.0-11.0-2.0","battery-v0.2","","""event"",""trial"",""time""
""fullscreenenter"",""1"",""2666""
""blur"",""4"",""16074""
""focus"",""4"",""17945""
""blur"",""10"",""31346""
""focus"",""10"",""32172""
""fullscreenexit"",""10"",""33329""
""blur"",""10"",""34458""
""focus"",""10"",""47424""
""blur"",""10"",""113859""
""focus"",""10"",""117296""
","""event"",""trial"",""time""
""blur"",""4"",""16074""
""blur"",""10"",""31346""
""blur"",""10"",""34458""
""blur"",""10"",""113859""
","""event"",""trial"",""time""
""focus"",""4"",""17945""
""focus"",""10"",""32172""
""focus"",""10"",""47424""
""focus"",""10"",""117296""
","""event"",""trial"",""time""
""fullscreenenter"",""1"",""2666""
","""event"",""trial"",""time""
""fullscreenexit"",""10"",""33329""
","","","-1","","","999","999","999","&#9761;","elianto","#3366ff99","-1","-1","1","+10","[]","0","0","2","","","","","","","","",""
"pit-trial","39","518651","0.0-2.0-11.0-3.0","battery-v0.2","","""event"",""trial"",""time""
""fullscreenenter"",""1"",""2666""
""blur"",""4"",""16074""
""focus"",""4"",""17945""
""blur"",""10"",""31346""
""focus"",""10"",""32172""
""fullscreenexit"",""10"",""33329""
""blur"",""10"",""34458""
""focus"",""10"",""47424""
""blur"",""10"",""113859""
""focus"",""10"",""117296""
","""event"",""trial"",""time""
""blur"",""4"",""16074""
""blur"",""10"",""31346""
""blur"",""10"",""34458""
""blur"",""10"",""113859""
","""event"",""trial"",""time""
""focus"",""4"",""17945""
""focus"",""10"",""32172""
""focus"",""10"",""47424""
""focus"",""10"",""117296""
","""event"",""trial"",""time""
""fullscreenenter"",""1"",""2666""
","""event"",""trial"",""time""
""fullscreenexit"",""10"",""33329""
","","","-1","","","999","999","999","&#9761;","elianto","#3366ff99","-1","-1","1","0","[]","0","0","2","","","","","","","","",""
"pit-trial","40","523506","0.0-2.0-11.0-4.0","battery-v0.2","","""event"",""trial"",""time""
""fullscreenenter"",""1"",""2666""
""blur"",""4"",""16074""
""focus"",""4"",""17945""
""blur"",""10"",""31346""
""focus"",""10"",""32172""
""fullscreenexit"",""10"",""33329""
""blur"",""10"",""34458""
""focus"",""10"",""47424""
""blur"",""10"",""113859""
""focus"",""10"",""117296""
","""event"",""trial"",""time""
""blur"",""4"",""16074""
""blur"",""10"",""31346""
""blur"",""10"",""34458""
""blur"",""10"",""113859""
","""event"",""trial"",""time""
""focus"",""4"",""17945""
""focus"",""10"",""32172""
""focus"",""10"",""47424""
""focus"",""10"",""117296""
","""event"",""trial"",""time""
""fullscreenenter"",""1"",""2666""
","""event"",""trial"",""time""
""fullscreenexit"",""10"",""33329""
","","","-1","","","999","999","999","&#9761;","elianto","#3366ff99","-1","-1","1","+10","[]","0","0","2","","","","","","","","",""
"call-function","41","523508","0.0-2.0-12.0","battery-v0.2","","""event"",""trial"",""time""
""fullscreenenter"",""1"",""2666""
""blur"",""4"",""16074""
""focus"",""4"",""17945""
""blur"",""10"",""31346""
""focus"",""10"",""32172""
""fullscreenexit"",""10"",""33329""
""blur"",""10"",""34458""
""focus"",""10"",""47424""
""blur"",""10"",""113859""
""focus"",""10"",""117296""
","""event"",""trial"",""time""
""blur"",""4"",""16074""
""blur"",""10"",""31346""
""blur"",""10"",""34458""
""blur"",""10"",""113859""
","""event"",""trial"",""time""
""focus"",""4"",""17945""
""focus"",""10"",""32172""
""focus"",""10"",""47424""
""focus"",""10"",""117296""
","""event"",""trial"",""time""
""fullscreenenter"",""1"",""2666""
","""event"",""trial"",""time""
""fullscreenexit"",""10"",""33329""
","","","","","","","","","","","","","","","","","","","","","","","","","","","",""
"pit-instructions","42","569970","0.0-2.0-13.0","battery-v0.2","","""event"",""trial"",""time""
""fullscreenenter"",""1"",""2666""
""blur"",""4"",""16074""
""focus"",""4"",""17945""
""blur"",""10"",""31346""
""focus"",""10"",""32172""
""fullscreenexit"",""10"",""33329""
""blur"",""10"",""34458""
""focus"",""10"",""47424""
""blur"",""10"",""113859""
""focus"",""10"",""117296""
","""event"",""trial"",""time""
""blur"",""4"",""16074""
""blur"",""10"",""31346""
""blur"",""10"",""34458""
""blur"",""10"",""113859""
","""event"",""trial"",""time""
""focus"",""4"",""17945""
""focus"",""10"",""32172""
""focus"",""10"",""47424""
""focus"",""10"",""117296""
","""event"",""trial"",""time""
""fullscreenenter"",""1"",""2666""
","""event"",""trial"",""time""
""fullscreenexit"",""10"",""33329""
","","[{""page_index"":0,""viewing_time"":15777.59999999404},{""page_index"":1,""viewing_time"":8480.90000000596},{""page_index"":2,""viewing_time"":4233.0999999940395},{""page_index"":3,""viewing_time"":12876.40000000596},{""page_index"":4,""viewing_time"":5093.5999999940395}]","46461.90000000596","","","","","","","","","","","","","","","","","","","","","","","","",""
"pit-trial","43","573105","0.0-2.0-14.0-0.0","battery-v0.2","","""event"",""trial"",""time""
""fullscreenenter"",""1"",""2666""
""blur"",""4"",""16074""
""focus"",""4"",""17945""
""blur"",""10"",""31346""
""focus"",""10"",""32172""
""fullscreenexit"",""10"",""33329""
""blur"",""10"",""34458""
""focus"",""10"",""47424""
""blur"",""10"",""113859""
""focus"",""10"",""117296""
","""event"",""trial"",""time""
""blur"",""4"",""16074""
""blur"",""10"",""31346""
""blur"",""10"",""34458""
""blur"",""10"",""113859""
","""event"",""trial"",""time""
""focus"",""4"",""17945""
""focus"",""10"",""32172""
""focus"",""10"",""47424""
""focus"",""10"",""117296""
","""event"",""trial"",""time""
""fullscreenenter"",""1"",""2666""
","""event"",""trial"",""time""
""fullscreenexit"",""10"",""33329""
","","","282.09999999403954","","","999","999","999","&#9826;","elianto","#f73b6a7A","-1"," ","0","-10","[1132.699999988079]","1","0","3","","","","","","","","",""
"pit-trial","44","577963","0.0-2.0-14.0-1.0","battery-v0.2","","""event"",""trial"",""time""
""fullscreenenter"",""1"",""2666""
""blur"",""4"",""16074""
""focus"",""4"",""17945""
""blur"",""10"",""31346""
""focus"",""10"",""32172""
""fullscreenexit"",""10"",""33329""
""blur"",""10"",""34458""
""focus"",""10"",""47424""
""blur"",""10"",""113859""
""focus"",""10"",""117296""
","""event"",""trial"",""time""
""blur"",""4"",""16074""
""blur"",""10"",""31346""
""blur"",""10"",""34458""
""blur"",""10"",""113859""
","""event"",""trial"",""time""
""focus"",""4"",""17945""
""focus"",""10"",""32172""
""focus"",""10"",""47424""
""focus"",""10"",""117296""
","""event"",""trial"",""time""
""fullscreenenter"",""1"",""2666""
","""event"",""trial"",""time""
""fullscreenexit"",""10"",""33329""
","","","-1","","","999","999","999","&#9826;","elianto","#f73b6a7A","-1","-1","1","0","[]","0","0","3","","","","","","","","",""
"pit-trial","45","582817","0.0-2.0-14.0-2.0","battery-v0.2","","""event"",""trial"",""time""
""fullscreenenter"",""1"",""2666""
""blur"",""4"",""16074""
""focus"",""4"",""17945""
""blur"",""10"",""31346""
""focus"",""10"",""32172""
""fullscreenexit"",""10"",""33329""
""blur"",""10"",""34458""
""focus"",""10"",""47424""
""blur"",""10"",""113859""
""focus"",""10"",""117296""
","""event"",""trial"",""time""
""blur"",""4"",""16074""
""blur"",""10"",""31346""
""blur"",""10"",""34458""
""blur"",""10"",""113859""
","""event"",""trial"",""time""
""focus"",""4"",""17945""
""focus"",""10"",""32172""
""focus"",""10"",""47424""
""focus"",""10"",""117296""
","""event"",""trial"",""time""
""fullscreenenter"",""1"",""2666""
","""event"",""trial"",""time""
""fullscreenexit"",""10"",""33329""
","","","-1","","","999","999","999","&#9826;","elianto","#f73b6a7A","-1","-1","1","0","[]","0","0","3","","","","","","","","",""
"pit-trial","46","587675","0.0-2.0-14.0-3.0","battery-v0.2","","""event"",""trial"",""time""
""fullscreenenter"",""1"",""2666""
""blur"",""4"",""16074""
""focus"",""4"",""17945""
""blur"",""10"",""31346""
""focus"",""10"",""32172""
""fullscreenexit"",""10"",""33329""
""blur"",""10"",""34458""
""focus"",""10"",""47424""
""blur"",""10"",""113859""
""focus"",""10"",""117296""
","""event"",""trial"",""time""
""blur"",""4"",""16074""
""blur"",""10"",""31346""
""blur"",""10"",""34458""
""blur"",""10"",""113859""
","""event"",""trial"",""time""
""focus"",""4"",""17945""
""focus"",""10"",""32172""
""focus"",""10"",""47424""
""focus"",""10"",""117296""
","""event"",""trial"",""time""
""fullscreenenter"",""1"",""2666""
","""event"",""trial"",""time""
""fullscreenexit"",""10"",""33329""
","","","-1","","","999","999","999","&#9826;","elianto","#f73b6a7A","-1","-1","1","-10","[]","0","0","3","","","","","","","","",""
"pit-trial","47","592531","0.0-2.0-14.0-4.0","battery-v0.2","","""event"",""trial"",""time""
""fullscreenenter"",""1"",""2666""
""blur"",""4"",""16074""
""focus"",""4"",""17945""
""blur"",""10"",""31346""
""focus"",""10"",""32172""
""fullscreenexit"",""10"",""33329""
""blur"",""10"",""34458""
""focus"",""10"",""47424""
""blur"",""10"",""113859""
""focus"",""10"",""117296""
","""event"",""trial"",""time""
""blur"",""4"",""16074""
""blur"",""10"",""31346""
""blur"",""10"",""34458""
""blur"",""10"",""113859""
","""event"",""trial"",""time""
""focus"",""4"",""17945""
""focus"",""10"",""32172""
""focus"",""10"",""47424""
""focus"",""10"",""117296""
","""event"",""trial"",""time""
""fullscreenenter"",""1"",""2666""
","""event"",""trial"",""time""
""fullscreenexit"",""10"",""33329""
","","","-1","","","999","999","999","&#9826;","elianto","#f73b6a7A","-1","-1","1","0","[]","0","0","3","","","","","","","","",""
"call-function","48","592533","0.0-2.0-15.0","battery-v0.2","","""event"",""trial"",""time""
""fullscreenenter"",""1"",""2666""
""blur"",""4"",""16074""
""focus"",""4"",""17945""
""blur"",""10"",""31346""
""focus"",""10"",""32172""
""fullscreenexit"",""10"",""33329""
""blur"",""10"",""34458""
""focus"",""10"",""47424""
""blur"",""10"",""113859""
""focus"",""10"",""117296""
","""event"",""trial"",""time""
""blur"",""4"",""16074""
""blur"",""10"",""31346""
""blur"",""10"",""34458""
""blur"",""10"",""113859""
","""event"",""trial"",""time""
""focus"",""4"",""17945""
""focus"",""10"",""32172""
""focus"",""10"",""47424""
""focus"",""10"",""117296""
","""event"",""trial"",""time""
""fullscreenenter"",""1"",""2666""
","""event"",""trial"",""time""
""fullscreenexit"",""10"",""33329""
","","","","","","","","","","","","","","","","","","","","","","","","","","","",""
"pit-instructions","49","626140","0.0-2.0-16.0","battery-v0.2","","""event"",""trial"",""time""
""fullscreenenter"",""1"",""2666""
""blur"",""4"",""16074""
""focus"",""4"",""17945""
""blur"",""10"",""31346""
""focus"",""10"",""32172""
""fullscreenexit"",""10"",""33329""
""blur"",""10"",""34458""
""focus"",""10"",""47424""
""blur"",""10"",""113859""
""focus"",""10"",""117296""
","""event"",""trial"",""time""
""blur"",""4"",""16074""
""blur"",""10"",""31346""
""blur"",""10"",""34458""
""blur"",""10"",""113859""
","""event"",""trial"",""time""
""focus"",""4"",""17945""
""focus"",""10"",""32172""
""focus"",""10"",""47424""
""focus"",""10"",""117296""
","""event"",""trial"",""time""
""fullscreenenter"",""1"",""2666""
","""event"",""trial"",""time""
""fullscreenexit"",""10"",""33329""
","","[{""page_index"":0,""viewing_time"":9535.40000000596},{""page_index"":1,""viewing_time"":11346.800000011921},{""page_index"":2,""viewing_time"":7312.5},{""page_index"":3,""viewing_time"":5412.199999988079}]","33607.20000001788","","","","","","","","","","","","","","","","","","","","","","","","",""
"pit-trial","50","630997","0.0-2.0-17.0-0.0","battery-v0.2","","""event"",""trial"",""time""
""fullscreenenter"",""1"",""2666""
""blur"",""4"",""16074""
""focus"",""4"",""17945""
""blur"",""10"",""31346""
""focus"",""10"",""32172""
""fullscreenexit"",""10"",""33329""
""blur"",""10"",""34458""
""focus"",""10"",""47424""
""blur"",""10"",""113859""
""focus"",""10"",""117296""
","""event"",""trial"",""time""
""blur"",""4"",""16074""
""blur"",""10"",""31346""
""blur"",""10"",""34458""
""blur"",""10"",""113859""
","""event"",""trial"",""time""
""focus"",""4"",""17945""
""focus"",""10"",""32172""
""focus"",""10"",""47424""
""focus"",""10"",""117296""
","""event"",""trial"",""time""
""fullscreenenter"",""1"",""2666""
","""event"",""trial"",""time""
""fullscreenexit"",""10"",""33329""
","","","-1","","","999","999","999","&#9789;","elianto","#f73b6a7A"," ","-1","0","-10","[3381.7999999821186]","1","0","4","","","","","","","","",""
"pit-trial","51","633984","0.0-2.0-17.0-1.0","battery-v0.2","","""event"",""trial"",""time""
""fullscreenenter"",""1"",""2666""
""blur"",""4"",""16074""
""focus"",""4"",""17945""
""blur"",""10"",""31346""
""focus"",""10"",""32172""
""fullscreenexit"",""10"",""33329""
""blur"",""10"",""34458""
""focus"",""10"",""47424""
""blur"",""10"",""113859""
""focus"",""10"",""117296""
","""event"",""trial"",""time""
""blur"",""4"",""16074""
""blur"",""10"",""31346""
""blur"",""10"",""34458""
""blur"",""10"",""113859""
","""event"",""trial"",""time""
""focus"",""4"",""17945""
""focus"",""10"",""32172""
""focus"",""10"",""47424""
""focus"",""10"",""117296""
","""event"",""trial"",""time""
""fullscreenenter"",""1"",""2666""
","""event"",""trial"",""time""
""fullscreenexit"",""10"",""33329""
","","","133.40000000596046","","","999","999","999","&#9789;","elianto","#f73b6a7A"," "," ","1","0","[985.0999999940395]","1","0","4","","","","","","","","",""
"pit-trial","52","636899","0.0-2.0-17.0-2.0","battery-v0.2","","""event"",""trial"",""time""
""fullscreenenter"",""1"",""2666""
""blur"",""4"",""16074""
""focus"",""4"",""17945""
""blur"",""10"",""31346""
""focus"",""10"",""32172""
""fullscreenexit"",""10"",""33329""
""blur"",""10"",""34458""
""focus"",""10"",""47424""
""blur"",""10"",""113859""
""focus"",""10"",""117296""
","""event"",""trial"",""time""
""blur"",""4"",""16074""
""blur"",""10"",""31346""
""blur"",""10"",""34458""
""blur"",""10"",""113859""
","""event"",""trial"",""time""
""focus"",""4"",""17945""
""focus"",""10"",""32172""
""focus"",""10"",""47424""
""focus"",""10"",""117296""
","""event"",""trial"",""time""
""fullscreenenter"",""1"",""2666""
","""event"",""trial"",""time""
""fullscreenexit"",""10"",""33329""
","","","60.400000005960464","","","999","999","999","&#9789;","elianto","#f73b6a7A"," "," ","1","0","[910.7999999821186]","1","0","4","","","","","","","","",""
"pit-trial","53","640004","0.0-2.0-17.0-3.0","battery-v0.2","","""event"",""trial"",""time""
""fullscreenenter"",""1"",""2666""
""blur"",""4"",""16074""
""focus"",""4"",""17945""
""blur"",""10"",""31346""
""focus"",""10"",""32172""
""fullscreenexit"",""10"",""33329""
""blur"",""10"",""34458""
""focus"",""10"",""47424""
""blur"",""10"",""113859""
""focus"",""10"",""117296""
","""event"",""trial"",""time""
""blur"",""4"",""16074""
""blur"",""10"",""31346""
""blur"",""10"",""34458""
""blur"",""10"",""113859""
","""event"",""trial"",""time""
""focus"",""4"",""17945""
""focus"",""10"",""32172""
""focus"",""10"",""47424""
""focus"",""10"",""117296""
","""event"",""trial"",""time""
""fullscreenenter"",""1"",""2666""
","""event"",""trial"",""time""
""fullscreenexit"",""10"",""33329""
","","","250.69999998807907","","","999","999","999","&#9789;","elianto","#f73b6a7A"," "," ","1","-10","[1101.2999999821186]","1","0","4","","","","","","","","",""
"pit-trial","54","642979","0.0-2.0-17.0-4.0","battery-v0.2","","""event"",""trial"",""time""
""fullscreenenter"",""1"",""2666""
""blur"",""4"",""16074""
""focus"",""4"",""17945""
""blur"",""10"",""31346""
""focus"",""10"",""32172""
""fullscreenexit"",""10"",""33329""
""blur"",""10"",""34458""
""focus"",""10"",""47424""
""blur"",""10"",""113859""
""focus"",""10"",""117296""
","""event"",""trial"",""time""
""blur"",""4"",""16074""
""blur"",""10"",""31346""
""blur"",""10"",""34458""
""blur"",""10"",""113859""
","""event"",""trial"",""time""
""focus"",""4"",""17945""
""focus"",""10"",""32172""
""focus"",""10"",""47424""
""focus"",""10"",""117296""
","""event"",""trial"",""time""
""fullscreenenter"",""1"",""2666""
","""event"",""trial"",""time""
""fullscreenexit"",""10"",""33329""
","","","120","","","999","999","999","&#9789;","elianto","#f73b6a7A"," "," ","1","0","[971.6999999880791]","1","0","4","","","","","","","","",""
"call-function","55","642980","0.0-2.0-18.0","battery-v0.2","","""event"",""trial"",""time""
""fullscreenenter"",""1"",""2666""
""blur"",""4"",""16074""
""focus"",""4"",""17945""
""blur"",""10"",""31346""
""focus"",""10"",""32172""
""fullscreenexit"",""10"",""33329""
""blur"",""10"",""34458""
""focus"",""10"",""47424""
""blur"",""10"",""113859""
""focus"",""10"",""117296""
","""event"",""trial"",""time""
""blur"",""4"",""16074""
""blur"",""10"",""31346""
""blur"",""10"",""34458""
""blur"",""10"",""113859""
","""event"",""trial"",""time""
""focus"",""4"",""17945""
""focus"",""10"",""32172""
""focus"",""10"",""47424""
""focus"",""10"",""117296""
","""event"",""trial"",""time""
""fullscreenenter"",""1"",""2666""
","""event"",""trial"",""time""
""fullscreenexit"",""10"",""33329""
","","","","","","","","","","","","","","","","","","","","","","","","","","","",""
"pit-instructions","56","720112","0.0-2.0-19.0","battery-v0.2","","""event"",""trial"",""time""
""fullscreenenter"",""1"",""2666""
""blur"",""4"",""16074""
""focus"",""4"",""17945""
""blur"",""10"",""31346""
""focus"",""10"",""32172""
""fullscreenexit"",""10"",""33329""
""blur"",""10"",""34458""
""focus"",""10"",""47424""
""blur"",""10"",""113859""
""focus"",""10"",""117296""
","""event"",""trial"",""time""
""blur"",""4"",""16074""
""blur"",""10"",""31346""
""blur"",""10"",""34458""
""blur"",""10"",""113859""
","""event"",""trial"",""time""
""focus"",""4"",""17945""
""focus"",""10"",""32172""
""focus"",""10"",""47424""
""focus"",""10"",""117296""
","""event"",""trial"",""time""
""fullscreenenter"",""1"",""2666""
","""event"",""trial"",""time""
""fullscreenexit"",""10"",""33329""
","","[{""page_index"":0,""viewing_time"":11159},{""page_index"":1,""viewing_time"":6239.899999976158},{""page_index"":2,""viewing_time"":8760.200000017881},{""page_index"":3,""viewing_time"":7366.699999988079},{""page_index"":4,""viewing_time"":8142.700000017881},{""page_index"":5,""viewing_time"":11897.399999976158},{""page_index"":6,""viewing_time"":8301.90000000596},{""page_index"":7,""viewing_time"":10713.90000000596},{""page_index"":8,""viewing_time"":4550}]","77132.09999999404","","","","","","","","","","","","","","","","","","","","","","","","",""
"pit-comprehension","57","724565","0.0-2.0-20.0-0.0","battery-v0.2","","""event"",""trial"",""time""
""fullscreenenter"",""1"",""2666""
""blur"",""4"",""16074""
""focus"",""4"",""17945""
""blur"",""10"",""31346""
""focus"",""10"",""32172""
""fullscreenexit"",""10"",""33329""
""blur"",""10"",""34458""
""focus"",""10"",""47424""
""blur"",""10"",""113859""
""focus"",""10"",""117296""
","""event"",""trial"",""time""
""blur"",""4"",""16074""
""blur"",""10"",""31346""
""blur"",""10"",""34458""
""blur"",""10"",""113859""
","""event"",""trial"",""time""
""focus"",""4"",""17945""
""focus"",""10"",""32172""
""focus"",""10"",""47424""
""focus"",""10"",""117296""
","""event"",""trial"",""time""
""fullscreenenter"",""1"",""2666""
","""event"",""trial"",""time""
""fullscreenexit"",""10"",""33329""
","","","4449.0999999940395","[""SPACE""]","0","999","999","999","","","","","","","","","","","","","","","","","","","",""
"pit-instructions","58","727073","0.0-2.0-20.0-1.0","battery-v0.2","","""event"",""trial"",""time""
""fullscreenenter"",""1"",""2666""
""blur"",""4"",""16074""
""focus"",""4"",""17945""
""blur"",""10"",""31346""
""focus"",""10"",""32172""
""fullscreenexit"",""10"",""33329""
""blur"",""10"",""34458""
""focus"",""10"",""47424""
""blur"",""10"",""113859""
""focus"",""10"",""117296""
","""event"",""trial"",""time""
""blur"",""4"",""16074""
""blur"",""10"",""31346""
""blur"",""10"",""34458""
""blur"",""10"",""113859""
","""event"",""trial"",""time""
""focus"",""4"",""17945""
""focus"",""10"",""32172""
""focus"",""10"",""47424""
""focus"",""10"",""117296""
","""event"",""trial"",""time""
""fullscreenenter"",""1"",""2666""
","""event"",""trial"",""time""
""fullscreenexit"",""10"",""33329""
","","[{""page_index"":0,""viewing_time"":2488.5999999940395}]","2488.899999976158","","","","","","","","","","","","","","","","","","","","","","","","",""
"pit-comprehension","59","732265","0.0-2.0-21.0-0.0","battery-v0.2","","""event"",""trial"",""time""
""fullscreenenter"",""1"",""2666""
""blur"",""4"",""16074""
""focus"",""4"",""17945""
""blur"",""10"",""31346""
""focus"",""10"",""32172""
""fullscreenexit"",""10"",""33329""
""blur"",""10"",""34458""
""focus"",""10"",""47424""
""blur"",""10"",""113859""
""focus"",""10"",""117296""
","""event"",""trial"",""time""
""blur"",""4"",""16074""
""blur"",""10"",""31346""
""blur"",""10"",""34458""
""blur"",""10"",""113859""
","""event"",""trial"",""time""
""focus"",""4"",""17945""
""focus"",""10"",""32172""
""focus"",""10"",""47424""
""focus"",""10"",""117296""
","""event"",""trial"",""time""
""fullscreenenter"",""1"",""2666""
","""event"",""trial"",""time""
""fullscreenexit"",""10"",""33329""
","","","5188.9000000059605","[""10""]","0","999","999","999","","","","","","","","","","","","","","","","","","","",""
"pit-instructions","60","734744","0.0-2.0-21.0-1.0","battery-v0.2","","""event"",""trial"",""time""
""fullscreenenter"",""1"",""2666""
""blur"",""4"",""16074""
""focus"",""4"",""17945""
""blur"",""10"",""31346""
""focus"",""10"",""32172""
""fullscreenexit"",""10"",""33329""
""blur"",""10"",""34458""
""focus"",""10"",""47424""
""blur"",""10"",""113859""
""focus"",""10"",""117296""
","""event"",""trial"",""time""
""blur"",""4"",""16074""
""blur"",""10"",""31346""
""blur"",""10"",""34458""
""blur"",""10"",""113859""
","""event"",""trial"",""time""
""focus"",""4"",""17945""
""focus"",""10"",""32172""
""focus"",""10"",""47424""
""focus"",""10"",""117296""
","""event"",""trial"",""time""
""fullscreenenter"",""1"",""2666""
","""event"",""trial"",""time""
""fullscreenexit"",""10"",""33329""
","","[{""page_index"":0,""viewing_time"":2458}]","2458.199999988079","","","","","","","","","","","","","","","","","","","","","","","","",""
"pit-comprehension","61","741173","0.0-2.0-22.0-0.0","battery-v0.2","","""event"",""trial"",""time""
""fullscreenenter"",""1"",""2666""
""blur"",""4"",""16074""
""focus"",""4"",""17945""
""blur"",""10"",""31346""
""focus"",""10"",""32172""
""fullscreenexit"",""10"",""33329""
""blur"",""10"",""34458""
""focus"",""10"",""47424""
""blur"",""10"",""113859""
""focus"",""10"",""117296""
","""event"",""trial"",""time""
""blur"",""4"",""16074""
""blur"",""10"",""31346""
""blur"",""10"",""34458""
""blur"",""10"",""113859""
","""event"",""trial"",""time""
""focus"",""4"",""17945""
""focus"",""10"",""32172""
""focus"",""10"",""47424""
""focus"",""10"",""117296""
","""event"",""trial"",""time""
""fullscreenenter"",""1"",""2666""
","""event"",""trial"",""time""
""fullscreenexit"",""10"",""33329""
","","","6426","[""0""]","0","999","999","999","","","","","","","","","","","","","","","","","","","",""
"pit-instructions","62","742731","0.0-2.0-22.0-1.0","battery-v0.2","","""event"",""trial"",""time""
""fullscreenenter"",""1"",""2666""
""blur"",""4"",""16074""
""focus"",""4"",""17945""
""blur"",""10"",""31346""
""focus"",""10"",""32172""
""fullscreenexit"",""10"",""33329""
""blur"",""10"",""34458""
""focus"",""10"",""47424""
""blur"",""10"",""113859""
""focus"",""10"",""117296""
","""event"",""trial"",""time""
""blur"",""4"",""16074""
""blur"",""10"",""31346""
""blur"",""10"",""34458""
""blur"",""10"",""113859""
","""event"",""trial"",""time""
""focus"",""4"",""17945""
""focus"",""10"",""32172""
""focus"",""10"",""47424""
""focus"",""10"",""117296""
","""event"",""trial"",""time""
""fullscreenenter"",""1"",""2666""
","""event"",""trial"",""time""
""fullscreenexit"",""10"",""33329""
","","[{""page_index"":0,""viewing_time"":1539.199999988079}]","1539.5","","","","","","","","","","","","","","","","","","","","","","","","",""
"pit-comprehension","63","751136","0.0-2.0-23.0-0.0","battery-v0.2","","""event"",""trial"",""time""
""fullscreenenter"",""1"",""2666""
""blur"",""4"",""16074""
""focus"",""4"",""17945""
""blur"",""10"",""31346""
""focus"",""10"",""32172""
""fullscreenexit"",""10"",""33329""
""blur"",""10"",""34458""
""focus"",""10"",""47424""
""blur"",""10"",""113859""
""focus"",""10"",""117296""
","""event"",""trial"",""time""
""blur"",""4"",""16074""
""blur"",""10"",""31346""
""blur"",""10"",""34458""
""blur"",""10"",""113859""
","""event"",""trial"",""time""
""focus"",""4"",""17945""
""focus"",""10"",""32172""
""focus"",""10"",""47424""
""focus"",""10"",""117296""
","""event"",""trial"",""time""
""fullscreenenter"",""1"",""2666""
","""event"",""trial"",""time""
""fullscreenexit"",""10"",""33329""
","","","8402.90000000596","[""True""]","0","999","999","999","","","","","","","","","","","","","","","","","","","",""
"pit-instructions","64","752594","0.0-2.0-23.0-1.0","battery-v0.2","","""event"",""trial"",""time""
""fullscreenenter"",""1"",""2666""
""blur"",""4"",""16074""
""focus"",""4"",""17945""
""blur"",""10"",""31346""
""focus"",""10"",""32172""
""fullscreenexit"",""10"",""33329""
""blur"",""10"",""34458""
""focus"",""10"",""47424""
""blur"",""10"",""113859""
""focus"",""10"",""117296""
","""event"",""trial"",""time""
""blur"",""4"",""16074""
""blur"",""10"",""31346""
""blur"",""10"",""34458""
""blur"",""10"",""113859""
","""event"",""trial"",""time""
""focus"",""4"",""17945""
""focus"",""10"",""32172""
""focus"",""10"",""47424""
""focus"",""10"",""117296""
","""event"",""trial"",""time""
""fullscreenenter"",""1"",""2666""
","""event"",""trial"",""time""
""fullscreenexit"",""10"",""33329""
","","[{""page_index"":0,""viewing_time"":1438.0999999940395}]","1438.5","","","","","","","","","","","","","","","","","","","","","","","","",""
"pit-comprehension","65","761479","0.0-2.0-24.0-0.0","battery-v0.2","","""event"",""trial"",""time""
""fullscreenenter"",""1"",""2666""
""blur"",""4"",""16074""
""focus"",""4"",""17945""
""blur"",""10"",""31346""
""focus"",""10"",""32172""
""fullscreenexit"",""10"",""33329""
""blur"",""10"",""34458""
""focus"",""10"",""47424""
""blur"",""10"",""113859""
""focus"",""10"",""117296""
","""event"",""trial"",""time""
""blur"",""4"",""16074""
""blur"",""10"",""31346""
""blur"",""10"",""34458""
""blur"",""10"",""113859""
","""event"",""trial"",""time""
""focus"",""4"",""17945""
""focus"",""10"",""32172""
""focus"",""10"",""47424""
""focus"",""10"",""117296""
","""event"",""trial"",""time""
""fullscreenenter"",""1"",""2666""
","""event"",""trial"",""time""
""fullscreenexit"",""10"",""33329""
","","","8883.199999988079","[""True""]","0","999","999","999","","","","","","","","","","","","","","","","","","","",""
"pit-instructions","66","763731","0.0-2.0-24.0-1.0","battery-v0.2","","""event"",""trial"",""time""
""fullscreenenter"",""1"",""2666""
""blur"",""4"",""16074""
""focus"",""4"",""17945""
""blur"",""10"",""31346""
""focus"",""10"",""32172""
""fullscreenexit"",""10"",""33329""
""blur"",""10"",""34458""
""focus"",""10"",""47424""
""blur"",""10"",""113859""
""focus"",""10"",""117296""
","""event"",""trial"",""time""
""blur"",""4"",""16074""
""blur"",""10"",""31346""
""blur"",""10"",""34458""
""blur"",""10"",""113859""
","""event"",""trial"",""time""
""focus"",""4"",""17945""
""focus"",""10"",""32172""
""focus"",""10"",""47424""
""focus"",""10"",""117296""
","""event"",""trial"",""time""
""fullscreenenter"",""1"",""2666""
","""event"",""trial"",""time""
""fullscreenexit"",""10"",""33329""
","","[{""page_index"":0,""viewing_time"":2230.5999999940395}]","2230.899999976158","","","","","","","","","","","","","","","","","","","","","","","","",""
"pit-comprehension","67","770576","0.0-2.0-25.0-0.0","battery-v0.2","","""event"",""trial"",""time""
""fullscreenenter"",""1"",""2666""
""blur"",""4"",""16074""
""focus"",""4"",""17945""
""blur"",""10"",""31346""
""focus"",""10"",""32172""
""fullscreenexit"",""10"",""33329""
""blur"",""10"",""34458""
""focus"",""10"",""47424""
""blur"",""10"",""113859""
""focus"",""10"",""117296""
","""event"",""trial"",""time""
""blur"",""4"",""16074""
""blur"",""10"",""31346""
""blur"",""10"",""34458""
""blur"",""10"",""113859""
","""event"",""trial"",""time""
""focus"",""4"",""17945""
""focus"",""10"",""32172""
""focus"",""10"",""47424""
""focus"",""10"",""117296""
","""event"",""trial"",""time""
""fullscreenenter"",""1"",""2666""
","""event"",""trial"",""time""
""fullscreenexit"",""10"",""33329""
","","","6842.800000011921","[""True""]","0","999","999","999","","","","","","","","","","","","","","","","","","","",""
"pit-instructions","68","772281","0.0-2.0-25.0-1.0","battery-v0.2","","""event"",""trial"",""time""
""fullscreenenter"",""1"",""2666""
""blur"",""4"",""16074""
""focus"",""4"",""17945""
""blur"",""10"",""31346""
""focus"",""10"",""32172""
""fullscreenexit"",""10"",""33329""
""blur"",""10"",""34458""
""focus"",""10"",""47424""
""blur"",""10"",""113859""
""focus"",""10"",""117296""
","""event"",""trial"",""time""
""blur"",""4"",""16074""
""blur"",""10"",""31346""
""blur"",""10"",""34458""
""blur"",""10"",""113859""
","""event"",""trial"",""time""
""focus"",""4"",""17945""
""focus"",""10"",""32172""
""focus"",""10"",""47424""
""focus"",""10"",""117296""
","""event"",""trial"",""time""
""fullscreenenter"",""1"",""2666""
","""event"",""trial"",""time""
""fullscreenexit"",""10"",""33329""
","","[{""page_index"":0,""viewing_time"":1681.300000011921}]","1681.5","","","","","","","","","","","","","","","","","","","","","","","","",""
"pit-comprehension","69","776753","0.0-2.0-26.0-0.0","battery-v0.2","","""event"",""trial"",""time""
""fullscreenenter"",""1"",""2666""
""blur"",""4"",""16074""
""focus"",""4"",""17945""
""blur"",""10"",""31346""
""focus"",""10"",""32172""
""fullscreenexit"",""10"",""33329""
""blur"",""10"",""34458""
""focus"",""10"",""47424""
""blur"",""10"",""113859""
""focus"",""10"",""117296""
","""event"",""trial"",""time""
""blur"",""4"",""16074""
""blur"",""10"",""31346""
""blur"",""10"",""34458""
""blur"",""10"",""113859""
","""event"",""trial"",""time""
""focus"",""4"",""17945""
""focus"",""10"",""32172""
""focus"",""10"",""47424""
""focus"",""10"",""117296""
","""event"",""trial"",""time""
""fullscreenenter"",""1"",""2666""
","""event"",""trial"",""time""
""fullscreenexit"",""10"",""33329""
","","","4467.800000011921","[""False""]","0","999","999","999","","","","","","","","","","","","","","","","","","","",""
"pit-instructions","70","778282","0.0-2.0-26.0-1.0","battery-v0.2","","""event"",""trial"",""time""
""fullscreenenter"",""1"",""2666""
""blur"",""4"",""16074""
""focus"",""4"",""17945""
""blur"",""10"",""31346""
""focus"",""10"",""32172""
""fullscreenexit"",""10"",""33329""
""blur"",""10"",""34458""
""focus"",""10"",""47424""
""blur"",""10"",""113859""
""focus"",""10"",""117296""
","""event"",""trial"",""time""
""blur"",""4"",""16074""
""blur"",""10"",""31346""
""blur"",""10"",""34458""
""blur"",""10"",""113859""
","""event"",""trial"",""time""
""focus"",""4"",""17945""
""focus"",""10"",""32172""
""focus"",""10"",""47424""
""focus"",""10"",""117296""
","""event"",""trial"",""time""
""fullscreenenter"",""1"",""2666""
","""event"",""trial"",""time""
""fullscreenexit"",""10"",""33329""
","","[{""page_index"":0,""viewing_time"":1508.5999999940395}]","1508.7999999821186","","","","","","","","","","","","","","","","","","","","","","","","",""
"pit-instructions","71","795160","0.0-3.0","battery-v0.2","","""event"",""trial"",""time""
""fullscreenenter"",""1"",""2666""
""blur"",""4"",""16074""
""focus"",""4"",""17945""
""blur"",""10"",""31346""
""focus"",""10"",""32172""
""fullscreenexit"",""10"",""33329""
""blur"",""10"",""34458""
""focus"",""10"",""47424""
""blur"",""10"",""113859""
""focus"",""10"",""117296""
","""event"",""trial"",""time""
""blur"",""4"",""16074""
""blur"",""10"",""31346""
""blur"",""10"",""34458""
""blur"",""10"",""113859""
","""event"",""trial"",""time""
""focus"",""4"",""17945""
""focus"",""10"",""32172""
""focus"",""10"",""47424""
""focus"",""10"",""117296""
","""event"",""trial"",""time""
""fullscreenenter"",""1"",""2666""
","""event"",""trial"",""time""
""fullscreenexit"",""10"",""33329""
","","[{""page_index"":0,""viewing_time"":3445.7000000178814},{""page_index"":1,""viewing_time"":6051.5},{""page_index"":2,""viewing_time"":7379.0999999940395}]","16876.70000001788","","","","","","","","","","","","","","","","","","","","","","","","",""
"pit-trial","72","800022","0.0-4.0","battery-v0.2","","""event"",""trial"",""time""
""fullscreenenter"",""1"",""2666""
""blur"",""4"",""16074""
""focus"",""4"",""17945""
""blur"",""10"",""31346""
""focus"",""10"",""32172""
""fullscreenexit"",""10"",""33329""
""blur"",""10"",""34458""
""focus"",""10"",""47424""
""blur"",""10"",""113859""
""focus"",""10"",""117296""
","""event"",""trial"",""time""
""blur"",""4"",""16074""
""blur"",""10"",""31346""
""blur"",""10"",""34458""
""blur"",""10"",""113859""
","""event"",""trial"",""time""
""focus"",""4"",""17945""
""focus"",""10"",""32172""
""focus"",""10"",""47424""
""focus"",""10"",""117296""
","""event"",""trial"",""time""
""fullscreenenter"",""1"",""2666""
","""event"",""trial"",""time""
""fullscreenexit"",""10"",""33329""
","","","-1","","","999","999","999","&#9752;","elianto","#f73b6a7A"," ","-1","0","-10","[]","0","1","","","999","1","3","3","lose","go","0","[]"
"pit-trial","73","804881","0.0-5.0","battery-v0.2","","""event"",""trial"",""time""
""fullscreenenter"",""1"",""2666""
""blur"",""4"",""16074""
""focus"",""4"",""17945""
""blur"",""10"",""31346""
""focus"",""10"",""32172""
""fullscreenexit"",""10"",""33329""
""blur"",""10"",""34458""
""focus"",""10"",""47424""
""blur"",""10"",""113859""
""focus"",""10"",""117296""
","""event"",""trial"",""time""
""blur"",""4"",""16074""
""blur"",""10"",""31346""
""blur"",""10"",""34458""
""blur"",""10"",""113859""
","""event"",""trial"",""time""
""focus"",""4"",""17945""
""focus"",""10"",""32172""
""focus"",""10"",""47424""
""focus"",""10"",""117296""
","""event"",""trial"",""time""
""fullscreenenter"",""1"",""2666""
","""event"",""trial"",""time""
""fullscreenexit"",""10"",""33329""
","","","-1","","","999","999","999","&#9728;","elianto","#f73b6a7A","-1","-1","1","-10","[]","0","1","","","999","2","0","4","lose","no-go","1","0"
"pit-trial","74","809740","0.0-6.0","battery-v0.2","","""event"",""trial"",""time""
""fullscreenenter"",""1"",""2666""
""blur"",""4"",""16074""
""focus"",""4"",""17945""
""blur"",""10"",""31346""
""focus"",""10"",""32172""
""fullscreenexit"",""10"",""33329""
""blur"",""10"",""34458""
""focus"",""10"",""47424""
""blur"",""10"",""113859""
""focus"",""10"",""117296""
","""event"",""trial"",""time""
""blur"",""4"",""16074""
""blur"",""10"",""31346""
""blur"",""10"",""34458""
""blur"",""10"",""113859""
","""event"",""trial"",""time""
""focus"",""4"",""17945""
""focus"",""10"",""32172""
""focus"",""10"",""47424""
""focus"",""10"",""117296""
","""event"",""trial"",""time""
""fullscreenenter"",""1"",""2666""
","""event"",""trial"",""time""
""fullscreenexit"",""10"",""33329""
","","","-1","","","999","999","999","&#9730;","elianto","#3366ff99"," ","-1","0","0","[]","0","1","","","999","3","1","1","win","go","0","0"
"pit-trial","75","814599","0.0-7.0","battery-v0.2","","""event"",""trial"",""time""
""fullscreenenter"",""1"",""2666""
""blur"",""4"",""16074""
""focus"",""4"",""17945""
""blur"",""10"",""31346""
""focus"",""10"",""32172""
""fullscreenexit"",""10"",""33329""
""blur"",""10"",""34458""
""focus"",""10"",""47424""
""blur"",""10"",""113859""
""focus"",""10"",""117296""
","""event"",""trial"",""time""
""blur"",""4"",""16074""
""blur"",""10"",""31346""
""blur"",""10"",""34458""
""blur"",""10"",""113859""
","""event"",""trial"",""time""
""focus"",""4"",""17945""
""focus"",""10"",""32172""
""focus"",""10"",""47424""
""focus"",""10"",""117296""
","""event"",""trial"",""time""
""fullscreenenter"",""1"",""2666""
","""event"",""trial"",""time""
""fullscreenexit"",""10"",""33329""
","","","-1","","","999","999","999","&#9733;","elianto","#3366ff99","-1","-1","1","+10","[]","0","1","","","999","4","2","2","win","no-go","0","0"
"pit-trial","76","819460","0.0-8.0","battery-v0.2","","""event"",""trial"",""time""
""fullscreenenter"",""1"",""2666""
""blur"",""4"",""16074""
""focus"",""4"",""17945""
""blur"",""10"",""31346""
""focus"",""10"",""32172""
""fullscreenexit"",""10"",""33329""
""blur"",""10"",""34458""
""focus"",""10"",""47424""
""blur"",""10"",""113859""
""focus"",""10"",""117296""
","""event"",""trial"",""time""
""blur"",""4"",""16074""
""blur"",""10"",""31346""
""blur"",""10"",""34458""
""blur"",""10"",""113859""
","""event"",""trial"",""time""
""focus"",""4"",""17945""
""focus"",""10"",""32172""
""focus"",""10"",""47424""
""focus"",""10"",""117296""
","""event"",""trial"",""time""
""fullscreenenter"",""1"",""2666""
","""event"",""trial"",""time""
""fullscreenexit"",""10"",""33329""
","","","-1","","","999","999","999","&#9730;","elianto","#3366ff99"," ","-1","0","+10","[]","0","1","","","999","5","1","1","win","go","1","0"
"pit-trial","77","824313","0.0-9.0","battery-v0.2","","""event"",""trial"",""time""
""fullscreenenter"",""1"",""2666""
""blur"",""4"",""16074""
""focus"",""4"",""17945""
""blur"",""10"",""31346""
""focus"",""10"",""32172""
""fullscreenexit"",""10"",""33329""
""blur"",""10"",""34458""
""focus"",""10"",""47424""
""blur"",""10"",""113859""
""focus"",""10"",""117296""
","""event"",""trial"",""time""
""blur"",""4"",""16074""
""blur"",""10"",""31346""
""blur"",""10"",""34458""
""blur"",""10"",""113859""
","""event"",""trial"",""time""
""focus"",""4"",""17945""
""focus"",""10"",""32172""
""focus"",""10"",""47424""
""focus"",""10"",""117296""
","""event"",""trial"",""time""
""fullscreenenter"",""1"",""2666""
","""event"",""trial"",""time""
""fullscreenexit"",""10"",""33329""
","","","-1","","","999","999","999","&#9728;","elianto","#f73b6a7A","-1","-1","1","0","[]","0","1","","","999","6","0","4","lose","no-go","0","0"
"pit-trial","78","829171","0.0-10.0","battery-v0.2","","""event"",""trial"",""time""
""fullscreenenter"",""1"",""2666""
""blur"",""4"",""16074""
""focus"",""4"",""17945""
""blur"",""10"",""31346""
""focus"",""10"",""32172""
""fullscreenexit"",""10"",""33329""
""blur"",""10"",""34458""
""focus"",""10"",""47424""
""blur"",""10"",""113859""
""focus"",""10"",""117296""
","""event"",""trial"",""time""
""blur"",""4"",""16074""
""blur"",""10"",""31346""
""blur"",""10"",""34458""
""blur"",""10"",""113859""
","""event"",""trial"",""time""
""focus"",""4"",""17945""
""focus"",""10"",""32172""
""focus"",""10"",""47424""
""focus"",""10"",""117296""
","""event"",""trial"",""time""
""fullscreenenter"",""1"",""2666""
","""event"",""trial"",""time""
""fullscreenexit"",""10"",""33329""
","","","-1","","","999","999","999","&#9752;","elianto","#f73b6a7A"," ","-1","0","0","[]","0","1","","","999","7","3","3","lose","go","1","0"
"pit-trial","79","834029","0.0-11.0","battery-v0.2","","""event"",""trial"",""time""
""fullscreenenter"",""1"",""2666""
""blur"",""4"",""16074""
""focus"",""4"",""17945""
""blur"",""10"",""31346""
""focus"",""10"",""32172""
""fullscreenexit"",""10"",""33329""
""blur"",""10"",""34458""
""focus"",""10"",""47424""
""blur"",""10"",""113859""
""focus"",""10"",""117296""
","""event"",""trial"",""time""
""blur"",""4"",""16074""
""blur"",""10"",""31346""
""blur"",""10"",""34458""
""blur"",""10"",""113859""
","""event"",""trial"",""time""
""focus"",""4"",""17945""
""focus"",""10"",""32172""
""focus"",""10"",""47424""
""focus"",""10"",""117296""
","""event"",""trial"",""time""
""fullscreenenter"",""1"",""2666""
","""event"",""trial"",""time""
""fullscreenexit"",""10"",""33329""
","","","-1","","","999","999","999","&#9733;","elianto","#3366ff99","-1","-1","1","+10","[]","0","1","","","999","8","2","2","win","no-go","0","0"
"pit-trial","80","838888","0.0-12.0","battery-v0.2","","""event"",""trial"",""time""
""fullscreenenter"",""1"",""2666""
""blur"",""4"",""16074""
""focus"",""4"",""17945""
""blur"",""10"",""31346""
""focus"",""10"",""32172""
""fullscreenexit"",""10"",""33329""
""blur"",""10"",""34458""
""focus"",""10"",""47424""
""blur"",""10"",""113859""
""focus"",""10"",""117296""
","""event"",""trial"",""time""
""blur"",""4"",""16074""
""blur"",""10"",""31346""
""blur"",""10"",""34458""
""blur"",""10"",""113859""
","""event"",""trial"",""time""
""focus"",""4"",""17945""
""focus"",""10"",""32172""
""focus"",""10"",""47424""
""focus"",""10"",""117296""
","""event"",""trial"",""time""
""fullscreenenter"",""1"",""2666""
","""event"",""trial"",""time""
""fullscreenexit"",""10"",""33329""
","","","-1","","","999","999","999","&#9730;","elianto","#3366ff99"," ","-1","0","0","[]","0","1","","","999","9","1","1","win","go","0","0"
"pit-trial","81","843744","0.0-13.0","battery-v0.2","","""event"",""trial"",""time""
""fullscreenenter"",""1"",""2666""
""blur"",""4"",""16074""
""focus"",""4"",""17945""
""blur"",""10"",""31346""
""focus"",""10"",""32172""
""fullscreenexit"",""10"",""33329""
""blur"",""10"",""34458""
""focus"",""10"",""47424""
""blur"",""10"",""113859""
""focus"",""10"",""117296""
","""event"",""trial"",""time""
""blur"",""4"",""16074""
""blur"",""10"",""31346""
""blur"",""10"",""34458""
""blur"",""10"",""113859""
","""event"",""trial"",""time""
""focus"",""4"",""17945""
""focus"",""10"",""32172""
""focus"",""10"",""47424""
""focus"",""10"",""117296""
","""event"",""trial"",""time""
""fullscreenenter"",""1"",""2666""
","""event"",""trial"",""time""
""fullscreenexit"",""10"",""33329""
","","","-1","","","999","999","999","&#9728;","elianto","#f73b6a7A","-1","-1","1","0","[]","0","1","","","999","10","0","4","lose","no-go","0","0"
"pit-trial","82","848603","0.0-14.0","battery-v0.2","","""event"",""trial"",""time""
""fullscreenenter"",""1"",""2666""
""blur"",""4"",""16074""
""focus"",""4"",""17945""
""blur"",""10"",""31346""
""focus"",""10"",""32172""
""fullscreenexit"",""10"",""33329""
""blur"",""10"",""34458""
""focus"",""10"",""47424""
""blur"",""10"",""113859""
""focus"",""10"",""117296""
","""event"",""trial"",""time""
""blur"",""4"",""16074""
""blur"",""10"",""31346""
""blur"",""10"",""34458""
""blur"",""10"",""113859""
","""event"",""trial"",""time""
""focus"",""4"",""17945""
""focus"",""10"",""32172""
""focus"",""10"",""47424""
""focus"",""10"",""117296""
","""event"",""trial"",""time""
""fullscreenenter"",""1"",""2666""
","""event"",""trial"",""time""
""fullscreenexit"",""10"",""33329""
","","","-1","","","999","999","999","&#9733;","elianto","#3366ff99","-1","-1","1","+10","[]","0","1","","","999","11","2","2","win","no-go","0","0"
"pit-trial","83","853464","0.0-15.0","battery-v0.2","","""event"",""trial"",""time""
""fullscreenenter"",""1"",""2666""
""blur"",""4"",""16074""
""focus"",""4"",""17945""
""blur"",""10"",""31346""
""focus"",""10"",""32172""
""fullscreenexit"",""10"",""33329""
""blur"",""10"",""34458""
""focus"",""10"",""47424""
""blur"",""10"",""113859""
""focus"",""10"",""117296""
","""event"",""trial"",""time""
""blur"",""4"",""16074""
""blur"",""10"",""31346""
""blur"",""10"",""34458""
""blur"",""10"",""113859""
","""event"",""trial"",""time""
""focus"",""4"",""17945""
""focus"",""10"",""32172""
""focus"",""10"",""47424""
""focus"",""10"",""117296""
","""event"",""trial"",""time""
""fullscreenenter"",""1"",""2666""
","""event"",""trial"",""time""
""fullscreenexit"",""10"",""33329""
","","","-1","","","999","999","999","&#9752;","elianto","#f73b6a7A"," ","-1","0","-10","[]","0","1","","","999","12","3","3","lose","go","0","0"
"pit-trial","84","858323","0.0-16.0","battery-v0.2","","""event"",""trial"",""time""
""fullscreenenter"",""1"",""2666""
""blur"",""4"",""16074""
""focus"",""4"",""17945""
""blur"",""10"",""31346""
""focus"",""10"",""32172""
""fullscreenexit"",""10"",""33329""
""blur"",""10"",""34458""
""focus"",""10"",""47424""
""blur"",""10"",""113859""
""focus"",""10"",""117296""
","""event"",""trial"",""time""
""blur"",""4"",""16074""
""blur"",""10"",""31346""
""blur"",""10"",""34458""
""blur"",""10"",""113859""
","""event"",""trial"",""time""
""focus"",""4"",""17945""
""focus"",""10"",""32172""
""focus"",""10"",""47424""
""focus"",""10"",""117296""
","""event"",""trial"",""time""
""fullscreenenter"",""1"",""2666""
","""event"",""trial"",""time""
""fullscreenexit"",""10"",""33329""
","","","-1","","","999","999","999","&#9733;","elianto","#3366ff99","-1","-1","1","+10","[]","0","1","","","999","13","2","2","win","no-go","0","0"
"pit-trial","85","863182","0.0-17.0","battery-v0.2","","""event"",""trial"",""time""
""fullscreenenter"",""1"",""2666""
""blur"",""4"",""16074""
""focus"",""4"",""17945""
""blur"",""10"",""31346""
""focus"",""10"",""32172""
""fullscreenexit"",""10"",""33329""
""blur"",""10"",""34458""
""focus"",""10"",""47424""
""blur"",""10"",""113859""
""focus"",""10"",""117296""
","""event"",""trial"",""time""
""blur"",""4"",""16074""
""blur"",""10"",""31346""
""blur"",""10"",""34458""
""blur"",""10"",""113859""
","""event"",""trial"",""time""
""focus"",""4"",""17945""
""focus"",""10"",""32172""
""focus"",""10"",""47424""
""focus"",""10"",""117296""
","""event"",""trial"",""time""
""fullscreenenter"",""1"",""2666""
","""event"",""trial"",""time""
""fullscreenexit"",""10"",""33329""
","","","-1","","","999","999","999","&#9752;","elianto","#f73b6a7A"," ","-1","0","-10","[]","0","1","","","999","14","3","3","lose","go","0","0"
"pit-trial","86","868041","0.0-18.0","battery-v0.2","","""event"",""trial"",""time""
""fullscreenenter"",""1"",""2666""
""blur"",""4"",""16074""
""focus"",""4"",""17945""
""blur"",""10"",""31346""
""focus"",""10"",""32172""
""fullscreenexit"",""10"",""33329""
""blur"",""10"",""34458""
""focus"",""10"",""47424""
""blur"",""10"",""113859""
""focus"",""10"",""117296""
","""event"",""trial"",""time""
""blur"",""4"",""16074""
""blur"",""10"",""31346""
""blur"",""10"",""34458""
""blur"",""10"",""113859""
","""event"",""trial"",""time""
""focus"",""4"",""17945""
""focus"",""10"",""32172""
""focus"",""10"",""47424""
""focus"",""10"",""117296""
","""event"",""trial"",""time""
""fullscreenenter"",""1"",""2666""
","""event"",""trial"",""time""
""fullscreenexit"",""10"",""33329""
","","","-1","","","999","999","999","&#9730;","elianto","#3366ff99"," ","-1","0","+10","[]","0","1","","","999","15","1","1","win","go","1","0"
"pit-trial","87","872900","0.0-19.0","battery-v0.2","","""event"",""trial"",""time""
""fullscreenenter"",""1"",""2666""
""blur"",""4"",""16074""
""focus"",""4"",""17945""
""blur"",""10"",""31346""
""focus"",""10"",""32172""
""fullscreenexit"",""10"",""33329""
""blur"",""10"",""34458""
""focus"",""10"",""47424""
""blur"",""10"",""113859""
""focus"",""10"",""117296""
","""event"",""trial"",""time""
""blur"",""4"",""16074""
""blur"",""10"",""31346""
""blur"",""10"",""34458""
""blur"",""10"",""113859""
","""event"",""trial"",""time""
""focus"",""4"",""17945""
""focus"",""10"",""32172""
""focus"",""10"",""47424""
""focus"",""10"",""117296""
","""event"",""trial"",""time""
""fullscreenenter"",""1"",""2666""
","""event"",""trial"",""time""
""fullscreenexit"",""10"",""33329""
","","","-1","","","999","999","999","&#9728;","elianto","#f73b6a7A","-1","-1","1","0","[]","0","1","","","999","16","0","4","lose","no-go","0","0"
"pit-trial","88","877758","0.0-20.0","battery-v0.2","","""event"",""trial"",""time""
""fullscreenenter"",""1"",""2666""
""blur"",""4"",""16074""
""focus"",""4"",""17945""
""blur"",""10"",""31346""
""focus"",""10"",""32172""
""fullscreenexit"",""10"",""33329""
""blur"",""10"",""34458""
""focus"",""10"",""47424""
""blur"",""10"",""113859""
""focus"",""10"",""117296""
","""event"",""trial"",""time""
""blur"",""4"",""16074""
""blur"",""10"",""31346""
""blur"",""10"",""34458""
""blur"",""10"",""113859""
","""event"",""trial"",""time""
""focus"",""4"",""17945""
""focus"",""10"",""32172""
""focus"",""10"",""47424""
""focus"",""10"",""117296""
","""event"",""trial"",""time""
""fullscreenenter"",""1"",""2666""
","""event"",""trial"",""time""
""fullscreenexit"",""10"",""33329""
","","","-1","","","999","999","999","&#9728;","elianto","#f73b6a7A","-1","-1","1","-10","[]","0","1","","","999","17","0","4","lose","no-go","1","0"
"pit-trial","89","882617","0.0-21.0","battery-v0.2","","""event"",""trial"",""time""
""fullscreenenter"",""1"",""2666""
""blur"",""4"",""16074""
""focus"",""4"",""17945""
""blur"",""10"",""31346""
""focus"",""10"",""32172""
""fullscreenexit"",""10"",""33329""
""blur"",""10"",""34458""
""focus"",""10"",""47424""
""blur"",""10"",""113859""
""focus"",""10"",""117296""
","""event"",""trial"",""time""
""blur"",""4"",""16074""
""blur"",""10"",""31346""
""blur"",""10"",""34458""
""blur"",""10"",""113859""
","""event"",""trial"",""time""
""focus"",""4"",""17945""
""focus"",""10"",""32172""
""focus"",""10"",""47424""
""focus"",""10"",""117296""
","""event"",""trial"",""time""
""fullscreenenter"",""1"",""2666""
","""event"",""trial"",""time""
""fullscreenexit"",""10"",""33329""
","","","-1","","","999","999","999","&#9730;","elianto","#3366ff99"," ","-1","0","0","[]","0","1","","","999","18","1","1","win","go","0","0"
"pit-trial","90","887473","0.0-22.0","battery-v0.2","","""event"",""trial"",""time""
""fullscreenenter"",""1"",""2666""
""blur"",""4"",""16074""
""focus"",""4"",""17945""
""blur"",""10"",""31346""
""focus"",""10"",""32172""
""fullscreenexit"",""10"",""33329""
""blur"",""10"",""34458""
""focus"",""10"",""47424""
""blur"",""10"",""113859""
""focus"",""10"",""117296""
","""event"",""trial"",""time""
""blur"",""4"",""16074""
""blur"",""10"",""31346""
""blur"",""10"",""34458""
""blur"",""10"",""113859""
","""event"",""trial"",""time""
""focus"",""4"",""17945""
""focus"",""10"",""32172""
""focus"",""10"",""47424""
""focus"",""10"",""117296""
","""event"",""trial"",""time""
""fullscreenenter"",""1"",""2666""
","""event"",""trial"",""time""
""fullscreenexit"",""10"",""33329""
","","","-1","","","999","999","999","&#9752;","elianto","#f73b6a7A"," ","-1","0","-10","[]","0","1","","","999","19","3","3","lose","go","0","0"
"pit-trial","91","892332","0.0-23.0","battery-v0.2","","""event"",""trial"",""time""
""fullscreenenter"",""1"",""2666""
""blur"",""4"",""16074""
""focus"",""4"",""17945""
""blur"",""10"",""31346""
""focus"",""10"",""32172""
""fullscreenexit"",""10"",""33329""
""blur"",""10"",""34458""
""focus"",""10"",""47424""
""blur"",""10"",""113859""
""focus"",""10"",""117296""
","""event"",""trial"",""time""
""blur"",""4"",""16074""
""blur"",""10"",""31346""
""blur"",""10"",""34458""
""blur"",""10"",""113859""
","""event"",""trial"",""time""
""focus"",""4"",""17945""
""focus"",""10"",""32172""
""focus"",""10"",""47424""
""focus"",""10"",""117296""
","""event"",""trial"",""time""
""fullscreenenter"",""1"",""2666""
","""event"",""trial"",""time""
""fullscreenexit"",""10"",""33329""
","","","-1","","","999","999","999","&#9733;","elianto","#3366ff99","-1","-1","1","0","[]","0","1","","","999","20","2","2","win","no-go","1","0"
"pit-instructions","92","904449","0.0-24.0","battery-v0.2","","""event"",""trial"",""time""
""fullscreenenter"",""1"",""2666""
""blur"",""4"",""16074""
""focus"",""4"",""17945""
""blur"",""10"",""31346""
""focus"",""10"",""32172""
""fullscreenexit"",""10"",""33329""
""blur"",""10"",""34458""
""focus"",""10"",""47424""
""blur"",""10"",""113859""
""focus"",""10"",""117296""
","""event"",""trial"",""time""
""blur"",""4"",""16074""
""blur"",""10"",""31346""
""blur"",""10"",""34458""
""blur"",""10"",""113859""
","""event"",""trial"",""time""
""focus"",""4"",""17945""
""focus"",""10"",""32172""
""focus"",""10"",""47424""
""focus"",""10"",""117296""
","""event"",""trial"",""time""
""fullscreenenter"",""1"",""2666""
","""event"",""trial"",""time""
""fullscreenexit"",""10"",""33329""
","","[{""page_index"":0,""viewing_time"":5647},{""page_index"":1,""viewing_time"":6466.699999988079}]","12114","","","","","","","","","","","","","","","","","","","","","","","","",""
"pit-trial","93","909308","0.0-25.0","battery-v0.2","","""event"",""trial"",""time""
""fullscreenenter"",""1"",""2666""
""blur"",""4"",""16074""
""focus"",""4"",""17945""
""blur"",""10"",""31346""
""focus"",""10"",""32172""
""fullscreenexit"",""10"",""33329""
""blur"",""10"",""34458""
""focus"",""10"",""47424""
""blur"",""10"",""113859""
""focus"",""10"",""117296""
","""event"",""trial"",""time""
""blur"",""4"",""16074""
""blur"",""10"",""31346""
""blur"",""10"",""34458""
""blur"",""10"",""113859""
","""event"",""trial"",""time""
""focus"",""4"",""17945""
""focus"",""10"",""32172""
""focus"",""10"",""47424""
""focus"",""10"",""117296""
","""event"",""trial"",""time""
""fullscreenenter"",""1"",""2666""
","""event"",""trial"",""time""
""fullscreenexit"",""10"",""33329""
","","","-1","","","999","999","999","m","elianto","#3366ff99","-1","-1","1","+10","[]","0","2","","","999","21","0","2","win","no-go","0","0"
"pit-trial","94","914164","0.0-26.0","battery-v0.2","","""event"",""trial"",""time""
""fullscreenenter"",""1"",""2666""
""blur"",""4"",""16074""
""focus"",""4"",""17945""
""blur"",""10"",""31346""
""focus"",""10"",""32172""
""fullscreenexit"",""10"",""33329""
""blur"",""10"",""34458""
""focus"",""10"",""47424""
""blur"",""10"",""113859""
""focus"",""10"",""117296""
","""event"",""trial"",""time""
""blur"",""4"",""16074""
""blur"",""10"",""31346""
""blur"",""10"",""34458""
""blur"",""10"",""113859""
","""event"",""trial"",""time""
""focus"",""4"",""17945""
""focus"",""10"",""32172""
""focus"",""10"",""47424""
""focus"",""10"",""117296""
","""event"",""trial"",""time""
""fullscreenenter"",""1"",""2666""
","""event"",""trial"",""time""
""fullscreenexit"",""10"",""33329""
","","","-1","","","999","999","999","h","elianto","#3366ff99"," ","-1","0","0","[]","0","2","","","999","22","3","1","win","go","0","0"
"pit-trial","95","919019","0.0-27.0","battery-v0.2","","""event"",""trial"",""time""
""fullscreenenter"",""1"",""2666""
""blur"",""4"",""16074""
""focus"",""4"",""17945""
""blur"",""10"",""31346""
""focus"",""10"",""32172""
""fullscreenexit"",""10"",""33329""
""blur"",""10"",""34458""
""focus"",""10"",""47424""
""blur"",""10"",""113859""
""focus"",""10"",""117296""
","""event"",""trial"",""time""
""blur"",""4"",""16074""
""blur"",""10"",""31346""
""blur"",""10"",""34458""
""blur"",""10"",""113859""
","""event"",""trial"",""time""
""focus"",""4"",""17945""
""focus"",""10"",""32172""
""focus"",""10"",""47424""
""focus"",""10"",""117296""
","""event"",""trial"",""time""
""fullscreenenter"",""1"",""2666""
","""event"",""trial"",""time""
""fullscreenexit"",""10"",""33329""
","","","-1","","","999","999","999","r","elianto","#f73b6a7A"," ","-1","0","-10","[]","0","2","","","999","23","1","3","lose","go","0","0"
"pit-trial","96","923872","0.0-28.0","battery-v0.2","","""event"",""trial"",""time""
""fullscreenenter"",""1"",""2666""
""blur"",""4"",""16074""
""focus"",""4"",""17945""
""blur"",""10"",""31346""
""focus"",""10"",""32172""
""fullscreenexit"",""10"",""33329""
""blur"",""10"",""34458""
""focus"",""10"",""47424""
""blur"",""10"",""113859""
""focus"",""10"",""117296""
","""event"",""trial"",""time""
""blur"",""4"",""16074""
""blur"",""10"",""31346""
""blur"",""10"",""34458""
""blur"",""10"",""113859""
","""event"",""trial"",""time""
""focus"",""4"",""17945""
""focus"",""10"",""32172""
""focus"",""10"",""47424""
""focus"",""10"",""117296""
","""event"",""trial"",""time""
""fullscreenenter"",""1"",""2666""
","""event"",""trial"",""time""
""fullscreenexit"",""10"",""33329""
","","","-1","","","999","999","999","y","elianto","#f73b6a7A","-1","-1","1","0","[]","0","2","","","999","24","2","4","lose","no-go","0","0"
"pit-trial","97","928728","0.0-29.0","battery-v0.2","","""event"",""trial"",""time""
""fullscreenenter"",""1"",""2666""
""blur"",""4"",""16074""
""focus"",""4"",""17945""
""blur"",""10"",""31346""
""focus"",""10"",""32172""
""fullscreenexit"",""10"",""33329""
""blur"",""10"",""34458""
""focus"",""10"",""47424""
""blur"",""10"",""113859""
""focus"",""10"",""117296""
","""event"",""trial"",""time""
""blur"",""4"",""16074""
""blur"",""10"",""31346""
""blur"",""10"",""34458""
""blur"",""10"",""113859""
","""event"",""trial"",""time""
""focus"",""4"",""17945""
""focus"",""10"",""32172""
""focus"",""10"",""47424""
""focus"",""10"",""117296""
","""event"",""trial"",""time""
""fullscreenenter"",""1"",""2666""
","""event"",""trial"",""time""
""fullscreenexit"",""10"",""33329""
","","","-1","","","999","999","999","m","elianto","#3366ff99","-1","-1","1","+10","[]","0","2","","","999","25","0","2","win","no-go","0","0"
"pit-trial","98","933584","0.0-30.0","battery-v0.2","","""event"",""trial"",""time""
""fullscreenenter"",""1"",""2666""
""blur"",""4"",""16074""
""focus"",""4"",""17945""
""blur"",""10"",""31346""
""focus"",""10"",""32172""
""fullscreenexit"",""10"",""33329""
""blur"",""10"",""34458""
""focus"",""10"",""47424""
""blur"",""10"",""113859""
""focus"",""10"",""117296""
","""event"",""trial"",""time""
""blur"",""4"",""16074""
""blur"",""10"",""31346""
""blur"",""10"",""34458""
""blur"",""10"",""113859""
","""event"",""trial"",""time""
""focus"",""4"",""17945""
""focus"",""10"",""32172""
""focus"",""10"",""47424""
""focus"",""10"",""117296""
","""event"",""trial"",""time""
""fullscreenenter"",""1"",""2666""
","""event"",""trial"",""time""
""fullscreenexit"",""10"",""33329""
","","","-1","","","999","999","999","h","elianto","#3366ff99"," ","-1","0","0","[]","0","2","","","999","26","3","1","win","go","0","0"
"pit-trial","99","938441","0.0-31.0","battery-v0.2","","""event"",""trial"",""time""
""fullscreenenter"",""1"",""2666""
""blur"",""4"",""16074""
""focus"",""4"",""17945""
""blur"",""10"",""31346""
""focus"",""10"",""32172""
""fullscreenexit"",""10"",""33329""
""blur"",""10"",""34458""
""focus"",""10"",""47424""
""blur"",""10"",""113859""
""focus"",""10"",""117296""
","""event"",""trial"",""time""
""blur"",""4"",""16074""
""blur"",""10"",""31346""
""blur"",""10"",""34458""
""blur"",""10"",""113859""
","""event"",""trial"",""time""
""focus"",""4"",""17945""
""focus"",""10"",""32172""
""focus"",""10"",""47424""
""focus"",""10"",""117296""
","""event"",""trial"",""time""
""fullscreenenter"",""1"",""2666""
","""event"",""trial"",""time""
""fullscreenexit"",""10"",""33329""
","","","-1","","","999","999","999","y","elianto","#f73b6a7A","-1","-1","1","0","[]","0","2","","","999","27","2","4","lose","no-go","0","0"
"pit-trial","100","943297","0.0-32.0","battery-v0.2","","""event"",""trial"",""time""
""fullscreenenter"",""1"",""2666""
""blur"",""4"",""16074""
""focus"",""4"",""17945""
""blur"",""10"",""31346""
""focus"",""10"",""32172""
""fullscreenexit"",""10"",""33329""
""blur"",""10"",""34458""
""focus"",""10"",""47424""
""blur"",""10"",""113859""
""focus"",""10"",""117296""
","""event"",""trial"",""time""
""blur"",""4"",""16074""
""blur"",""10"",""31346""
""blur"",""10"",""34458""
""blur"",""10"",""113859""
","""event"",""trial"",""time""
""focus"",""4"",""17945""
""focus"",""10"",""32172""
""focus"",""10"",""47424""
""focus"",""10"",""117296""
","""event"",""trial"",""time""
""fullscreenenter"",""1"",""2666""
","""event"",""trial"",""time""
""fullscreenexit"",""10"",""33329""
","","","-1","","","999","999","999","r","elianto","#f73b6a7A"," ","-1","0","0","[]","0","2","","","999","28","1","3","lose","go","1","0"
"pit-trial","101","948156","0.0-33.0","battery-v0.2","","""event"",""trial"",""time""
""fullscreenenter"",""1"",""2666""
""blur"",""4"",""16074""
""focus"",""4"",""17945""
""blur"",""10"",""31346""
""focus"",""10"",""32172""
""fullscreenexit"",""10"",""33329""
""blur"",""10"",""34458""
""focus"",""10"",""47424""
""blur"",""10"",""113859""
""focus"",""10"",""117296""
","""event"",""trial"",""time""
""blur"",""4"",""16074""
""blur"",""10"",""31346""
""blur"",""10"",""34458""
""blur"",""10"",""113859""
","""event"",""trial"",""time""
""focus"",""4"",""17945""
""focus"",""10"",""32172""
""focus"",""10"",""47424""
""focus"",""10"",""117296""
","""event"",""trial"",""time""
""fullscreenenter"",""1"",""2666""
","""event"",""trial"",""time""
""fullscreenexit"",""10"",""33329""
","","","-1","","","999","999","999","m","elianto","#3366ff99","-1","-1","1","+10","[]","0","2","","","999","29","0","2","win","no-go","0","0"
"pit-trial","102","953015","0.0-34.0","battery-v0.2","","""event"",""trial"",""time""
""fullscreenenter"",""1"",""2666""
""blur"",""4"",""16074""
""focus"",""4"",""17945""
""blur"",""10"",""31346""
""focus"",""10"",""32172""
""fullscreenexit"",""10"",""33329""
""blur"",""10"",""34458""
""focus"",""10"",""47424""
""blur"",""10"",""113859""
""focus"",""10"",""117296""
","""event"",""trial"",""time""
""blur"",""4"",""16074""
""blur"",""10"",""31346""
""blur"",""10"",""34458""
""blur"",""10"",""113859""
","""event"",""trial"",""time""
""focus"",""4"",""17945""
""focus"",""10"",""32172""
""focus"",""10"",""47424""
""focus"",""10"",""117296""
","""event"",""trial"",""time""
""fullscreenenter"",""1"",""2666""
","""event"",""trial"",""time""
""fullscreenexit"",""10"",""33329""
","","","-1","","","999","999","999","r","elianto","#f73b6a7A"," ","-1","0","-10","[]","0","2","","","999","30","1","3","lose","go","0","0"
"pit-trial","103","957873","0.0-35.0","battery-v0.2","","""event"",""trial"",""time""
""fullscreenenter"",""1"",""2666""
""blur"",""4"",""16074""
""focus"",""4"",""17945""
""blur"",""10"",""31346""
""focus"",""10"",""32172""
""fullscreenexit"",""10"",""33329""
""blur"",""10"",""34458""
""focus"",""10"",""47424""
""blur"",""10"",""113859""
""focus"",""10"",""117296""
","""event"",""trial"",""time""
""blur"",""4"",""16074""
""blur"",""10"",""31346""
""blur"",""10"",""34458""
""blur"",""10"",""113859""
","""event"",""trial"",""time""
""focus"",""4"",""17945""
""focus"",""10"",""32172""
""focus"",""10"",""47424""
""focus"",""10"",""117296""
","""event"",""trial"",""time""
""fullscreenenter"",""1"",""2666""
","""event"",""trial"",""time""
""fullscreenexit"",""10"",""33329""
","","","-1","","","999","999","999","h","elianto","#3366ff99"," ","-1","0","0","[]","0","2","","","999","31","3","1","win","go","0","0"
"pit-trial","104","962732","0.0-36.0","battery-v0.2","","""event"",""trial"",""time""
""fullscreenenter"",""1"",""2666""
""blur"",""4"",""16074""
""focus"",""4"",""17945""
""blur"",""10"",""31346""
""focus"",""10"",""32172""
""fullscreenexit"",""10"",""33329""
""blur"",""10"",""34458""
""focus"",""10"",""47424""
""blur"",""10"",""113859""
""focus"",""10"",""117296""
","""event"",""trial"",""time""
""blur"",""4"",""16074""
""blur"",""10"",""31346""
""blur"",""10"",""34458""
""blur"",""10"",""113859""
","""event"",""trial"",""time""
""focus"",""4"",""17945""
""focus"",""10"",""32172""
""focus"",""10"",""47424""
""focus"",""10"",""117296""
","""event"",""trial"",""time""
""fullscreenenter"",""1"",""2666""
","""event"",""trial"",""time""
""fullscreenexit"",""10"",""33329""
","","","-1","","","999","999","999","y","elianto","#f73b6a7A","-1","-1","1","-10","[]","0","2","","","999","32","2","4","lose","no-go","1","0"
"pit-trial","105","967591","0.0-37.0","battery-v0.2","","""event"",""trial"",""time""
""fullscreenenter"",""1"",""2666""
""blur"",""4"",""16074""
""focus"",""4"",""17945""
""blur"",""10"",""31346""
""focus"",""10"",""32172""
""fullscreenexit"",""10"",""33329""
""blur"",""10"",""34458""
""focus"",""10"",""47424""
""blur"",""10"",""113859""
""focus"",""10"",""117296""
","""event"",""trial"",""time""
""blur"",""4"",""16074""
""blur"",""10"",""31346""
""blur"",""10"",""34458""
""blur"",""10"",""113859""
","""event"",""trial"",""time""
""focus"",""4"",""17945""
""focus"",""10"",""32172""
""focus"",""10"",""47424""
""focus"",""10"",""117296""
","""event"",""trial"",""time""
""fullscreenenter"",""1"",""2666""
","""event"",""trial"",""time""
""fullscreenexit"",""10"",""33329""
