"trial_type","trial_index","time_elapsed","internal_node_id","task_version","subject_id","interactions","blur_events","focus_events","fullscreenenter_events","fullscreenexit_events","success","view_history","rt","responses","num_errors","age","subject","participantId","rune","rune_set","hex","correct","choice","accuracy","outcome","keys","total_keys","block","practice","value","sub","trial","stimulus","robot","valence","action","sham","browser_interactions"
"pavlovia","0","23","0.0-0.0","battery-v0.2","","""event"",""trial"",""time""
""fullscreenenter"",""1"",""2383""
","
","
","""event"",""trial"",""time""
""fullscreenenter"",""1"",""2383""
","
","","","","","","","","","","","","","","","","","","","","","","","","","","","",""
"fullscreen","1","3375","0.0-1.0","battery-v0.2","","""event"",""trial"",""time""
""fullscreenenter"",""1"",""2383""
","
","
","""event"",""trial"",""time""
""fullscreenenter"",""1"",""2383""
","
","true","","","","","","","","","","","","","","","","","","","","","","","","","","",""
"pit-instructions","2","7525","0.0-2.0-0.0","battery-v0.2","","""event"",""trial"",""time""
""fullscreenenter"",""1"",""2383""
","
","
","""event"",""trial"",""time""
""fullscreenenter"",""1"",""2383""
","
","","[{""page_index"":0,""viewing_time"":4146.900000095367}]","4147.400000095367","","","","","","","","","","","","","","","","","","","","","","","","",""
"pit-comprehension","3","14118","0.0-2.0-1.0-0.0","battery-v0.2","","""event"",""trial"",""time""
""fullscreenenter"",""1"",""2383""
","
","
","""event"",""trial"",""time""
""fullscreenenter"",""1"",""2383""
","
","","","6589.200000047684","[""shark""]","0","13","999","886","","","","","","","","","","","","","","","","","","","",""
"pit-instructions","4","15605","0.0-2.0-1.0-1.0","battery-v0.2","","""event"",""trial"",""time""
""fullscreenenter"",""1"",""2383""
","
","
","""event"",""trial"",""time""
""fullscreenenter"",""1"",""2383""
","
","","[{""page_index"":0,""viewing_time"":1473.5999999046326}]","1473.7999999523163","","","","","","","","","","","","","","","","","","","","","","","","",""
"pit-comprehension","5","22430","0.0-2.0-2.0-0.0","battery-v0.2","","""event"",""trial"",""time""
""fullscreenenter"",""1"",""2383""
","
","
","""event"",""trial"",""time""
""fullscreenenter"",""1"",""2383""
","
","","","6821.799999952316","[""tiger""]","0","13","999","886","","","","","","","","","","","","","","","","","","","",""
"pit-instructions","6","23669","0.0-2.0-2.0-1.0","battery-v0.2","","""event"",""trial"",""time""
""fullscreenenter"",""1"",""2383""
","
","
","""event"",""trial"",""time""
""fullscreenenter"",""1"",""2383""
","
","","[{""page_index"":0,""viewing_time"":1235.2999999523163}]","1235.5999999046326","","","","","","","","","","","","","","","","","","","","","","","","",""
"pit-instructions","7","137893","0.0-2.0-3.0","battery-v0.2","","""event"",""trial"",""time""
""fullscreenenter"",""1"",""2383""
","
","
","""event"",""trial"",""time""
""fullscreenenter"",""1"",""2383""
","
","","[{""page_index"":0,""viewing_time"":9733.200000047684},{""page_index"":1,""viewing_time"":5856},{""page_index"":2,""viewing_time"":7136.5},{""page_index"":3,""viewing_time"":5919.699999809265},{""page_index"":4,""viewing_time"":6807.800000190735},{""page_index"":5,""viewing_time"":7528.299999952316},{""page_index"":6,""viewing_time"":9399.899999856949},{""page_index"":7,""viewing_time"":8256.300000190735},{""page_index"":8,""viewing_time"":6943.599999904633},{""page_index"":9,""viewing_time"":11824},{""page_index"":10,""viewing_time"":7600.099999904633},{""page_index"":11,""viewing_time"":9449},{""page_index"":12,""viewing_time"":6791.100000143051},{""page_index"":13,""viewing_time"":10975.899999856949}]","114221.79999995232","","","","","","","","","","","","","","","","","","","","","","","","",""
"pit-trial","8","141269","0.0-2.0-4.0-0.0","battery-v0.2","","""event"",""trial"",""time""
""fullscreenenter"",""1"",""2383""
","
","
","""event"",""trial"",""time""
""fullscreenenter"",""1"",""2383""
","
","","","515.7999999523163","","","13","999","886","&#9784;","elianto","#FFFFF080"," "," ","1","&#10004","[1366.5999999046326]","1","0","0","","","","","","","","",""
"pit-trial","9","144533","0.0-2.0-4.1-0.1","battery-v0.2","","""event"",""trial"",""time""
""fullscreenenter"",""1"",""2383""
","
","
","""event"",""trial"",""time""
""fullscreenenter"",""1"",""2383""
","
","","","396.30000019073486","","","13","999","886","&#9784;","elianto","#FFFFF080"," "," ","1","&#10004","[1246.2999999523163]","1","0","0","","","","","","","","",""
"pit-trial","10","147667","0.0-2.0-4.2-0.2","battery-v0.2","","""event"",""trial"",""time""
""fullscreenenter"",""1"",""2383""
","
","
","""event"",""trial"",""time""
""fullscreenenter"",""1"",""2383""
","
","","","276.2000000476837","","","13","999","886","&#9784;","elianto","#FFFFF080"," "," ","1","&#10004","[1127.0999999046326]","1","0","0","","","","","","","","",""
"pit-trial","11","151245","0.0-2.0-4.3-0.3","battery-v0.2","","""event"",""trial"",""time""
""fullscreenenter"",""1"",""2383""
","
","
","""event"",""trial"",""time""
""fullscreenenter"",""1"",""2383""
","
","","","708.1999998092651","","","13","999","886","&#9784;","elianto","#FFFFF080"," "," ","1","&#10004","[1561]","1","0","0","","","","","","","","",""
"pit-trial","12","154663","0.0-2.0-4.4-0.4","battery-v0.2","","""event"",""trial"",""time""
""fullscreenenter"",""1"",""2383""
","
","
","""event"",""trial"",""time""
""fullscreenenter"",""1"",""2383""
","
","","","563.7999999523163","","","13","999","886","&#9784;","elianto","#FFFFF080"," "," ","1","&#10004","[1414.5]","1","0","0","","","","","","","","",""
"pit-instructions","13","177061","0.0-2.0-5.0","battery-v0.2","","""event"",""trial"",""time""
""fullscreenenter"",""1"",""2383""
","
","
","""event"",""trial"",""time""
""fullscreenenter"",""1"",""2383""
","
","","[{""page_index"":0,""viewing_time"":4851.599999904633},{""page_index"":1,""viewing_time"":5640.700000047684},{""page_index"":2,""viewing_time"":4679.5},{""page_index"":3,""viewing_time"":7223.700000047684}]","22395.799999952316","","","","","","","","","","","","","","","","","","","","","","","","",""
"pit-trial","14","181914","0.0-2.0-6.0-0.0","battery-v0.2","","""event"",""trial"",""time""
""fullscreenenter"",""1"",""2383""
","
","
","""event"",""trial"",""time""
""fullscreenenter"",""1"",""2383""
","
","","","-1","","","13","999","886","&#9854;","elianto","#FFFFF080","-1","-1","1","&#10004","[]","0","0","1","","","","","","","","",""
"pit-trial","15","186778","0.0-2.0-6.1-0.1","battery-v0.2","","""event"",""trial"",""time""
""fullscreenenter"",""1"",""2383""
","
","
","""event"",""trial"",""time""
""fullscreenenter"",""1"",""2383""
","
","","","-1","","","13","999","886","&#9854;","elianto","#FFFFF080","-1","-1","1","&#10004","[]","0","0","1","","","","","","","","",""
"pit-trial","16","191642","0.0-2.0-6.2-0.2","battery-v0.2","","""event"",""trial"",""time""
""fullscreenenter"",""1"",""2383""
","
","
","""event"",""trial"",""time""
""fullscreenenter"",""1"",""2383""
","
","","","-1","","","13","999","886","&#9854;","elianto","#FFFFF080","-1","-1","1","&#10004","[]","0","0","1","","","","","","","","",""
"pit-trial","17","196517","0.0-2.0-6.3-0.3","battery-v0.2","","""event"",""trial"",""time""
""fullscreenenter"",""1"",""2383""
","
","
","""event"",""trial"",""time""
""fullscreenenter"",""1"",""2383""
","
","","","-1","","","13","999","886","&#9854;","elianto","#FFFFF080","-1","-1","1","&#10004","[]","0","0","1","","","","","","","","",""
"pit-trial","18","201390","0.0-2.0-6.4-0.4","battery-v0.2","","""event"",""trial"",""time""
""fullscreenenter"",""1"",""2383""
","
","
","""event"",""trial"",""time""
""fullscreenenter"",""1"",""2383""
","
","","","-1","","","13","999","886","&#9854;","elianto","#FFFFF080","-1","-1","1","&#10004","[]","0","0","1","","","","","","","","",""
"pit-instructions","19","328869","0.0-2.0-7.0","battery-v0.2","","""event"",""trial"",""time""
""fullscreenenter"",""1"",""2383""
","
","
","""event"",""trial"",""time""
""fullscreenenter"",""1"",""2383""
","
","","[{""page_index"":0,""viewing_time"":5805.100000143051},{""page_index"":1,""viewing_time"":7913},{""page_index"":2,""viewing_time"":8238.899999856949},{""page_index"":3,""viewing_time"":6111.900000095367},{""page_index"":4,""viewing_time"":5927.899999856949},{""page_index"":5,""viewing_time"":5408.200000047684},{""page_index"":6,""viewing_time"":5983.799999952316},{""page_index"":7,""viewing_time"":8216},{""page_index"":8,""viewing_time"":8624.100000143051},{""page_index"":9,""viewing_time"":7560},{""page_index"":10,""viewing_time"":8184.200000047684},{""page_index"":11,""viewing_time"":5464.099999904633},{""page_index"":12,""viewing_time"":7608},{""page_index"":13,""viewing_time"":8367.799999952316},{""page_index"":14,""viewing_time"":7240},{""page_index"":15,""viewing_time"":7888.200000047684},{""page_index"":16,""viewing_time"":6127.799999952316},{""page_index"":17,""viewing_time"":6808.100000143051}]","127477.5","","","","","","","","","","","","","","","","","","","","","","","","",""
"pit-trial","20","332343","0.0-2.0-8.0-0.0","battery-v0.2","","""event"",""trial"",""time""
""fullscreenenter"",""1"",""2383""
","
","
","""event"",""trial"",""time""
""fullscreenenter"",""1"",""2383""
","
","","","619.2000000476837","","","13","999","886","&#9776;","elianto","#3366ff99"," "," ","1","+10","[1470.9000000953674]","1","0","1","","","","","","","","",""
"pit-trial","21","335670","0.0-2.0-8.0-1.0","battery-v0.2","","""event"",""trial"",""time""
""fullscreenenter"",""1"",""2383""
","
","
","""event"",""trial"",""time""
""fullscreenenter"",""1"",""2383""
","
","","","466.19999980926514","","","13","999","886","&#9776;","elianto","#3366ff99"," "," ","1","+10","[1317.1999998092651]","1","0","1","","","","","","","","",""
"pit-trial","22","339078","0.0-2.0-8.0-2.0","battery-v0.2","","""event"",""trial"",""time""
""fullscreenenter"",""1"",""2383""
","
","
","""event"",""trial"",""time""
""fullscreenenter"",""1"",""2383""
","
","","","547.7000000476837","","","13","999","886","&#9776;","elianto","#3366ff99"," "," ","1","+10","[1398.6000001430511]","1","0","1","","","","","","","","",""
"pit-trial","23","342404","0.0-2.0-8.0-3.0","battery-v0.2","","""event"",""trial"",""time""
""fullscreenenter"",""1"",""2383""
","
","
","""event"",""trial"",""time""
""fullscreenenter"",""1"",""2383""
","
","","","468.5","","","13","999","886","&#9776;","elianto","#3366ff99"," "," ","1","0","[1318.5,3302.5]","2","0","1","","","","","","","","",""
"pit-trial","24","346711","0.0-2.0-8.0-4.0","battery-v0.2","","""event"",""trial"",""time""
""fullscreenenter"",""1"",""2383""
","
","
","""event"",""trial"",""time""
""fullscreenenter"",""1"",""2383""
","
","","","1445.5","","","13","999","886","&#9776;","elianto","#3366ff99"," "," ","1","+10","[2296.4000000953674]","1","0","1","","","","","","","","",""
"call-function","25","346712","0.0-2.0-9.0","battery-v0.2","","""event"",""trial"",""time""
""fullscreenenter"",""1"",""2383""
","
","
","""event"",""trial"",""time""
""fullscreenenter"",""1"",""2383""
","
","","","","","","","","","","","","","","","","","","","","","","","","","","","",""
"pit-instructions","26","386469","0.0-2.0-10.0","battery-v0.2","","""event"",""trial"",""time""
""fullscreenenter"",""1"",""2383""
","
","
","""event"",""trial"",""time""
""fullscreenenter"",""1"",""2383""
","
","","[{""page_index"":0,""viewing_time"":6148.200000047684},{""page_index"":1,""viewing_time"":6856.5},{""page_index"":2,""viewing_time"":9719.900000095367},{""page_index"":3,""viewing_time"":9623.599999904633},{""page_index"":4,""viewing_time"":7408}]","39756.40000009537","","","","","","","","","","","","","","","","","","","","","","","","",""
"pit-trial","27","391340","0.0-2.0-11.0-0.0","battery-v0.2","","""event"",""trial"",""time""
""fullscreenenter"",""1"",""2383""
","
","
","""event"",""trial"",""time""
""fullscreenenter"",""1"",""2383""
","
","","","2004.5999999046326","","","13","999","886","&#9761;","elianto","#3366ff99","-1"," ","0","0","[2855.5999999046326]","1","0","2","","","","","","","","",""
"pit-trial","28","394439","0.0-2.0-11.0-1.0","battery-v0.2","","""event"",""trial"",""time""
""fullscreenenter"",""1"",""2383""
","
","
","""event"",""trial"",""time""
""fullscreenenter"",""1"",""2383""
","
","","","243.09999990463257","","","13","999","886","&#9761;","elianto","#3366ff99","-1"," ","0","0","[1096.9000000953674]","1","0","2","","","","","","","","",""
"pit-trial","29","397560","0.0-2.0-11.0-2.0","battery-v0.2","","""event"",""trial"",""time""
""fullscreenenter"",""1"",""2383""
","
","
","""event"",""trial"",""time""
""fullscreenenter"",""1"",""2383""
","
","","","259.59999990463257","","","13","999","886","&#9761;","elianto","#3366ff99","-1"," ","0","0","[1110]","1","0","2","","","","","","","","",""
"pit-trial","30","402425","0.0-2.0-11.0-3.0","battery-v0.2","","""event"",""trial"",""time""
""fullscreenenter"",""1"",""2383""
","
","
","""event"",""trial"",""time""
""fullscreenenter"",""1"",""2383""
","
","","","-1","","","13","999","886","&#9761;","elianto","#3366ff99","-1","-1","1","0","[]","0","0","2","","","","","","","","",""
"pit-trial","31","407295","0.0-2.0-11.0-4.0","battery-v0.2","","""event"",""trial"",""time""
""fullscreenenter"",""1"",""2383""
","
","
","""event"",""trial"",""time""
""fullscreenenter"",""1"",""2383""
","
","","","-1","","","13","999","886","&#9761;","elianto","#3366ff99","-1","-1","1","+10","[]","0","0","2","","","","","","","","",""
"pit-trial","32","412160","0.0-2.0-11.1-0.1","battery-v0.2","","""event"",""trial"",""time""
""fullscreenenter"",""1"",""2383""
","
","
","""event"",""trial"",""time""
""fullscreenenter"",""1"",""2383""
","
","","","-1","","","13","999","886","&#9761;","elianto","#3366ff99","-1","-1","1","+10","[]","0","0","2","","","","","","","","",""
"pit-trial","33","417026","0.0-2.0-11.1-1.1","battery-v0.2","","""event"",""trial"",""time""
""fullscreenenter"",""1"",""2383""
","
","
","""event"",""trial"",""time""
""fullscreenenter"",""1"",""2383""
","
","","","-1","","","13","999","886","&#9761;","elianto","#3366ff99","-1","-1","1","+10","[]","0","0","2","","","","","","","","",""
"pit-trial","34","421880","0.0-2.0-11.1-2.1","battery-v0.2","","""event"",""trial"",""time""
""fullscreenenter"",""1"",""2383""
","
","
","""event"",""trial"",""time""
""fullscreenenter"",""1"",""2383""
","
","","","-1","","","13","999","886","&#9761;","elianto","#3366ff99","-1","-1","1","+10","[]","0","0","2","","","","","","","","",""
"pit-trial","35","426733","0.0-2.0-11.1-3.1","battery-v0.2","","""event"",""trial"",""time""
""fullscreenenter"",""1"",""2383""
","
","
","""event"",""trial"",""time""
""fullscreenenter"",""1"",""2383""
","
","","","-1","","","13","999","886","&#9761;","elianto","#3366ff99","-1","-1","1","0","[]","0","0","2","","","","","","","","",""
"pit-trial","36","431587","0.0-2.0-11.1-4.1","battery-v0.2","","""event"",""trial"",""time""
""fullscreenenter"",""1"",""2383""
","
","
","""event"",""trial"",""time""
""fullscreenenter"",""1"",""2383""
","
","","","-1","","","13","999","886","&#9761;","elianto","#3366ff99","-1","-1","1","+10","[]","0","0","2","","","","","","","","",""
"call-function","37","431589","0.0-2.0-12.0","battery-v0.2","","""event"",""trial"",""time""
""fullscreenenter"",""1"",""2383""
","
","
","""event"",""trial"",""time""
""fullscreenenter"",""1"",""2383""
","
","","","","","","","","","","","","","","","","","","","","","","","","","","","",""
"pit-instructions","38","464486","0.0-2.0-13.0","battery-v0.2","","""event"",""trial"",""time""
""fullscreenenter"",""1"",""2383""
","
","
","""event"",""trial"",""time""
""fullscreenenter"",""1"",""2383""
","
","","[{""page_index"":0,""viewing_time"":5528},{""page_index"":1,""viewing_time"":7375.900000095367},{""page_index"":2,""viewing_time"":4336},{""page_index"":3,""viewing_time"":10272.199999809265},{""page_index"":4,""viewing_time"":5384.100000143051}]","32896.59999990463","","","","","","","","","","","","","","","","","","","","","","","","",""
"pit-trial","39","469342","0.0-2.0-14.0-0.0","battery-v0.2","","""event"",""trial"",""time""
""fullscreenenter"",""1"",""2383""
","
","
","""event"",""trial"",""time""
""fullscreenenter"",""1"",""2383""
","
","","","-1","","","13","999","886","&#9826;","elianto","#f73b6a7A","-1","-1","1","0","[]","0","0","3","","","","","","","","",""
"pit-trial","40","474206","0.0-2.0-14.0-1.0","battery-v0.2","","""event"",""trial"",""time""
""fullscreenenter"",""1"",""2383""
","
","
","""event"",""trial"",""time""
""fullscreenenter"",""1"",""2383""
","
","","","-1","","","13","999","886","&#9826;","elianto","#f73b6a7A","-1","-1","1","0","[]","0","0","3","","","","","","","","",""
"pit-trial","41","479076","0.0-2.0-14.0-2.0","battery-v0.2","","""event"",""trial"",""time""
""fullscreenenter"",""1"",""2383""
","
","
","""event"",""trial"",""time""
""fullscreenenter"",""1"",""2383""
","
","","","-1","","","13","999","886","&#9826;","elianto","#f73b6a7A","-1","-1","1","0","[]","0","0","3","","","","","","","","",""
"pit-trial","42","483959","0.0-2.0-14.0-3.0","battery-v0.2","","""event"",""trial"",""time""
""fullscreenenter"",""1"",""2383""
","
","
","""event"",""trial"",""time""
""fullscreenenter"",""1"",""2383""
","
","","","-1","","","13","999","886","&#9826;","elianto","#f73b6a7A","-1","-1","1","-10","[]","0","0","3","","","","","","","","",""
"pit-trial","43","488816","0.0-2.0-14.0-4.0","battery-v0.2","","""event"",""trial"",""time""
""fullscreenenter"",""1"",""2383""
","
","
","""event"",""trial"",""time""
""fullscreenenter"",""1"",""2383""
","
","","","-1","","","13","999","886","&#9826;","elianto","#f73b6a7A","-1","-1","1","0","[]","0","0","3","","","","","","","","",""
"call-function","44","488817","0.0-2.0-15.0","battery-v0.2","","""event"",""trial"",""time""
""fullscreenenter"",""1"",""2383""
","
","
","""event"",""trial"",""time""
""fullscreenenter"",""1"",""2383""
","
","","","","","","","","","","","","","","","","","","","","","","","","","","","",""
"pit-instructions","45","513294","0.0-2.0-16.0","battery-v0.2","","""event"",""trial"",""time""
""fullscreenenter"",""1"",""2383""
","
","
","""event"",""trial"",""time""
""fullscreenenter"",""1"",""2383""
","
","","[{""page_index"":0,""viewing_time"":6892.200000047684},{""page_index"":1,""viewing_time"":8759.900000095367},{""page_index"":2,""viewing_time"":4104.099999904633},{""page_index"":3,""viewing_time"":4719.799999952316}]","24476.400000095367","","","","","","","","","","","","","","","","","","","","","","","","",""
"pit-trial","46","517226","0.0-2.0-17.0-0.0","battery-v0.2","","""event"",""trial"",""time""
""fullscreenenter"",""1"",""2383""
","
","
","""event"",""trial"",""time""
""fullscreenenter"",""1"",""2383""
","
","","","1076.5999999046326","","","13","999","886","&#9789;","elianto","#f73b6a7A"," "," ","1","0","[1927.4000000953674,2463.4000000953674]","2","0","4","","","","","","","","",""
"pit-trial","47","520630","0.0-2.0-17.0-1.0","battery-v0.2","","""event"",""trial"",""time""
""fullscreenenter"",""1"",""2383""
","
","
","""event"",""trial"",""time""
""fullscreenenter"",""1"",""2383""
","
","","","544.8999998569489","","","13","999","886","&#9789;","elianto","#f73b6a7A"," "," ","1","0","[1395.0999999046326]","1","0","4","","","","","","","","",""
"pit-trial","48","523925","0.0-2.0-17.0-2.0","battery-v0.2","","""event"",""trial"",""time""
""fullscreenenter"",""1"",""2383""
","
","
","""event"",""trial"",""time""
""fullscreenenter"",""1"",""2383""
","
","","","427","","","13","999","886","&#9789;","elianto","#f73b6a7A"," "," ","1","0","[1278.7000000476837]","1","0","4","","","","","","","","",""
"pit-trial","49","527267","0.0-2.0-17.0-3.0","battery-v0.2","","""event"",""trial"",""time""
""fullscreenenter"",""1"",""2383""
","
","
","""event"",""trial"",""time""
""fullscreenenter"",""1"",""2383""
","
","","","476.7000000476837","","","13","999","886","&#9789;","elianto","#f73b6a7A"," "," ","1","-10","[1327.2000000476837]","1","0","4","","","","","","","","",""
"pit-trial","50","530367","0.0-2.0-17.0-4.0","battery-v0.2","","""event"",""trial"",""time""
""fullscreenenter"",""1"",""2383""
","
","
","""event"",""trial"",""time""
""fullscreenenter"",""1"",""2383""
","
","","","245.59999990463257","","","13","999","886","&#9789;","elianto","#f73b6a7A"," "," ","1","0","[1097.0999999046326]","1","0","4","","","","","","","","",""
"call-function","51","530368","0.0-2.0-18.0","battery-v0.2","","""event"",""trial"",""time""
""fullscreenenter"",""1"",""2383""
","
","
","""event"",""trial"",""time""
""fullscreenenter"",""1"",""2383""
","
","","","","","","","","","","","","","","","","","","","","","","","","","","","",""
"pit-instructions","52","605023","0.0-2.0-19.0","battery-v0.2","","""event"",""trial"",""time""
""fullscreenenter"",""1"",""2383""
","
","
","""event"",""trial"",""time""
""fullscreenenter"",""1"",""2383""
","
","","[{""page_index"":0,""viewing_time"":6589.300000190735},{""page_index"":1,""viewing_time"":6679.299999952316},{""page_index"":2,""viewing_time"":13904.200000047684},{""page_index"":3,""viewing_time"":7887.799999952316},{""page_index"":4,""viewing_time"":9912.200000047684},{""page_index"":5,""viewing_time"":8303.5},{""page_index"":6,""viewing_time"":9833.399999856949},{""page_index"":7,""viewing_time"":6952},{""page_index"":8,""viewing_time"":4592.299999952316}]","74654.30000019073","","","","","","","","","","","","","","","","","","","","","","","","",""
"pit-comprehension","53","610439","0.0-2.0-20.0-0.0","battery-v0.2","","""event"",""trial"",""time""
""fullscreenenter"",""1"",""2383""
","
","
","""event"",""trial"",""time""
""fullscreenenter"",""1"",""2383""
","
","","","5412.299999952316","[""SPACE""]","0","13","999","886","","","","","","","","","","","","","","","","","","","",""
"pit-instructions","54","613118","0.0-2.0-20.0-1.0","battery-v0.2","","""event"",""trial"",""time""
""fullscreenenter"",""1"",""2383""
","
","
","""event"",""trial"",""time""
""fullscreenenter"",""1"",""2383""
","
","","[{""page_index"":0,""viewing_time"":2660.2000000476837}]","2660.5","","","","","","","","","","","","","","","","","","","","","","","","",""
"pit-comprehension","55","621311","0.0-2.0-21.0-0.0","battery-v0.2","","""event"",""trial"",""time""
""fullscreenenter"",""1"",""2383""
","
","
","""event"",""trial"",""time""
""fullscreenenter"",""1"",""2383""
","
","","","8190.200000047684","[""10""]","0","13","999","886","","","","","","","","","","","","","","","","","","","",""
"pit-instructions","56","623150","0.0-2.0-21.0-1.0","battery-v0.2","","""event"",""trial"",""time""
""fullscreenenter"",""1"",""2383""
","
","
","""event"",""trial"",""time""
""fullscreenenter"",""1"",""2383""
","
","","[{""page_index"":0,""viewing_time"":1820.3000001907349}]","1820.7000000476837","","","","","","","","","","","","","","","","","","","","","","","","",""
"pit-comprehension","57","634078","0.0-2.0-22.0-0.0","battery-v0.2","","""event"",""trial"",""time""
""fullscreenenter"",""1"",""2383""
","
","
","""event"",""trial"",""time""
""fullscreenenter"",""1"",""2383""
","
","","","10925.199999809265","[""0""]","0","13","999","886","","","","","","","","","","","","","","","","","","","",""
"pit-instructions","58","635558","0.0-2.0-22.0-1.0","battery-v0.2","","""event"",""trial"",""time""
""fullscreenenter"",""1"",""2383""
","
","
","""event"",""trial"",""time""
""fullscreenenter"",""1"",""2383""
","
","","[{""page_index"":0,""viewing_time"":1458.5999999046326}]","1458.7999999523163","","","","","","","","","","","","","","","","","","","","","","","","",""
"pit-comprehension","59","648238","0.0-2.0-23.0-0.0","battery-v0.2","","""event"",""trial"",""time""
""fullscreenenter"",""1"",""2383""
","
","
","""event"",""trial"",""time""
""fullscreenenter"",""1"",""2383""
","
","","","12677.399999856949","[""True""]","0","13","999","886","","","","","","","","","","","","","","","","","","","",""
"pit-instructions","60","655261","0.0-2.0-23.0-1.0","battery-v0.2","","""event"",""trial"",""time""
""fullscreenenter"",""1"",""2383""
","
","
","""event"",""trial"",""time""
""fullscreenenter"",""1"",""2383""
","
","","[{""page_index"":0,""viewing_time"":7004.599999904633}]","7004.899999856949","","","","","","","","","","","","","","","","","","","","","","","","",""
"pit-comprehension","61","663958","0.0-2.0-24.0-0.0","battery-v0.2","","""event"",""trial"",""time""
""fullscreenenter"",""1"",""2383""
","
","
","""event"",""trial"",""time""
""fullscreenenter"",""1"",""2383""
","
","","","8694.200000047684","[""True""]","0","13","999","886","","","","","","","","","","","","","","","","","","","",""
"pit-instructions","62","665829","0.0-2.0-24.0-1.0","battery-v0.2","","""event"",""trial"",""time""
""fullscreenenter"",""1"",""2383""
","
","
","""event"",""trial"",""time""
""fullscreenenter"",""1"",""2383""
","
","","[{""page_index"":0,""viewing_time"":1847.2999999523163}]","1847.5","","","","","","","","","","","","","","","","","","","","","","","","",""
"pit-comprehension","63","672910","0.0-2.0-25.0-0.0","battery-v0.2","","""event"",""trial"",""time""
""fullscreenenter"",""1"",""2383""
","
","
","""event"",""trial"",""time""
""fullscreenenter"",""1"",""2383""
","
","","","7078.100000143051","[""True""]","0","13","999","886","","","","","","","","","","","","","","","","","","","",""
"pit-instructions","64","675078","0.0-2.0-25.0-1.0","battery-v0.2","","""event"",""trial"",""time""
""fullscreenenter"",""1"",""2383""
","
","
","""event"",""trial"",""time""
""fullscreenenter"",""1"",""2383""
","
","","[{""page_index"":0,""viewing_time"":2147.9000000953674}]","2148.2000000476837","","","","","","","","","","","","","","","","","","","","","","","","",""
"pit-comprehension","65","681598","0.0-2.0-26.0-0.0","battery-v0.2","","""event"",""trial"",""time""
""fullscreenenter"",""1"",""2383""
","
","
","""event"",""trial"",""time""
""fullscreenenter"",""1"",""2383""
","
","","","6518.099999904633","[""False""]","0","13","999","886","","","","","","","","","","","","","","","","","","","",""
"pit-instructions","66","683861","0.0-2.0-26.0-1.0","battery-v0.2","","""event"",""trial"",""time""
""fullscreenenter"",""1"",""2383""
","
","
","""event"",""trial"",""time""
""fullscreenenter"",""1"",""2383""
","
","","[{""page_index"":0,""viewing_time"":2242.9000000953674}]","2243.2000000476837","","","","","","","","","","","","","","","","","","","","","","","","",""
"pit-instructions","67","706926","0.0-3.0","battery-v0.2","","""event"",""trial"",""time""
""fullscreenenter"",""1"",""2383""
","
","
","""event"",""trial"",""time""
""fullscreenenter"",""1"",""2383""
","
","","[{""page_index"":0,""viewing_time"":4206.100000143051},{""page_index"":1,""viewing_time"":7112.299999952316},{""page_index"":0,""viewing_time"":855.9000000953674},{""page_index"":1,""viewing_time"":3631.899999856949},{""page_index"":2,""viewing_time"":7256.400000095367}]","23062.700000047684","","","","","","","","","","","","","","","","","","","","","","","","",""
"pit-trial","68","710439","0.0-4.0","battery-v0.2","","""event"",""trial"",""time""
""fullscreenenter"",""1"",""2383""
","
","
","""event"",""trial"",""time""
""fullscreenenter"",""1"",""2383""
","
","","","651","","","13","999","886","&#9733;","elianto","#3366ff99","-1"," ","0","0","[1501.0999999046326]","1","1","","","999","1","2","2","win","no-go","0","[]"
"pit-trial","69","714984","0.0-5.0","battery-v0.2","","""event"",""trial"",""time""
""fullscreenenter"",""1"",""2383""
","
","
","""event"",""trial"",""time""
""fullscreenenter"",""1"",""2383""
","
","","","1691.7000000476837","","","13","999","886","&#9730;","elianto","#3366ff99"," "," ","1","+10","[2542.399999856949]","1","1","","","999","2","1","1","win","go","0","0"
"pit-trial","70","719080","0.0-6.0","battery-v0.2","","""event"",""trial"",""time""
""fullscreenenter"",""1"",""2383""
","
","
","""event"",""trial"",""time""
""fullscreenenter"",""1"",""2383""
","
","","","1234.7999999523163","","","13","999","886","&#9728;","elianto","#f73b6a7A","-1"," ","0","-10","[2085.5]","1","1","","","999","3","0","4","lose","no-go","0","0"
"pit-trial","71","722985","0.0-7.0","battery-v0.2","","""event"",""trial"",""time""
""fullscreenenter"",""1"",""2383""
","
","
","""event"",""trial"",""time""
""fullscreenenter"",""1"",""2383""
","
","","","1042.0999999046326","","","13","999","886","&#9752;","elianto","#f73b6a7A"," "," ","1","0","[1893.5]","1","1","","","999","4","3","3","lose","go","0","0"
"pit-trial","72","727855","0.0-8.0","battery-v0.2","","""event"",""trial"",""time""
""fullscreenenter"",""1"",""2383""
","
","
","""event"",""trial"",""time""
""fullscreenenter"",""1"",""2383""
","
","","","-1","","","13","999","886","&#9728;","elianto","#f73b6a7A","-1","-1","1","-10","[]","0","1","","","999","5","0","4","lose","no-go","1","0"
"pit-trial","73","732709","0.0-9.0","battery-v0.2","","""event"",""trial"",""time""
""fullscreenenter"",""1"",""2383""
","
","
","""event"",""trial"",""time""
""fullscreenenter"",""1"",""2383""
","
","","","-1","","","13","999","886","&#9730;","elianto","#3366ff99"," ","-1","0","0","[]","0","1","","","999","6","1","1","win","go","0","0"
"pit-trial","74","736189","0.0-10.0","battery-v0.2","","""event"",""trial"",""time""
""fullscreenenter"",""1"",""2383""
","
","
","""event"",""trial"",""time""
""fullscreenenter"",""1"",""2383""
","
","","","620.5","","","13","999","886","&#9733;","elianto","#3366ff99","-1"," ","0","+10","[1472.7999999523163]","1","1","","","999","7","2","2","win","no-go","1","0"
"pit-trial","75","739864","0.0-11.0","battery-v0.2","","""event"",""trial"",""time""
""fullscreenenter"",""1"",""2383""
","
","
","""event"",""trial"",""time""
""fullscreenenter"",""1"",""2383""
","
","","","821.5","","","13","999","886","&#9752;","elianto","#f73b6a7A"," "," ","1","0","[1673.2000000476837]","1","1","","","999","8","3","3","lose","go","0","0"
"pit-trial","76","743360","0.0-12.0","battery-v0.2","","""event"",""trial"",""time""
""fullscreenenter"",""1"",""2383""
","
","
","""event"",""trial"",""time""
""fullscreenenter"",""1"",""2383""
","
","","","634.5","","","13","999","886","&#9733;","elianto","#3366ff99","-1"," ","0","0","[1485.5999999046326]","1","1","","","999","9","2","2","win","no-go","0","0"
"pit-trial","77","747185","0.0-13.0","battery-v0.2","","""event"",""trial"",""time""
""fullscreenenter"",""1"",""2383""
","
","
","""event"",""trial"",""time""
""fullscreenenter"",""1"",""2383""
","
","","","970.7999999523163","","","13","999","886","&#9752;","elianto","#f73b6a7A"," "," ","1","0","[1822]","1","1","","","999","10","3","3","lose","go","0","0"
"pit-trial","78","750521","0.0-14.0","battery-v0.2","","""event"",""trial"",""time""
""fullscreenenter"",""1"",""2383""
","
","
","""event"",""trial"",""time""
""fullscreenenter"",""1"",""2383""
","
","","","482.89999985694885","","","13","999","886","&#9730;","elianto","#3366ff99"," "," ","1","+10","[1332.8999998569489]","1","1","","","999","11","1","1","win","go","0","0"
"pit-trial","79","754337","0.0-15.0","battery-v0.2","","""event"",""trial"",""time""
""fullscreenenter"",""1"",""2383""
","
","
","""event"",""trial"",""time""
""fullscreenenter"",""1"",""2383""
","
","","","961.7000000476837","","","13","999","886","&#9728;","elianto","#f73b6a7A","-1"," ","0","0","[1812.7999999523163]","1","1","","","999","12","0","4","lose","no-go","1","0"
"pit-trial","80","759191","0.0-16.0","battery-v0.2","","""event"",""trial"",""time""
""fullscreenenter"",""1"",""2383""
","
","
","""event"",""trial"",""time""
""fullscreenenter"",""1"",""2383""
","
","","","-1","","","13","999","886","&#9733;","elianto","#3366ff99","-1","-1","1","0","[4805.100000143051]","1","1","","","999","13","2","2","win","no-go","1","0"
"pit-trial","81","763344","0.0-17.0","battery-v0.2","","""event"",""trial"",""time""
""fullscreenenter"",""1"",""2383""
","
","
","""event"",""trial"",""time""
""fullscreenenter"",""1"",""2383""
","
","","","1300.7000000476837","","","13","999","886","&#9730;","elianto","#3366ff99"," "," ","1","+10","[2150.7999999523163]","1","1","","","999","14","1","1","win","go","0","0"
"pit-trial","82","768198","0.0-18.0","battery-v0.2","","""event"",""trial"",""time""
""fullscreenenter"",""1"",""2383""
","
","
","""event"",""trial"",""time""
""fullscreenenter"",""1"",""2383""
","
","","","-1","","","13","999","886","&#9728;","elianto","#f73b6a7A","-1","-1","1","-10","[]","0","1","","","999","15","0","4","lose","no-go","1","0"
"pit-trial","83","771688","0.0-19.0","battery-v0.2","","""event"",""trial"",""time""
""fullscreenenter"",""1"",""2383""
","
","
","""event"",""trial"",""time""
""fullscreenenter"",""1"",""2383""
","
","","","635.9000000953674","","","13","999","886","&#9752;","elianto","#f73b6a7A"," "," ","1","0","[1486.5]","1","1","","","999","16","3","3","lose","go","0","0"
"pit-trial","84","775240","0.0-20.0","battery-v0.2","","""event"",""trial"",""time""
""fullscreenenter"",""1"",""2383""
","
","
","""event"",""trial"",""time""
""fullscreenenter"",""1"",""2383""
","
","","","698.9000000953674","","","13","999","886","&#9730;","elianto","#3366ff99"," "," ","1","+10","[1548.8999998569489]","1","1","","","999","17","1","1","win","go","0","0"
"pit-trial","85","778704","0.0-21.0","battery-v0.2","","""event"",""trial"",""time""
""fullscreenenter"",""1"",""2383""
","
","
","""event"",""trial"",""time""
""fullscreenenter"",""1"",""2383""
","
","","","608.9000000953674","","","13","999","886","&#9733;","elianto","#3366ff99","-1"," ","0","0","[1460.9000000953674,2348.9000000953674]","2","1","","","999","18","2","2","win","no-go","0","0"
"pit-trial","86","782025","0.0-22.0","battery-v0.2","","""event"",""trial"",""time""
""fullscreenenter"",""1"",""2383""
","
","
","""event"",""trial"",""time""
""fullscreenenter"",""1"",""2383""
","
","","","465.09999990463257","","","13","999","886","&#9752;","elianto","#f73b6a7A"," "," ","1","0","[1317,3116.5999999046326]","2","1","","","999","19","3","3","lose","go","0","0"
"pit-trial","87","785352","0.0-23.0","battery-v0.2","","""event"",""trial"",""time""
""fullscreenenter"",""1"",""2383""
","
","
","""event"",""trial"",""time""
""fullscreenenter"",""1"",""2383""
","
","","","471.7999999523163","","","13","999","886","&#9728;","elianto","#f73b6a7A","-1"," ","0","-10","[1323.2000000476837]","1","1","","","999","20","0","4","lose","no-go","0","0"
"pit-instructions","88","811758","0.0-24.0","battery-v0.2","","""event"",""trial"",""time""
""fullscreenenter"",""1"",""2383""
","
","
","""event"",""trial"",""time""
""fullscreenenter"",""1"",""2383""
","
","","[{""page_index"":0,""viewing_time"":6003.899999856949},{""page_index"":1,""viewing_time"":20400.200000047684}]","26404.39999985695","","","","","","","","","","","","","","","","","","","","","","","","",""
"pit-trial","89","815613","0.0-25.0","battery-v0.2","","""event"",""trial"",""time""
""fullscreenenter"",""1"",""2383""
","
","
","""event"",""trial"",""time""
""fullscreenenter"",""1"",""2383""
","
","","","987.2999999523163","","","13","999","886","r","elianto","#f73b6a7A"," "," ","1","0","[1837.8999998569489]","1","2","","","999","21","1","3","lose","go","0","0"
"pit-trial","90","819396","0.0-26.0","battery-v0.2","","""event"",""trial"",""time""
""fullscreenenter"",""1"",""2383""
","
","
","""event"",""trial"",""time""
""fullscreenenter"",""1"",""2383""
","
","","","917.2000000476837","","","13","999","886","y","elianto","#f73b6a7A","-1"," ","0","0","[1768.5]","1","2","","","999","22","2","4","lose","no-go","1","0"
"pit-trial","91","822957","0.0-27.0","battery-v0.2","","""event"",""trial"",""time""
""fullscreenenter"",""1"",""2383""
","
","
","""event"",""trial"",""time""
""fullscreenenter"",""1"",""2383""
","
","","","702.2999999523163","","","13","999","886","h","elianto","#3366ff99"," "," ","1","+10","[1552.6000001430511]","1","2","","","999","23","3","1","win","go","0","0"
"pit-trial","92","827820","0.0-28.0","battery-v0.2","","""event"",""trial"",""time""
""fullscreenenter"",""1"",""2383""
","
","
","""event"",""trial"",""time""
""fullscreenenter"",""1"",""2383""
","
","","","-1","","","13","999","886","m","elianto","#3366ff99","-1","-1","1","+10","[]","0","2","","","999","24","0","2","win","no-go","0","0"
"pit-trial","93","831440","0.0-29.0","battery-v0.2","","""event"",""trial"",""time""
""fullscreenenter"",""1"",""2383""
","
","
","""event"",""trial"",""time""
""fullscreenenter"",""1"",""2383""
","
","","","766.5","","","13","999","886","h","elianto","#3366ff99"," "," ","1","0","[1617.3000001907349]","1","2","","","999","25","3","1","win","go","1","0"
"pit-trial","94","835472","0.0-30.0","battery-v0.2","","""event"",""trial"",""time""
""fullscreenenter"",""1"",""2383""
","
","
","""event"",""trial"",""time""
""fullscreenenter"",""1"",""2383""
","
","","","1178.6000001430511","","","13","999","886","y","elianto","#f73b6a7A","-1"," ","0","0","[2029.7000000476837]","1","2","","","999","26","2","4","lose","no-go","1","0"
"pit-trial","95","840327","0.0-31.0","battery-v0.2","","""event"",""trial"",""time""
""fullscreenenter"",""1"",""2383""
","
","
","""event"",""trial"",""time""
""fullscreenenter"",""1"",""2383""
","
","","","-1","","","13","999","886","m","elianto","#3366ff99","-1","-1","1","+10","[]","0","2","","","999","27","0","2","win","no-go","0","0"
"pit-trial","96","844480","0.0-32.0","battery-v0.2","","""event"",""trial"",""time""
""fullscreenenter"",""1"",""2383""
","
","
","""event"",""trial"",""time""
""fullscreenenter"",""1"",""2383""
","
","","","1299.7000000476837","","","13","999","886","r","elianto","#f73b6a7A"," "," ","1","0","[2151]","1","2","","","999","28","1","3","lose","go","0","0"
"pit-trial","97","848728","0.0-33.0","battery-v0.2","","""event"",""trial"",""time""
""fullscreenenter"",""1"",""2383""
","
","
","""event"",""trial"",""time""
""fullscreenenter"",""1"",""2383""
","
","","","1394.1000001430511","","","13","999","886","h","elianto","#3366ff99"," "," ","1","0","[2245]","1","2","","","999","29","3","1","win","go","1","0"
"pit-trial","98","852536","0.0-34.0","battery-v0.2","","""event"",""trial"",""time""
""fullscreenenter"",""1"",""2383""
","
","
","""event"",""trial"",""time""
""fullscreenenter"",""1"",""2383""
","
","","","955.2999999523163","","","13","999","886","r","elianto","#f73b6a7A"," "," ","1","-10","[1805.5]","1","2","","","999","30","1","3","lose","go","1","0"
"pit-trial","99","856185","0.0-35.0","battery-v0.2","","""event"",""trial"",""time""
""fullscreenenter"",""1"",""2383""
","
","
","""event"",""trial"",""time""
""fullscreenenter"",""1"",""2383""
","
","","","795.6999998092651","","","13","999","886","m","elianto","#3366ff99","-1"," ","0","0","[1645.9000000953674]","1","2","","","999","31","0","2","win","no-go","0","0"
"pit-trial","100","860312","0.0-36.0","battery-v0.2","","""event"",""trial"",""time""
""fullscreenenter"",""1"",""2383""
","
","
","""event"",""trial"",""time""
""fullscreenenter"",""1"",""2383""
","
","","","1273.4000000953674","","","13","999","886","y","elianto","#f73b6a7A","-1"," ","0","-10","[2124.600000143051]","1","2","","","999","32","2","4","lose","no-go","0","0"
"pit-trial","101","865167","0.0-37.0","battery-v0.2","","""event"",""trial"",""time""
""fullscreenenter"",""1"",""2383""
","
","
","""event"",""trial"",""time""
""fullscreenenter"",""1"",""2383""
","
","","","-1","","","13","999","886","m","elianto","#3366ff99","-1","-1","1","+10","[]","0","2","","","999","33","0","2","win","no-go","0","0"
"pit-trial","102","869576","0.0-38.0","battery-v0.2","","""event"",""trial"",""time""
""fullscreenenter"",""1"",""2383""
","
","
","""event"",""trial"",""time""
""fullscreenenter"",""1"",""2383""
","
","","","1555.8999998569489","","","13","999","886","y","elianto","#f73b6a7A","-1"," ","0","-10","[2406.9000000953674]","1","2","","","999","34","2","4","lose","no-go","0","0"
"pit-trial","103","874430","0.0-39.0","battery-v0.2","","""event"",""trial"",""time""
""fullscreenenter"",""1"",""2383""
","
","
","""event"",""trial"",""time""
""fullscreenenter"",""1"",""2383""
","
","","","-1","","","13","999","886","h","elianto","#3366ff99"," ","-1","0","0","[]","0","2","","","999","35","3","1","win","go","0","0"
"pit-trial","104","878288","0.0-40.0","battery-v0.2","","""event"",""trial"",""time""
""fullscreenenter"",""1"",""2383""
","
","
","""event"",""trial"",""time""
""fullscreenenter"",""1"",""2383""
","
","","","1004.2000000476837","","","13","999","886","r","elianto","#f73b6a7A"," "," ","1","0","[1855]","1","2","","","999","36","1","3","lose","go","0","0"
"pit-trial","105","883143","0.0-41.0","battery-v0.2","","""event"",""trial"",""time""
""fullscreenenter"",""1"",""2383""
","
","
","""event"",""trial"",""time""
""fullscreenenter"",""1"",""2383""
","
","","","-1","","","13","999","886","m","elianto","#3366ff99","-1","-1","1","0","[]","0","2","","","999","37","0","2","win","no-go","1","0"
"pit-trial","106","886928","0.0-42.0","battery-v0.2","","""event"",""trial"",""time""
""fullscreenenter"",""1"",""2383""
","
","
","""event"",""trial"",""time""
""fullscreenenter"",""1"",""2383""
","
","","","932.5","","","13","999","886","h","elianto","#3366ff99"," "," ","1","+10","[1782.4000000953674]","1","2","","","999","38","3","1","win","go","0","0"
"pit-trial","107","890736","0.0-43.0","battery-v0.2","","""event"",""trial"",""time""
""fullscreenenter"",""1"",""2383""
","
","
","""event"",""trial"",""time""
""fullscreenenter"",""1"",""2383""
","
","","","954.2000000476837","","","13","999","886","r","elianto","#f73b6a7A"," "," ","1","-10","[1805.2000000476837]","1","2","","","999","39","1","3","lose","go","1","0"
"pit-trial","108","894409","0.0-44.0","battery-v0.2","","""event"",""trial"",""time""
""fullscreenenter"",""1"",""2383""
","
","
","""event"",""trial"",""time""
""fullscreenenter"",""1"",""2383""
","
","","","818.5","","","13","999","886","y","elianto","#f73b6a7A","-1"," ","0","-10","[1669.4000000953674]","1","2","","","999","40","2","4","lose","no-go","0","0"
"pit-trial","109","897953","0.0-45.0","battery-v0.2","","""event"",""trial"",""time""
""fullscreenenter"",""1"",""2383""
","
","
","""event"",""trial"",""time""
""fullscreenenter"",""1"",""2383""
","
","","","689.7999999523163","","","13","999","886","r","elianto","#f73b6a7A"," "," ","1","0","[1540.5999999046326]","1","2","","","999","41","1","3","lose","go","0","0"
"pit-trial","110","901616","0.0-46.0","battery-v0.2","","""event"",""trial"",""time""
""fullscreenenter"",""1"",""2383""
","
","
","""event"",""trial"",""time""
""fullscreenenter"",""1"",""2383""
","
","","","809.3999998569489","","","13","999","886","m","elianto","#3366ff99","-1"," ","0","0","[1660.2999999523163]","1","2","","","999","42","0","2","win","no-go","0","0"
"pit-trial","111","905337","0.0-47.0","battery-v0.2","","""event"",""trial"",""time""
""fullscreenenter"",""1"",""2383""
","
","
","""event"",""trial"",""time""
""fullscreenenter"",""1"",""2383""
","
","","","865.5","","","13","999","886","y","elianto","#f73b6a7A","-1"," ","0","0","[1717.2999999523163]","1","2","","","999","43","2","4","lose","no-go","1","0"
"pit-trial","112","908952","0.0-48.0","battery-v0.2","","""event"",""trial"",""time""
""fullscreenenter"",""1"",""2383""
","
","
","""event"",""trial"",""time""
""fullscreenenter"",""1"",""2383""
","
","","","761.2000000476837","","","13","999","886","h","elianto","#3366ff99"," "," ","1","+10","[1612.7999999523163]","1","2","","","999","44","3","1","win","go","0","0"
"pit-trial","113","912656","0.0-49.0","battery-v0.2","","""event"",""trial"",""time""
""fullscreenenter"",""1"",""2383""
","
","
","""event"",""trial"",""time""
""fullscreenenter"",""1"",""2383""
","
","","","850.5","","","13","999","886","y","elianto","#f73b6a7A","-1"," ","0","-10","[1700.7999999523163]","1","2","","","999","45","2","4","lose","no-go","0","0"
"pit-trial","114","916376","0.0-50.0","battery-v0.2","","""event"",""trial"",""time""
""fullscreenenter"",""1"",""2383""
","
","
","""event"",""trial"",""time""
""fullscreenenter"",""1"",""2383""
","
","","","867.0999999046326","","","13","999","886","m","elianto","#3366ff99","-1"," ","0","0","[1717.0999999046326]","1","2","","","999","46","0","2","win","no-go","0","0"
"pit-trial","115","920176","0.0-51.0","battery-v0.2","","""event"",""trial"",""time""
""fullscreenenter"",""1"",""2383""
","
","
","""event"",""trial"",""time""
""fullscreenenter"",""1"",""2383""
","
","","","947.2000000476837","","","13","999","886","h","elianto","#3366ff99"," "," ","1","0","[1797.3000001907349]","1","2","","","999","47","3","1","win","go","1","0"
"pit-trial","116","925030","0.0-52.0","battery-v0.2","","""event"",""trial"",""time""
""fullscreenenter"",""1"",""2383""
","
","
","""event"",""trial"",""time""
""fullscreenenter"",""1"",""2383""
","
","","","-1","","","13","999","886","r","elianto","#f73b6a7A"," ","-1","0","-10","[]","0","2","","","999","48","1","3","lose","go","0","0"
"pit-trial","117","928680","0.0-53.0","battery-v0.2","","""event"",""trial"",""time""
""fullscreenenter"",""1"",""2383""
","
","
","""event"",""trial"",""time""
""fullscreenenter"",""1"",""2383""
","
","","","796.1999998092651","","","13","999","886","m","elianto","#3366ff99","-1"," ","0","0","[1647.1999998092651]","1","2","","","999","49","0","2","win","no-go","0","0"
"pit-trial","118","932136","0.0-54.0","battery-v0.2","","""event"",""trial"",""time""
""fullscreenenter"",""1"",""2383""
","
","
","""event"",""trial"",""time""
""fullscreenenter"",""1"",""2383""
","
","","","603.2999999523163","","","13","999","886","h","elianto","#3366ff99"," "," ","1","+10","[1453.2999999523163]","1","2","","","999","50","3","1","win","go","0","0"
"pit-trial","119","935960","0.0-55.0","battery-v0.2","","""event"",""trial"",""time""
""fullscreenenter"",""1"",""2383""
","
","
","""event"",""trial"",""time""
""fullscreenenter"",""1"",""2383""
","
","","","971.2000000476837","","","13","999","886","y","elianto","#f73b6a7A","-1"," ","0","0","[1821.4000000953674]","1","2","","","999","51","2","4","lose","no-go","1","0"
"pit-trial","120","940608","0.0-56.0","battery-v0.2","","""event"",""trial"",""time""
""fullscreenenter"",""1"",""2383""
","
","
","""event"",""trial"",""time""
""fullscreenenter"",""1"",""2383""
","
","","","1795.5","","","13","999","886","r","elianto","#f73b6a7A"," "," ","1","0","[2645.5999999046326]","1","2","","","999","52","1","3","lose","go","0","0"
"pit-trial","121","944304","0.0-57.0","battery-v0.2","","""event"",""trial"",""time""
""fullscreenenter"",""1"",""2383""
","
","
","""event"",""trial"",""time""
""fullscreenenter"",""1"",""2383""
","
","","","843.2999999523163","","","13","999","886","r","elianto","#f73b6a7A"," "," ","1","0","[1693.5]","1","2","","","999","53","1","3","lose","go","0","0"
"pit-trial","122","948128","0.0-58.0","battery-v0.2","","""event"",""trial"",""time""
""fullscreenenter"",""1"",""2383""
","
","
","""event"",""trial"",""time""
""fullscreenenter"",""1"",""2383""
","
","","","970.0999999046326","","","13","999","886","c","elianto","#f73b6a7A","-1"," ","0","-10","[1821.0999999046326]","1","2","","","999","54","5","4","lose","no-go","0","0"
"pit-trial","123","951944","0.0-59.0","battery-v0.2","","""event"",""trial"",""time""
""fullscreenenter"",""1"",""2383""
","
","
","""event"",""trial"",""time""
""fullscreenenter"",""1"",""2383""
","
","","","962.5","","","13","999","886","y","elianto","#f73b6a7A","-1"," ","0","-10","[1813.3999998569489]","1","2","","","999","55","2","4","lose","no-go","0","0"
"pit-trial","124","956808","0.0-60.0","battery-v0.2","","""event"",""trial"",""time""
""fullscreenenter"",""1"",""2383""
","
","
","""event"",""trial"",""time""
""fullscreenenter"",""1"",""2383""
","
","","","-1","","","13","999","886","z","elianto","#f73b6a7A"," ","-1","0","0","[]","0","2","","","999","56","4","3","lose","go","1","0"
"pit-trial","125","961663","0.0-61.0","battery-v0.2","","""event"",""trial"",""time""
""fullscreenenter"",""1"",""2383""
","
","
","""event"",""trial"",""time""
""fullscreenenter"",""1"",""2383""
","
","","","-1","","","13","999","886","c","elianto","#f73b6a7A","-1","-1","1","0","[]","0","2","","","999","57","5","4","lose","no-go","0","0"
"pit-trial","126","966202","0.0-62.0","battery-v0.2","","""event"",""trial"",""time""
""fullscreenenter"",""1"",""2383""
","
","
","""event"",""trial"",""time""
""fullscreenenter"",""1"",""2383""
","
","","","1684.7000000476837","","","13","999","886","r","elianto","#f73b6a7A"," "," ","1","0","[2535.7999999523163]","1","2","","","999","58","1","3","lose","go","0","0"
"pit-trial","127","971057","0.0-63.0","battery-v0.2","","""event"",""trial"",""time""
""fullscreenenter"",""1"",""2383""
","
","
","""event"",""trial"",""time""
""fullscreenenter"",""1"",""2383""
","
","","","-1","","","13","999","886","y","elianto","#f73b6a7A","-1","-1","1","0","[]","0","2","","","999","59","2","4","lose","no-go","0","0"
"pit-trial","128","975910","0.0-64.0","battery-v0.2","","""event"",""trial"",""time""
""fullscreenenter"",""1"",""2383""
","
","
","""event"",""trial"",""time""
""fullscreenenter"",""1"",""2383""
","
","","","-1","","","13","999","886","z","elianto","#f73b6a7A"," ","-1","0","-10","[]","0","2","","","999","60","4","3","lose","go","0","0"
"pit-trial","129","980225","0.0-65.0","battery-v0.2","","""event"",""trial"",""time""
""fullscreenenter"",""1"",""2383""
","
","
","""event"",""trial"",""time""
""fullscreenenter"",""1"",""2383""
","
","","","1459.2999999523163","","","13","999","886","z","elianto","#f73b6a7A"," "," ","1","0","[2311.399999856949]","1","2","","","999","61","4","3","lose","go","0","0"
"pit-trial","130","985080","0.0-66.0","battery-v0.2","","""event"",""trial"",""time""
""fullscreenenter"",""1"",""2383""
","
","
","""event"",""trial"",""time""
""fullscreenenter"",""1"",""2383""
","
","","","-1","","","13","999","886","y","elianto","#f73b6a7A","-1","-1","1","0","[]","0","2","","","999","62","2","4","lose","no-go","0","0"
"pit-trial","131","989934","0.0-67.0","battery-v0.2","","""event"",""trial"",""time""
""fullscreenenter"",""1"",""2383""
","
","
","""event"",""trial"",""time""
""fullscreenenter"",""1"",""2383""
","
","","","-1","","","13","999","886","c","elianto","#f73b6a7A","-1","-1","1","0","[]","0","2","","","999","63","5","4","lose","no-go","0","0"
"pit-trial","132","994201","0.0-68.0","battery-v0.2","","""event"",""trial"",""time""
""fullscreenenter"",""1"",""2383""
","
","
","""event"",""trial"",""time""
""fullscreenenter"",""1"",""2383""
","
","","","1411.3999998569489","","","13","999","886","b","elianto","#3366ff99","-1"," ","0","0","[2263.2000000476837]","1","2","","","999","64","6","2","win","no-go","0","0"
"pit-trial","133","999056","0.0-69.0","battery-v0.2","","""event"",""trial"",""time""
""fullscreenenter"",""1"",""2383""
","
","
","""event"",""trial"",""time""
""fullscreenenter"",""1"",""2383""
","
","","","-1","","","13","999","886","c","elianto","#f73b6a7A","-1","-1","1","-10","[]","0","2","","","999","65","5","4","lose","no-go","1","0"
"pit-trial","134","1003910","0.0-70.0","battery-v0.2","","""event"",""trial"",""time""
""fullscreenenter"",""1"",""2383""
","
","
","""event"",""trial"",""time""
""fullscreenenter"",""1"",""2383""
","
","","","-1","","","13","999","886","y","elianto","#f73b6a7A","-1","-1","1","0","[]","0","2","","","999","66","2","4","lose","no-go","0","0"
"pit-trial","135","1008765","0.0-71.0","battery-v0.2","","""event"",""trial"",""time""
""fullscreenenter"",""1"",""2383""
","
","
","""event"",""trial"",""time""
""fullscreenenter"",""1"",""2383""
","
","","","-1","","","13","999","886","b","elianto","#3366ff99","-1","-1","1","+10","[]","0","2","","","999","67","6","2","win","no-go","0","0"
"pit-trial","136","1013619","0.0-72.0","battery-v0.2","","""event"",""trial"",""time""
""fullscreenenter"",""1"",""2383""
","
","
","""event"",""trial"",""time""
""fullscreenenter"",""1"",""2383""
","
","","","-1","","","13","999","886","z","elianto","#f73b6a7A"," ","-1","0","0","[]","0","2","","","999","68","4","3","lose","go","1","0"
"pit-trial","137","1018474","0.0-73.0","battery-v0.2","","""event"",""trial"",""time""
""fullscreenenter"",""1"",""2383""
","
","
","""event"",""trial"",""time""
""fullscreenenter"",""1"",""2383""
","
","","","-1","","","13","999","886","b","elianto","#3366ff99","-1","-1","1","0","[]","0","2","","","999","69","6","2","win","no-go","1","0"
"pit-trial","138","1023328","0.0-74.0","battery-v0.2","","""event"",""trial"",""time""
""fullscreenenter"",""1"",""2383""
","
","
","""event"",""trial"",""time""
""fullscreenenter"",""1"",""2383""
","
","","","-1","","","13","999","886","z","elianto","#f73b6a7A"," ","-1","0","-10","[]","0","2","","","999","70","4","3","lose","go","0","0"
"pit-trial","139","1027377","0.0-75.0","battery-v0.2","","""event"",""trial"",""time""
""fullscreenenter"",""1"",""2383""
","
","
","""event"",""trial"",""time""
""fullscreenenter"",""1"",""2383""
","
","","","1194.5","","","13","999","886","t","elianto","#3366ff99"," "," ","1","0","[2045.6000001430511]","1","2","","","999","71","7","1","win","go","1","0"
"pit-trial","140","1032231","0.0-76.0","battery-v0.2","","""event"",""trial"",""time""
""fullscreenenter"",""1"",""2383""
","
","
","""event"",""trial"",""time""
""fullscreenenter"",""1"",""2383""
","
","","","-1","","","13","999","886","c","elianto","#f73b6a7A","-1","-1","1","0","[]","0","2","","","999","72","5","4","lose","no-go","0","0"
"pit-trial","141","1037085","0.0-77.0","battery-v0.2","","""event"",""trial"",""time""
""fullscreenenter"",""1"",""2383""
","
","
","""event"",""trial"",""time""
""fullscreenenter"",""1"",""2383""
","
","","","-1","","","13","999","886","b","elianto","#3366ff99","-1","-1","1","+10","[]","0","2","","","999","73","6","2","win","no-go","0","0"
"pit-trial","142","1041939","0.0-78.0","battery-v0.2","","""event"",""trial"",""time""
""fullscreenenter"",""1"",""2383""
","
","
","""event"",""trial"",""time""
""fullscreenenter"",""1"",""2383""
","
","","","-1","","","13","999","886","z","elianto","#f73b6a7A"," ","-1","0","-10","[]","0","2","","","999","74","4","3","lose","go","0","0"
"pit-trial","143","1046792","0.0-79.0","battery-v0.2","","""event"",""trial"",""time""
""fullscreenenter"",""1"",""2383""
","
","
","""event"",""trial"",""time""
""fullscreenenter"",""1"",""2383""
","
","","","-1","","","13","999","886","t","elianto","#3366ff99"," ","-1","0","0","[]","0","2","","","999","75","7","1","win","go","0","0"
"pit-trial","144","1051645","0.0-80.0","battery-v0.2","","""event"",""trial"",""time""
""fullscreenenter"",""1"",""2383""
","
","
","""event"",""trial"",""time""
""fullscreenenter"",""1"",""2383""
","
","","","-1","","","13","999","886","c","elianto","#f73b6a7A","-1","-1","1","0","[]","0","2","","","999","76","5","4","lose","no-go","0","0"
"pit-trial","145","1056499","0.0-81.0","battery-v0.2","","""event"",""trial"",""time""
""fullscreenenter"",""1"",""2383""
","
","
","""event"",""trial"",""time""
""fullscreenenter"",""1"",""2383""
","
","","","-1","","","13","999","886","c","elianto","#f73b6a7A","-1","-1","1","0","[]","0","2","","","999","77","5","4","lose","no-go","0","0"
"pit-trial","146","1061354","0.0-82.0","battery-v0.2","","""event"",""trial"",""time""
""fullscreenenter"",""1"",""2383""
","
","
","""event"",""trial"",""time""
""fullscreenenter"",""1"",""2383""
","
","","","-1","","","13","999","886","z","elianto","#f73b6a7A"," ","-1","0","0","[]","0","2","","","999","78","4","3","lose","go","1","0"
"pit-trial","147","1066209","0.0-83.0","battery-v0.2","","""event"",""trial"",""time""
""fullscreenenter"",""1"",""2383""
","
","
","""event"",""trial"",""time""
""fullscreenenter"",""1"",""2383""
","
","","","-1","","","13","999","886","b","elianto","#3366ff99","-1","-1","1","+10","[]","0","2","","","999","79","6","2","win","no-go","0","0"
"pit-trial","148","1071064","0.0-84.0","battery-v0.2","","""event"",""trial"",""time""
""fullscreenenter"",""1"",""2383""
","
","
","""event"",""trial"",""time""
""fullscreenenter"",""1"",""2383""
","
","","","-1","","","13","999","886","t","elianto","#3366ff99"," ","-1","0","0","[]","0","2","","","999","80","7","1","win","go","0","0"
"pit-trial","149","1075917","0.0-85.0","battery-v0.2","","""event"",""trial"",""time""
""fullscreenenter"",""1"",""2383""
","
","
","""event"",""trial"",""time""
""fullscreenenter"",""1"",""2383""
","
","","","-1","","","13","999","886","z","elianto","#f73b6a7A"," ","-1","0","-10","[]","0","2","","","999","81","4","3","lose","go","0","0"
"pit-trial","150","1079864","0.0-86.0","battery-v0.2","","""event"",""trial"",""time""
""fullscreenenter"",""1"",""2383""
","
","
","""event"",""trial"",""time""
""fullscreenenter"",""1"",""2383""
","
","","","1094.3999998569489","","","13","999","886","t","elianto","#3366ff99"," "," ","1","+10","[1944.5]","1","2","","","999","82","7","1","win","go","0","0"
"pit-trial","151","1084720","0.0-87.0","battery-v0.2","","""event"",""trial"",""time""
""fullscreenenter"",""1"",""2383""
","
","
","""event"",""trial"",""time""
""fullscreenenter"",""1"",""2383""
","
","","","-1","","","13","999","886","b","elianto","#3366ff99","-1","-1","1","+10","[]","0","2","","","999","83","6","2","win","no-go","0","0"
"pit-trial","152","1089574","0.0-88.0","battery-v0.2","","""event"",""trial"",""time""
""fullscreenenter"",""1"",""2383""
","
","
","""event"",""trial"",""time""
""fullscreenenter"",""1"",""2383""
","
","","","-1","","","13","999","886","c","elianto","#f73b6a7A","-1","-1","1","0","[]","0","2","","","999","84","5","4","lose","no-go","0","0"
"pit-trial","153","1093537","0.0-89.0","battery-v0.2","","""event"",""trial"",""time""
""fullscreenenter"",""1"",""2383""
","
","
","""event"",""trial"",""time""
""fullscreenenter"",""1"",""2383""
","
","","","1109.6000001430511","","","13","999","886","t","elianto","#3366ff99"," "," ","1","+10","[1960.3999998569489]","1","2","","","999","85","7","1","win","go","0","0"
"pit-trial","154","1098392","0.0-90.0","battery-v0.2","","""event"",""trial"",""time""
""fullscreenenter"",""1"",""2383""
","
","
","""event"",""trial"",""time""
""fullscreenenter"",""1"",""2383""
","
","","","-1","","","13","999","886","z","elianto","#f73b6a7A"," ","-1","0","-10","[]","0","2","","","999","86","4","3","lose","go","0","0"
"pit-trial","155","1103247","0.0-91.0","battery-v0.2","","""event"",""trial"",""time""
""fullscreenenter"",""1"",""2383""
","
","
","""event"",""trial"",""time""
""fullscreenenter"",""1"",""2383""
","
","","","-1","","","13","999","886","b","elianto","#3366ff99","-1","-1","1","+10","[]","0","2","","","999","87","6","2","win","no-go","0","0"
"pit-trial","156","1108102","0.0-92.0","battery-v0.2","","""event"",""trial"",""time""
""fullscreenenter"",""1"",""2383""
","
","
","""event"",""trial"",""time""
""fullscreenenter"",""1"",""2383""
","
","","","-1","","","13","999","886","c","elianto","#f73b6a7A","-1","-1","1","-10","[]","0","2","","","999","88","5","4","lose","no-go","1","0"
"pit-trial","157","1112955","0.0-93.0","battery-v0.2","","""event"",""trial"",""time""
""fullscreenenter"",""1"",""2383""
","
","
","""event"",""trial"",""time""
""fullscreenenter"",""1"",""2383""
","
","","","-1","","","13","999","886","c","elianto","#f73b6a7A","-1","-1","1","-10","[]","0","2","","","999","89","5","4","lose","no-go","1","0"
"pit-trial","158","1117809","0.0-94.0","battery-v0.2","","""event"",""trial"",""time""
""fullscreenenter"",""1"",""2383""
","
","
","""event"",""trial"",""time""
""fullscreenenter"",""1"",""2383""
","
","","","-1","","","13","999","886","b","elianto","#3366ff99","-1","-1","1","0","[]","0","2","","","999","90","6","2","win","no-go","1","0"
"pit-trial","159","1122663","0.0-95.0","battery-v0.2","","""event"",""trial"",""time""
""fullscreenenter"",""1"",""2383""
","
","
","""event"",""trial"",""time""
""fullscreenenter"",""1"",""2383""
","
","","","-1","","","13","999","886","z","elianto","#f73b6a7A"," ","-1","0","-10","[]","0","2","","","999","91","4","3","lose","go","0","0"
"pit-trial","160","1126313","0.0-96.0","battery-v0.2","","""event"",""trial"",""time""
""fullscreenenter"",""1"",""2383""
","
","
","""event"",""trial"",""time""
""fullscreenenter"",""1"",""2383""
","
","","","796.5999999046326","","","13","999","886","t","elianto","#3366ff99"," "," ","1","+10","[1647.3999998569489]","1","2","","","999","92","7","1","win","go","0","0"
"pit-trial","161","1130329","0.0-97.0","battery-v0.2","","""event"",""trial"",""time""
""fullscreenenter"",""1"",""2383""
","
","
","""event"",""trial"",""time""
""fullscreenenter"",""1"",""2383""
","
","","","1162.4000000953674","","","13","999","886","x","elianto","#3366ff99"," "," ","1","+10","[2012.4000000953674]","1","2","","","999","93","8","1","win","go","0","0"
"pit-trial","162","1134729","0.0-98.0","battery-v0.2","","""event"",""trial"",""time""
""fullscreenenter"",""1"",""2383""
","
","
","""event"",""trial"",""time""
""fullscreenenter"",""1"",""2383""
","
","","","1545.1999998092651","","","13","999","886","z","elianto","#f73b6a7A"," "," ","1","-10","[2396.0999999046326]","1","2","","","999","94","4","3","lose","go","1","0"
"pit-trial","163","1139582","0.0-99.0","battery-v0.2","","""event"",""trial"",""time""
""fullscreenenter"",""1"",""2383""
","
","
","""event"",""trial"",""time""
""fullscreenenter"",""1"",""2383""
","
","","","-1","","","13","999","886","b","elianto","#3366ff99","-1","-1","1","+10","[]","0","2","","","999","95","6","2","win","no-go","0","0"
"pit-trial","164","1144436","0.0-100.0","battery-v0.2","","""event"",""trial"",""time""
""fullscreenenter"",""1"",""2383""
","
","
","""event"",""trial"",""time""
""fullscreenenter"",""1"",""2383""
","
","","","-1","","","13","999","886","t","elianto","#3366ff99"," ","-1","0","0","[2864.2000000476837]","1","2","","","999","96","7","1","win","go","0","0"
"pit-trial","165","1148514","0.0-101.0","battery-v0.2","","""event"",""trial"",""time""
""fullscreenenter"",""1"",""2383""
","
","
","""event"",""trial"",""time""
""fullscreenenter"",""1"",""2383""
","
","","","1223.6000001430511","","","13","999","886","t","elianto","#3366ff99"," "," ","1","+10","[2074.7000000476837]","1","2","","","999","97","7","1","win","go","0","0"
"pit-trial","166","1153367","0.0-102.0","battery-v0.2","","""event"",""trial"",""time""
""fullscreenenter"",""1"",""2383""
","
","
","""event"",""trial"",""time""
""fullscreenenter"",""1"",""2383""
","
","","","-1","","","13","999","886","z","elianto","#f73b6a7A"," ","-1","0","-10","[]","0","2","","","999","98","4","3","lose","go","0","0"
"pit-trial","167","1158221","0.0-103.0","battery-v0.2","","""event"",""trial"",""time""
""fullscreenenter"",""1"",""2383""
","
","
","""event"",""trial"",""time""
""fullscreenenter"",""1"",""2383""
","
","","","-1","","","13","999","886","b","elianto","#3366ff99","-1","-1","1","+10","[]","0","2","","","999","99","6","2","win","no-go","0","0"
"pit-trial","168","1162953","0.0-104.0","battery-v0.2","","""event"",""trial"",""time""
""fullscreenenter"",""1"",""2383""
","
","
","""event"",""trial"",""time""
""fullscreenenter"",""1"",""2383""
","
","","","1878.7999999523163","","","13","999","886","x","elianto","#3366ff99"," "," ","1","+10","[2729]","1","2","","","999","100","8","1","win","go","0","0"
"pit-trial","169","1167806","0.0-105.0","battery-v0.2","","""event"",""trial"",""time""
""fullscreenenter"",""1"",""2383""
","
","
","""event"",""trial"",""time""
""fullscreenenter"",""1"",""2383""
","
","","","-1","","","13","999","886","b","elianto","#3366ff99","-1","-1","1","0","[]","0","2","","","999","101","6","2","win","no-go","1","0"
"pit-trial","170","1171753","0.0-106.0","battery-v0.2","","""event"",""trial"",""time""
""fullscreenenter"",""1"",""2383""
","
","
","""event"",""trial"",""time""
""fullscreenenter"",""1"",""2383""
","
","","","1092.6999998092651","","","13","999","886","x","elianto","#3366ff99"," "," ","1","+10","[1943.3999998569489]","1","2","","","999","102","8","1","win","go","0","0"
"pit-trial","171","1175520","0.0-107.0","battery-v0.2","","""event"",""trial"",""time""
""fullscreenenter"",""1"",""2383""
","
","
","""event"",""trial"",""time""
""fullscreenenter"",""1"",""2383""
","
","","","915.2000000476837","","","13","999","886","t","elianto","#3366ff99"," "," ","1","0","[557.5,1765.3000001907349]","2","2","","","999","103","7","1","win","go","1","0"
"pit-trial","172","1179849","0.0-108.0","battery-v0.2","","""event"",""trial"",""time""
""fullscreenenter"",""1"",""2383""
","
","
","""event"",""trial"",""time""
""fullscreenenter"",""1"",""2383""
","
","","","1474.4000000953674","","","13","999","886","f","elianto","#3366ff99","-1"," ","0","+10","[2325.399999856949]","1","2","","","999","104","9","2","win","no-go","1","0"
"pit-trial","173","1184152","0.0-109.0","battery-v0.2","","""event"",""trial"",""time""
""fullscreenenter"",""1"",""2383""
","
","
","""event"",""trial"",""time""
""fullscreenenter"",""1"",""2383""
","
","","","1450.9000000953674","","","13","999","886","x","elianto","#3366ff99"," "," ","1","+10","[2301.0999999046326]","1","2","","","999","105","8","1","win","go","0","0"
"pit-trial","174","1188545","0.0-110.0","battery-v0.2","","""event"",""trial"",""time""
""fullscreenenter"",""1"",""2383""
","
","
","""event"",""trial"",""time""
""fullscreenenter"",""1"",""2383""
","
","","","1539.7000000476837","","","13","999","886","f","elianto","#3366ff99","-1"," ","0","0","[2389.7999999523163]","1","2","","","999","106","9","2","win","no-go","0","0"
"pit-trial","175","1192193","0.0-111.0","battery-v0.2","","""event"",""trial"",""time""
""fullscreenenter"",""1"",""2383""
","
","
","""event"",""trial"",""time""
""fullscreenenter"",""1"",""2383""
","
","","","794","","","13","999","886","t","elianto","#3366ff99"," "," ","1","+10","[1645.0999999046326]","1","2","","","999","107","7","1","win","go","0","0"
"pit-trial","176","1197048","0.0-112.0","battery-v0.2","","""event"",""trial"",""time""
""fullscreenenter"",""1"",""2383""
","
","
","""event"",""trial"",""time""
""fullscreenenter"",""1"",""2383""
","
","","","-1","","","13","999","886","b","elianto","#3366ff99","-1","-1","1","+10","[]","0","2","","","999","108","6","2","win","no-go","0","0"
"pit-trial","177","1201901","0.0-113.0","battery-v0.2","","""event"",""trial"",""time""
""fullscreenenter"",""1"",""2383""
""blur"",""178"",""1204563""
""focus"",""178"",""1206374""
","""event"",""trial"",""time""
""blur"",""178"",""1204563""
","""event"",""trial"",""time""
""focus"",""178"",""1206374""
","""event"",""trial"",""time""
""fullscreenenter"",""1"",""2383""
","
","","","-1","","","13","999","886","n","elianto","#f73b6a7A"," ","-1","0","0","[]","0","2","","","999","109","10","3","lose","go","1","0"
"pit-trial","178","1206757","0.0-114.0","battery-v0.2","","""event"",""trial"",""time""
""fullscreenenter"",""1"",""2383""
""blur"",""178"",""1204563""
""focus"",""178"",""1206374""
","""event"",""trial"",""time""
""blur"",""178"",""1204563""
","""event"",""trial"",""time""
""focus"",""178"",""1206374""
","""event"",""trial"",""time""
""fullscreenenter"",""1"",""2383""
","
","","","-1","","","13","999","886","q","elianto","#f73b6a7A","-1","-1","1","-10","[]","0","2","","","999","110","11","4","lose","no-go","1","0"
"pit-trial","179","1210649","0.0-115.0","battery-v0.2","","""event"",""trial"",""time""
""fullscreenenter"",""1"",""2383""
""blur"",""178"",""1204563""
""focus"",""178"",""1206374""
","""event"",""trial"",""time""
""blur"",""178"",""1204563""
","""event"",""trial"",""time""
""focus"",""178"",""1206374""
","""event"",""trial"",""time""
""fullscreenenter"",""1"",""2383""
","
","","","1036.5","","","13","999","886","f","elianto","#3366ff99","-1"," ","0","0","[1888.3999998569489]","1","2","","","999","111","9","2","win","no-go","0","0"
"pit-trial","180","1214233","0.0-116.0","battery-v0.2","","""event"",""trial"",""time""
""fullscreenenter"",""1"",""2383""
""blur"",""178"",""1204563""
""focus"",""178"",""1206374""
","""event"",""trial"",""time""
""blur"",""178"",""1204563""
","""event"",""trial"",""time""
""focus"",""178"",""1206374""
","""event"",""trial"",""time""
""fullscreenenter"",""1"",""2383""
","
","","","730.5","","","13","999","886","x","elianto","#3366ff99"," "," ","1","+10","[1580.5]","1","2","","","999","112","8","1","win","go","0","0"
"pit-trial","181","1218089","0.0-117.0","battery-v0.2","","""event"",""trial"",""time""
""fullscreenenter"",""1"",""2383""
""blur"",""178"",""1204563""
""focus"",""178"",""1206374""
","""event"",""trial"",""time""
""blur"",""178"",""1204563""
","""event"",""trial"",""time""
""focus"",""178"",""1206374""
","""event"",""trial"",""time""
""fullscreenenter"",""1"",""2383""
","
","","","1000.7999999523163","","","13","999","886","q","elianto","#f73b6a7A","-1"," ","0","-10","[1852.7000000476837]","1","2","","","999","113","11","4","lose","no-go","0","0"
"pit-trial","182","1221648","0.0-118.0","battery-v0.2","","""event"",""trial"",""time""
""fullscreenenter"",""1"",""2383""
""blur"",""178"",""1204563""
""focus"",""178"",""1206374""
","""event"",""trial"",""time""
""blur"",""178"",""1204563""
","""event"",""trial"",""time""
""focus"",""178"",""1206374""
","""event"",""trial"",""time""
""fullscreenenter"",""1"",""2383""
","
","","","704.5","","","13","999","886","x","elianto","#3366ff99"," "," ","1","+10","[1556.5]","1","2","","","999","114","8","1","win","go","0","0"
"pit-trial","183","1226503","0.0-119.0","battery-v0.2","","""event"",""trial"",""time""
""fullscreenenter"",""1"",""2383""
""blur"",""178"",""1204563""
""focus"",""178"",""1206374""
","""event"",""trial"",""time""
""blur"",""178"",""1204563""
","""event"",""trial"",""time""
""focus"",""178"",""1206374""
","""event"",""trial"",""time""
""fullscreenenter"",""1"",""2383""
","
","","","-1","","","13","999","886","n","elianto","#f73b6a7A"," ","-1","0","0","[]","0","2","","","999","115","10","3","lose","go","1","0"
"pit-trial","184","1230121","0.0-120.0","battery-v0.2","","""event"",""trial"",""time""
""fullscreenenter"",""1"",""2383""
""blur"",""178"",""1204563""
""focus"",""178"",""1206374""
","""event"",""trial"",""time""
""blur"",""178"",""1204563""
","""event"",""trial"",""time""
""focus"",""178"",""1206374""
","""event"",""trial"",""time""
""fullscreenenter"",""1"",""2383""
","
","","","762.7000000476837","","","13","999","886","f","elianto","#3366ff99","-1"," ","0","0","[1614.5]","1","2","","","999","116","9","2","win","no-go","0","0"
"pit-trial","185","1233608","0.0-121.0","battery-v0.2","","""event"",""trial"",""time""
""fullscreenenter"",""1"",""2383""
""blur"",""178"",""1204563""
""focus"",""178"",""1206374""
","""event"",""trial"",""time""
""blur"",""178"",""1204563""
","""event"",""trial"",""time""
""focus"",""178"",""1206374""
","""event"",""trial"",""time""
""fullscreenenter"",""1"",""2383""
","
","","","633.5","","","13","999","886","f","elianto","#3366ff99","-1"," ","0","0","[1484.5]","1","2","","","999","117","9","2","win","no-go","0","0"
"pit-trial","186","1237513","0.0-122.0","battery-v0.2","","""event"",""trial"",""time""
""fullscreenenter"",""1"",""2383""
""blur"",""178"",""1204563""
""focus"",""178"",""1206374""
","""event"",""trial"",""time""
""blur"",""178"",""1204563""
","""event"",""trial"",""time""
""focus"",""178"",""1206374""
","""event"",""trial"",""time""
""fullscreenenter"",""1"",""2383""
","
","","","1050.6999998092651","","","13","999","886","x","elianto","#3366ff99"," "," ","1","+10","[1901.4000000953674]","1","2","","","999","118","8","1","win","go","0","0"
"pit-trial","187","1241392","0.0-123.0","battery-v0.2","","""event"",""trial"",""time""
""fullscreenenter"",""1"",""2383""
""blur"",""178"",""1204563""
""focus"",""178"",""1206374""
","""event"",""trial"",""time""
""blur"",""178"",""1204563""
","""event"",""trial"",""time""
""focus"",""178"",""1206374""
","""event"",""trial"",""time""
""fullscreenenter"",""1"",""2383""
","
","","","1026.2000000476837","","","13","999","886","q","elianto","#f73b6a7A","-1"," ","0","-10","[1877]","1","2","","","999","119","11","4","lose","no-go","0","0"
"pit-trial","188","1246247","0.0-124.0","battery-v0.2","","""event"",""trial"",""time""
""fullscreenenter"",""1"",""2383""
""blur"",""178"",""1204563""
""focus"",""178"",""1206374""
","""event"",""trial"",""time""
""blur"",""178"",""1204563""
","""event"",""trial"",""time""
""focus"",""178"",""1206374""
","""event"",""trial"",""time""
""fullscreenenter"",""1"",""2383""
","
","","","-1","","","13","999","886","n","elianto","#f73b6a7A"," ","-1","0","0","[]","0","2","","","999","120","10","3","lose","go","1","0"
"pit-trial","189","1250489","0.0-125.0","battery-v0.2","","""event"",""trial"",""time""
""fullscreenenter"",""1"",""2383""
""blur"",""178"",""1204563""
""focus"",""178"",""1206374""
","""event"",""trial"",""time""
""blur"",""178"",""1204563""
","""event"",""trial"",""time""
""focus"",""178"",""1206374""
","""event"",""trial"",""time""
""fullscreenenter"",""1"",""2383""
","
","","","1389.0999999046326","","","13","999","886","x","elianto","#3366ff99"," "," ","1","0","[2239.100000143051,3679.2000000476837]","2","2","","","999","121","8","1","win","go","1","0"
"pit-trial","190","1255342","0.0-126.0","battery-v0.2","","""event"",""trial"",""time""
""fullscreenenter"",""1"",""2383""
""blur"",""178"",""1204563""
""focus"",""178"",""1206374""
","""event"",""trial"",""time""
""blur"",""178"",""1204563""
","""event"",""trial"",""time""
""focus"",""178"",""1206374""
","""event"",""trial"",""time""
""fullscreenenter"",""1"",""2383""
","
","","","-1","","","13","999","886","n","elianto","#f73b6a7A"," ","-1","0","0","[]","0","2","","","999","122","10","3","lose","go","1","0"
"pit-trial","191","1259200","0.0-127.0","battery-v0.2","","""event"",""trial"",""time""
""fullscreenenter"",""1"",""2383""
""blur"",""178"",""1204563""
""focus"",""178"",""1206374""
","""event"",""trial"",""time""
""blur"",""178"",""1204563""
","""event"",""trial"",""time""
""focus"",""178"",""1206374""
","""event"",""trial"",""time""
""fullscreenenter"",""1"",""2383""
","
","","","1005.0999999046326","","","13","999","886","q","elianto","#f73b6a7A","-1"," ","0","-10","[1855.2000000476837,3079.2000000476837]","2","2","","","999","123","11","4","lose","no-go","0","0"
"pit-trial","192","1263809","0.0-128.0","battery-v0.2","","""event"",""trial"",""time""
""fullscreenenter"",""1"",""2383""
""blur"",""178"",""1204563""
""focus"",""178"",""1206374""
","""event"",""trial"",""time""
""blur"",""178"",""1204563""
","""event"",""trial"",""time""
""focus"",""178"",""1206374""
","""event"",""trial"",""time""
""fullscreenenter"",""1"",""2383""
","
","","","1755.5","","","13","999","886","f","elianto","#3366ff99","-1"," ","0","0","[2605.5]","1","2","","","999","124","9","2","win","no-go","0","0"
"pit-trial","193","1268662","0.0-129.0","battery-v0.2","","""event"",""trial"",""time""
""fullscreenenter"",""1"",""2383""
""blur"",""178"",""1204563""
""focus"",""178"",""1206374""
","""event"",""trial"",""time""
""blur"",""178"",""1204563""
","""event"",""trial"",""time""
""focus"",""178"",""1206374""
","""event"",""trial"",""time""
""fullscreenenter"",""1"",""2383""
","
","","","-1","","","13","999","886","f","elianto","#3366ff99","-1","-1","1","0","[]","0","2","","","999","125","9","2","win","no-go","1","0"
"pit-trial","194","1273516","0.0-130.0","battery-v0.2","","""event"",""trial"",""time""
""fullscreenenter"",""1"",""2383""
""blur"",""178"",""1204563""
""focus"",""178"",""1206374""
","""event"",""trial"",""time""
""blur"",""178"",""1204563""
","""event"",""trial"",""time""
""focus"",""178"",""1206374""
","""event"",""trial"",""time""
""fullscreenenter"",""1"",""2383""
","
","","","-1","","","13","999","886","q","elianto","#f73b6a7A","-1","-1","1","0","[]","0","2","","","999","126","11","4","lose","no-go","0","0"
"pit-trial","195","1278370","0.0-131.0","battery-v0.2","","""event"",""trial"",""time""
""fullscreenenter"",""1"",""2383""
""blur"",""178"",""1204563""
""focus"",""178"",""1206374""
","""event"",""trial"",""time""
""blur"",""178"",""1204563""
","""event"",""trial"",""time""
""focus"",""178"",""1206374""
","""event"",""trial"",""time""
""fullscreenenter"",""1"",""2383""
","
","","","-1","","","13","999","886","n","elianto","#f73b6a7A"," ","-1","0","-10","[]","0","2","","","999","127","10","3","lose","go","0","0"
"pit-trial","196","1282977","0.0-132.0","battery-v0.2","","""event"",""trial"",""time""
""fullscreenenter"",""1"",""2383""
""blur"",""178"",""1204563""
""focus"",""178"",""1206374""
","""event"",""trial"",""time""
""blur"",""178"",""1204563""
","""event"",""trial"",""time""
""focus"",""178"",""1206374""
","""event"",""trial"",""time""
""fullscreenenter"",""1"",""2383""
","
","","","1753.3999998569489","","","13","999","886","x","elianto","#3366ff99"," "," ","1","0","[2603.5999999046326]","1","2","","","999","128","8","1","win","go","1","0"
"pit-trial","197","1286633","0.0-133.0","battery-v0.2","","""event"",""trial"",""time""
""fullscreenenter"",""1"",""2383""
""blur"",""178"",""1204563""
""focus"",""178"",""1206374""
","""event"",""trial"",""time""
""blur"",""178"",""1204563""
","""event"",""trial"",""time""
""focus"",""178"",""1206374""
","""event"",""trial"",""time""
""fullscreenenter"",""1"",""2383""
","
","","","803.2000000476837","","","13","999","886","x","elianto","#3366ff99"," "," ","1","+10","[1653.2000000476837]","1","2","","","999","129","8","1","win","go","0","0"
"pit-trial","198","1291487","0.0-134.0","battery-v0.2","","""event"",""trial"",""time""
""fullscreenenter"",""1"",""2383""
""blur"",""178"",""1204563""
""focus"",""178"",""1206374""
","""event"",""trial"",""time""
""blur"",""178"",""1204563""
","""event"",""trial"",""time""
""focus"",""178"",""1206374""
","""event"",""trial"",""time""
""fullscreenenter"",""1"",""2383""
","
","","","-1","","","13","999","886","n","elianto","#f73b6a7A"," ","-1","0","-10","[]","0","2","","","999","130","10","3","lose","go","0","0"
"pit-trial","199","1296321","0.0-135.0","battery-v0.2","","""event"",""trial"",""time""
""fullscreenenter"",""1"",""2383""
""blur"",""178"",""1204563""
""focus"",""178"",""1206374""
","""event"",""trial"",""time""
""blur"",""178"",""1204563""
","""event"",""trial"",""time""
""focus"",""178"",""1206374""
","""event"",""trial"",""time""
""fullscreenenter"",""1"",""2383""
","
","","","1981.2000000476837","","","13","999","886","f","elianto","#3366ff99","-1"," ","0","0","[2831.2000000476837]","1","2","","","999","131","9","2","win","no-go","0","0"
"pit-trial","200","1301175","0.0-136.0","battery-v0.2","","""event"",""trial"",""time""
""fullscreenenter"",""1"",""2383""
""blur"",""178"",""1204563""
""focus"",""178"",""1206374""
","""event"",""trial"",""time""
""blur"",""178"",""1204563""
","""event"",""trial"",""time""
""focus"",""178"",""1206374""
","""event"",""trial"",""time""
""fullscreenenter"",""1"",""2383""
","
","","","-1","","","13","999","886","q","elianto","#f73b6a7A","-1","-1","1","-10","[]","0","2","","","999","132","11","4","lose","no-go","1","0"
"pit-trial","201","1305032","0.0-137.0","battery-v0.2","","""event"",""trial"",""time""
""fullscreenenter"",""1"",""2383""
""blur"",""178"",""1204563""
""focus"",""178"",""1206374""
","""event"",""trial"",""time""
""blur"",""178"",""1204563""
","""event"",""trial"",""time""
""focus"",""178"",""1206374""
","""event"",""trial"",""time""
""fullscreenenter"",""1"",""2383""
","
","","","1002.0999999046326","","","13","999","886","x","elianto","#3366ff99"," "," ","1","+10","[1854]","1","2","","","999","133","8","1","win","go","0","0"
"pit-trial","202","1309886","0.0-138.0","battery-v0.2","","""event"",""trial"",""time""
""fullscreenenter"",""1"",""2383""
""blur"",""178"",""1204563""
""focus"",""178"",""1206374""
","""event"",""trial"",""time""
""blur"",""178"",""1204563""
","""event"",""trial"",""time""
""focus"",""178"",""1206374""
","""event"",""trial"",""time""
""fullscreenenter"",""1"",""2383""
","
","","","-1","","","13","999","886","n","elianto","#f73b6a7A"," ","-1","0","-10","[]","0","2","","","999","134","10","3","lose","go","0","0"
"pit-trial","203","1313914","0.0-139.0","battery-v0.2","","""event"",""trial"",""time""
""fullscreenenter"",""1"",""2383""
""blur"",""178"",""1204563""
""focus"",""178"",""1206374""
","""event"",""trial"",""time""
""blur"",""178"",""1204563""
","""event"",""trial"",""time""
""focus"",""178"",""1206374""
","""event"",""trial"",""time""
""fullscreenenter"",""1"",""2383""
","
","","","1173.8999998569489","","","13","999","886","q","elianto","#f73b6a7A","-1"," ","0","-10","[2024.7999999523163]","1","2","","","999","135","11","4","lose","no-go","0","0"
"pit-trial","204","1317666","0.0-140.0","battery-v0.2","","""event"",""trial"",""time""
""fullscreenenter"",""1"",""2383""
""blur"",""178"",""1204563""
""focus"",""178"",""1206374""
","""event"",""trial"",""time""
""blur"",""178"",""1204563""
","""event"",""trial"",""time""
""focus"",""178"",""1206374""
","""event"",""trial"",""time""
""fullscreenenter"",""1"",""2383""
","
","","","896.9000000953674","","","13","999","886","f","elianto","#3366ff99","-1"," ","0","+10","[1748.8000001907349]","1","2","","","999","136","9","2","win","no-go","1","0"
"pit-trial","205","1321665","0.0-141.0","battery-v0.2","","""event"",""trial"",""time""
""fullscreenenter"",""1"",""2383""
""blur"",""178"",""1204563""
""focus"",""178"",""1206374""
","""event"",""trial"",""time""
""blur"",""178"",""1204563""
","""event"",""trial"",""time""
""focus"",""178"",""1206374""
","""event"",""trial"",""time""
""fullscreenenter"",""1"",""2383""
","
","","","1144.7999999523163","","","13","999","886","q","elianto","#f73b6a7A","-1"," ","0","-10","[1996.7000000476837]","1","2","","","999","137","11","4","lose","no-go","0","0"
"pit-trial","206","1325897","0.0-142.0","battery-v0.2","","""event"",""trial"",""time""
""fullscreenenter"",""1"",""2383""
""blur"",""178"",""1204563""
""focus"",""178"",""1206374""
","""event"",""trial"",""time""
""blur"",""178"",""1204563""
","""event"",""trial"",""time""
""focus"",""178"",""1206374""
","""event"",""trial"",""time""
""fullscreenenter"",""1"",""2383""
","
","","","1377.0999999046326","","","13","999","886","n","elianto","#f73b6a7A"," "," ","1","0","[2229]","1","2","","","999","138","10","3","lose","go","0","0"
"pit-trial","207","1329922","0.0-143.0","battery-v0.2","","""event"",""trial"",""time""
""fullscreenenter"",""1"",""2383""
""blur"",""178"",""1204563""
""focus"",""178"",""1206374""
","""event"",""trial"",""time""
""blur"",""178"",""1204563""
","""event"",""trial"",""time""
""focus"",""178"",""1206374""
","""event"",""trial"",""time""
""fullscreenenter"",""1"",""2383""
","
","","","1169.4000000953674","","","13","999","886","x","elianto","#3366ff99"," "," ","1","+10","[2021.2999999523163]","1","2","","","999","139","8","1","win","go","0","0"
"pit-trial","208","1333953","0.0-144.0","battery-v0.2","","""event"",""trial"",""time""
""fullscreenenter"",""1"",""2383""
""blur"",""178"",""1204563""
""focus"",""178"",""1206374""
","""event"",""trial"",""time""
""blur"",""178"",""1204563""
","""event"",""trial"",""time""
""focus"",""178"",""1206374""
","""event"",""trial"",""time""
""fullscreenenter"",""1"",""2383""
","
","","","1176.7999999523163","","","13","999","886","f","elianto","#3366ff99","-1"," ","0","0","[2028.5]","1","2","","","999","140","9","2","win","no-go","0","0"
"pit-instructions","209","1350343","0.0-145.0","battery-v0.2","","""event"",""trial"",""time""
""fullscreenenter"",""1"",""2383""
""blur"",""178"",""1204563""
""focus"",""178"",""1206374""
","""event"",""trial"",""time""
""blur"",""178"",""1204563""
","""event"",""trial"",""time""
""focus"",""178"",""1206374""
","""event"",""trial"",""time""
""fullscreenenter"",""1"",""2383""
","
","","[{""page_index"":0,""viewing_time"":6699.900000095367},{""page_index"":1,""viewing_time"":9688.099999904633}]","16388.300000190735","","","","","","","","","","","","","","","","","","","","","","","","",""
"pit-trial","210","1355122","0.0-146.0","battery-v0.2","","""event"",""trial"",""time""
""fullscreenenter"",""1"",""2383""
""blur"",""178"",""1204563""
""focus"",""178"",""1206374""
","""event"",""trial"",""time""
""blur"",""178"",""1204563""
","""event"",""trial"",""time""
""focus"",""178"",""1206374""
","""event"",""trial"",""time""
""fullscreenenter"",""1"",""2383""
","
","","","1913","","","13","999","886","v","elianto","#3366ff99","-1"," ","0","+10","[2764.7999999523163]","1","3","","","999","141","0","2","win","no-go","1","0"
"pit-trial","211","1358787","0.0-147.0","battery-v0.2","","""event"",""trial"",""time""
""fullscreenenter"",""1"",""2383""
""blur"",""178"",""1204563""
""focus"",""178"",""1206374""
","""event"",""trial"",""time""
""blur"",""178"",""1204563""
","""event"",""trial"",""time""
""focus"",""178"",""1206374""
","""event"",""trial"",""time""
""fullscreenenter"",""1"",""2383""
","
","","","800.7000000476837","","","13","999","886","j","elianto","#3366ff99","-1"," ","0","0","[1652]","1","3","","","999","142","1","2","win","no-go","0","0"
"pit-trial","212","1362557","0.0-148.0","battery-v0.2","","""event"",""trial"",""time""
""fullscreenenter"",""1"",""2383""
""blur"",""178"",""1204563""
""focus"",""178"",""1206374""
","""event"",""trial"",""time""
""blur"",""178"",""1204563""
","""event"",""trial"",""time""
""focus"",""178"",""1206374""
","""event"",""trial"",""time""
""fullscreenenter"",""1"",""2383""
","
","","","904.7999999523163","","","13","999","886","d","elianto","#3366ff99"," "," ","1","+10","[1755.7999999523163]","1","3","","","999","143","2","1","win","go","0","0"
"pit-trial","213","1367431","0.0-149.0","battery-v0.2","","""event"",""trial"",""time""
""fullscreenenter"",""1"",""2383""
""blur"",""178"",""1204563""
""focus"",""178"",""1206374""
","""event"",""trial"",""time""
""blur"",""178"",""1204563""
","""event"",""trial"",""time""
""focus"",""178"",""1206374""
","""event"",""trial"",""time""
""fullscreenenter"",""1"",""2383""
","
","","","-1","","","13","999","886","k","elianto","#f73b6a7A"," ","-1","0","-10","[]","0","3","","","999","144","3","3","lose","go","0","0"
"pit-trial","214","1371077","0.0-150.0","battery-v0.2","","""event"",""trial"",""time""
""fullscreenenter"",""1"",""2383""
""blur"",""178"",""1204563""
""focus"",""178"",""1206374""
","""event"",""trial"",""time""
""blur"",""178"",""1204563""
","""event"",""trial"",""time""
""focus"",""178"",""1206374""
","""event"",""trial"",""time""
""fullscreenenter"",""1"",""2383""
","
","","","789.2999999523163","","","13","999","886","v","elianto","#3366ff99","-1"," ","0","0","[1639.4000000953674]","1","3","","","999","145","0","2","win","no-go","0","0"
"pit-trial","215","1374636","0.0-151.0","battery-v0.2","","""event"",""trial"",""time""
""fullscreenenter"",""1"",""2383""
""blur"",""178"",""1204563""
""focus"",""178"",""1206374""
","""event"",""trial"",""time""
""blur"",""178"",""1204563""
","""event"",""trial"",""time""
""focus"",""178"",""1206374""
","""event"",""trial"",""time""
""fullscreenenter"",""1"",""2383""
","
","","","694.3999998569489","","","13","999","886","d","elianto","#3366ff99"," "," ","1","+10","[1544.7000000476837]","1","3","","","999","146","2","1","win","go","0","0"
"pit-trial","216","1379500","0.0-152.0","battery-v0.2","","""event"",""trial"",""time""
""fullscreenenter"",""1"",""2383""
""blur"",""178"",""1204563""
""focus"",""178"",""1206374""
","""event"",""trial"",""time""
""blur"",""178"",""1204563""
","""event"",""trial"",""time""
""focus"",""178"",""1206374""
","""event"",""trial"",""time""
""fullscreenenter"",""1"",""2383""
","
","","","-1","","","13","999","886","k","elianto","#f73b6a7A"," ","-1","0","0","[]","0","3","","","999","147","3","3","lose","go","1","0"
"pit-trial","217","1383001","0.0-153.0","battery-v0.2","","""event"",""trial"",""time""
""fullscreenenter"",""1"",""2383""
""blur"",""178"",""1204563""
""focus"",""178"",""1206374""
","""event"",""trial"",""time""
""blur"",""178"",""1204563""
","""event"",""trial"",""time""
""focus"",""178"",""1206374""
","""event"",""trial"",""time""
""fullscreenenter"",""1"",""2383""
","
","","","647.3999998569489","","","13","999","886","j","elianto","#3366ff99","-1"," ","0","0","[1498.2999999523163]","1","3","","","999","148","1","2","win","no-go","0","0"
"pit-trial","218","1386473","0.0-154.0","battery-v0.2","","""event"",""trial"",""time""
""fullscreenenter"",""1"",""2383""
""blur"",""178"",""1204563""
""focus"",""178"",""1206374""
","""event"",""trial"",""time""
""blur"",""178"",""1204563""
","""event"",""trial"",""time""
""focus"",""178"",""1206374""
","""event"",""trial"",""time""
""fullscreenenter"",""1"",""2383""
","
","","","618.0999999046326","","","13","999","886","v","elianto","#3366ff99","-1"," ","0","0","[1469.2000000476837]","1","3","","","999","149","0","2","win","no-go","0","0"
"pit-trial","219","1390585","0.0-155.0","battery-v0.2","","""event"",""trial"",""time""
""fullscreenenter"",""1"",""2383""
""blur"",""178"",""1204563""
""focus"",""178"",""1206374""
","""event"",""trial"",""time""
""blur"",""178"",""1204563""
","""event"",""trial"",""time""
""focus"",""178"",""1206374""
","""event"",""trial"",""time""
""fullscreenenter"",""1"",""2383""
","
","","","1258","","","13","999","886","k","elianto","#f73b6a7A"," "," ","1","0","[2109.100000143051]","1","3","","","999","150","3","3","lose","go","0","0"
"pit-trial","220","1394370","0.0-156.0","battery-v0.2","","""event"",""trial"",""time""
""fullscreenenter"",""1"",""2383""
""blur"",""178"",""1204563""
""focus"",""178"",""1206374""
","""event"",""trial"",""time""
""blur"",""178"",""1204563""
","""event"",""trial"",""time""
""focus"",""178"",""1206374""
","""event"",""trial"",""time""
""fullscreenenter"",""1"",""2383""
","
","","","931.6999998092651","","","13","999","886","d","elianto","#3366ff99"," "," ","1","+10","[1781.7999999523163]","1","3","","","999","151","2","1","win","go","0","0"
"pit-trial","221","1398089","0.0-157.0","battery-v0.2","","""event"",""trial"",""time""
""fullscreenenter"",""1"",""2383""
""blur"",""178"",""1204563""
""focus"",""178"",""1206374""
","""event"",""trial"",""time""
""blur"",""178"",""1204563""
","""event"",""trial"",""time""
""focus"",""178"",""1206374""
","""event"",""trial"",""time""
""fullscreenenter"",""1"",""2383""
","
","","","865.6000001430511","","","13","999","886","j","elianto","#3366ff99","-1"," ","0","0","[1716.2999999523163]","1","3","","","999","152","1","2","win","no-go","0","0"
"pit-trial","222","1401474","0.0-158.0","battery-v0.2","","""event"",""trial"",""time""
""fullscreenenter"",""1"",""2383""
""blur"",""178"",""1204563""
""focus"",""178"",""1206374""
","""event"",""trial"",""time""
""blur"",""178"",""1204563""
","""event"",""trial"",""time""
""focus"",""178"",""1206374""
","""event"",""trial"",""time""
""fullscreenenter"",""1"",""2383""
","
","","","529.7999999523163","","","13","999","886","j","elianto","#3366ff99","-1"," ","0","0","[1380.9000000953674]","1","3","","","999","153","1","2","win","no-go","0","0"
"pit-trial","223","1404993","0.0-159.0","battery-v0.2","","""event"",""trial"",""time""
""fullscreenenter"",""1"",""2383""
""blur"",""178"",""1204563""
""focus"",""178"",""1206374""
","""event"",""trial"",""time""
""blur"",""178"",""1204563""
","""event"",""trial"",""time""
""focus"",""178"",""1206374""
","""event"",""trial"",""time""
""fullscreenenter"",""1"",""2383""
","
","","","666.5","","","13","999","886","v","elianto","#3366ff99","-1"," ","0","0","[1516.5]","1","3","","","999","154","0","2","win","no-go","0","0"
"pit-trial","224","1409393","0.0-160.0","battery-v0.2","","""event"",""trial"",""time""
""fullscreenenter"",""1"",""2383""
""blur"",""178"",""1204563""
""focus"",""178"",""1206374""
","""event"",""trial"",""time""
""blur"",""178"",""1204563""
","""event"",""trial"",""time""
""focus"",""178"",""1206374""
","""event"",""trial"",""time""
""fullscreenenter"",""1"",""2383""
","
","","","1546.5","","","13","999","886","k","elianto","#f73b6a7A"," "," ","1","0","[2396.600000143051]","1","3","","","999","155","3","3","lose","go","0","0"
"pit-trial","225","1414247","0.0-161.0","battery-v0.2","","""event"",""trial"",""time""
""fullscreenenter"",""1"",""2383""
""blur"",""178"",""1204563""
""focus"",""178"",""1206374""
","""event"",""trial"",""time""
""blur"",""178"",""1204563""
","""event"",""trial"",""time""
""focus"",""178"",""1206374""
","""event"",""trial"",""time""
""fullscreenenter"",""1"",""2383""
","
","","","-1","","","13","999","886","d","elianto","#3366ff99"," ","-1","0","0","[]","0","3","","","999","156","2","1","win","go","0","0"
"pit-trial","226","1419103","0.0-162.0","battery-v0.2","","""event"",""trial"",""time""
""fullscreenenter"",""1"",""2383""
""blur"",""178"",""1204563""
""focus"",""178"",""1206374""
","""event"",""trial"",""time""
""blur"",""178"",""1204563""
","""event"",""trial"",""time""
""focus"",""178"",""1206374""
","""event"",""trial"",""time""
""fullscreenenter"",""1"",""2383""
","
","","","-1","","","13","999","886","j","elianto","#3366ff99","-1","-1","1","0","[]","0","3","","","999","157","1","2","win","no-go","1","0"
"pit-trial","227","1423956","0.0-163.0","battery-v0.2","","""event"",""trial"",""time""
""fullscreenenter"",""1"",""2383""
""blur"",""178"",""1204563""
""focus"",""178"",""1206374""
","""event"",""trial"",""time""
""blur"",""178"",""1204563""
","""event"",""trial"",""time""
""focus"",""178"",""1206374""
","""event"",""trial"",""time""
""fullscreenenter"",""1"",""2383""
","
","","","-1","","","13","999","886","d","elianto","#3366ff99"," ","-1","0","+10","[]","0","3","","","999","158","2","1","win","go","1","0"
"pit-trial","228","1428809","0.0-164.0","battery-v0.2","","""event"",""trial"",""time""
""fullscreenenter"",""1"",""2383""
""blur"",""178"",""1204563""
""focus"",""178"",""1206374""
","""event"",""trial"",""time""
""blur"",""178"",""1204563""
","""event"",""trial"",""time""
""focus"",""178"",""1206374""
","""event"",""trial"",""time""
""fullscreenenter"",""1"",""2383""
","
","","","-1","","","13","999","886","v","elianto","#3366ff99","-1","-1","1","+10","[]","0","3","","","999","159","0","2","win","no-go","0","0"
"pit-trial","229","1433249","0.0-165.0","battery-v0.2","","""event"",""trial"",""time""
""fullscreenenter"",""1"",""2383""
""blur"",""178"",""1204563""
""focus"",""178"",""1206374""
","""event"",""trial"",""time""
""blur"",""178"",""1204563""
","""event"",""trial"",""time""
""focus"",""178"",""1206374""
","""event"",""trial"",""time""
""fullscreenenter"",""1"",""2383""
","
","","","1586.2000000476837","","","13","999","886","k","elianto","#f73b6a7A"," "," ","1","0","[2437.0999999046326]","1","3","","","999","160","3","3","lose","go","0","0"
"pit-trial","230","1437793","0.0-166.0","battery-v0.2","","""event"",""trial"",""time""
""fullscreenenter"",""1"",""2383""
""blur"",""178"",""1204563""
""focus"",""178"",""1206374""
","""event"",""trial"",""time""
""blur"",""178"",""1204563""
","""event"",""trial"",""time""
""focus"",""178"",""1206374""
","""event"",""trial"",""time""
""fullscreenenter"",""1"",""2383""
","
","","","1689.5","","","13","999","886","k","elianto","#f73b6a7A"," "," ","1","0","[2540.399999856949]","1","3","","","999","161","3","3","lose","go","0","0"
"pit-trial","231","1441806","0.0-167.0","battery-v0.2","","""event"",""trial"",""time""
""fullscreenenter"",""1"",""2383""
""blur"",""178"",""1204563""
""focus"",""178"",""1206374""
","""event"",""trial"",""time""
""blur"",""178"",""1204563""
","""event"",""trial"",""time""
""focus"",""178"",""1206374""
","""event"",""trial"",""time""
""fullscreenenter"",""1"",""2383""
","
","","","1146.4000000953674","","","13","999","886","v","elianto","#3366ff99","-1"," ","0","0","[1997.2000000476837]","1","3","","","999","162","0","2","win","no-go","0","0"
"pit-trial","232","1445953","0.0-168.0","battery-v0.2","","""event"",""trial"",""time""
""fullscreenenter"",""1"",""2383""
""blur"",""178"",""1204563""
""focus"",""178"",""1206374""
","""event"",""trial"",""time""
""blur"",""178"",""1204563""
","""event"",""trial"",""time""
""focus"",""178"",""1206374""
","""event"",""trial"",""time""
""fullscreenenter"",""1"",""2383""
","
","","","1294.0999999046326","","","13","999","886","d","elianto","#3366ff99"," "," ","1","0","[2144.2000000476837]","1","3","","","999","163","2","1","win","go","1","0"
"pit-trial","233","1450806","0.0-169.0","battery-v0.2","","""event"",""trial"",""time""
""fullscreenenter"",""1"",""2383""
""blur"",""178"",""1204563""
""focus"",""178"",""1206374""
","""event"",""trial"",""time""
""blur"",""178"",""1204563""
","""event"",""trial"",""time""
""focus"",""178"",""1206374""
","""event"",""trial"",""time""
""fullscreenenter"",""1"",""2383""
","
","","","-1","","","13","999","886","j","elianto","#3366ff99","-1","-1","1","+10","[]","0","3","","","999","164","1","2","win","no-go","0","0"
"pit-trial","234","1455661","0.0-170.0","battery-v0.2","","""event"",""trial"",""time""
""fullscreenenter"",""1"",""2383""
""blur"",""178"",""1204563""
""focus"",""178"",""1206374""
","""event"",""trial"",""time""
""blur"",""178"",""1204563""
","""event"",""trial"",""time""
""focus"",""178"",""1206374""
","""event"",""trial"",""time""
""fullscreenenter"",""1"",""2383""
","
","","","-1","","","13","999","886","j","elianto","#3366ff99","-1","-1","1","+10","[]","0","3","","","999","165","1","2","win","no-go","0","0"
"pit-trial","235","1460516","0.0-171.0","battery-v0.2","","""event"",""trial"",""time""
""fullscreenenter"",""1"",""2383""
""blur"",""178"",""1204563""
""focus"",""178"",""1206374""
","""event"",""trial"",""time""
""blur"",""178"",""1204563""
","""event"",""trial"",""time""
""focus"",""178"",""1206374""
","""event"",""trial"",""time""
""fullscreenenter"",""1"",""2383""
","
","","","-1","","","13","999","886","v","elianto","#3366ff99","-1","-1","1","0","[]","0","3","","","999","166","0","2","win","no-go","1","0"
"pit-trial","236","1465371","0.0-172.0","battery-v0.2","","""event"",""trial"",""time""
""fullscreenenter"",""1"",""2383""
""blur"",""178"",""1204563""
""focus"",""178"",""1206374""
","""event"",""trial"",""time""
""blur"",""178"",""1204563""
