"trial_type","trial_index","time_elapsed","internal_node_id","task_version","success","view_history","rt","responses","num_errors","rune","rune_set","hex","correct","choice","accuracy","outcome","keys","total_keys","block","practice","subject","participantId","value","sub","trial","stimulus","robot","valence","action","sham"
"pavlovia","0","3","0.0-0.0","battery-v0.2","","","","","","","","","","","","","","","","","","","","","","","","","",""
"fullscreen","1","2668","0.0-1.0","battery-v0.2","true","","","","","","","","","","","","","","","","","","","","","","","","",""
"pit-instructions","2","25417","0.0-2.0-0.0","battery-v0.2","","[{""page_index"":0,""viewing_time"":22743}]","22743","","","","","","","","","","","","","","","","","","","","","","",""
"pit-comprehension","3","45103","0.0-2.0-1.0-0.0","battery-v0.2","","","19682","[""fish""]","1","","","","","","","","","","","","","","","","","","","","",""
"pit-instructions","4","46516","0.0-2.0-1.0-1.0","battery-v0.2","","[{""page_index"":0,""viewing_time"":1406}]","1406","","","","","","","","","","","","","","","","","","","","","","",""
"pit-instructions","5","49144","0.0-2.0-1.0-2.0-0.0","battery-v0.2","","[{""page_index"":0,""viewing_time"":2624}]","2624","","","","","","","","","","","","","","","","","","","","","","",""
"pit-comprehension","6","52770","0.0-2.0-1.1-0.1","battery-v0.2","","","3622","[""shark""]","0","","","","","","","","","","","","","","","","","","","","",""
"pit-instructions","7","53685","0.0-2.0-1.1-1.1","battery-v0.2","","[{""page_index"":0,""viewing_time"":910}]","910","","","","","","","","","","","","","","","","","","","","","","",""
"pit-comprehension","8","57231","0.0-2.0-2.0-0.0","battery-v0.2","","","3541","[""tiger""]","0","","","","","","","","","","","","","","","","","","","","",""
"pit-instructions","9","58275","0.0-2.0-2.0-1.0","battery-v0.2","","[{""page_index"":0,""viewing_time"":1040}]","1041","","","","","","","","","","","","","","","","","","","","","","",""
"pit-instructions","10","201948","0.0-2.0-3.0","battery-v0.2","","[{""page_index"":0,""viewing_time"":13385},{""page_index"":1,""viewing_time"":43308},{""page_index"":2,""viewing_time"":14384},{""page_index"":3,""viewing_time"":6275},{""page_index"":4,""viewing_time"":5751},{""page_index"":5,""viewing_time"":5780},{""page_index"":6,""viewing_time"":6589},{""page_index"":7,""viewing_time"":6668},{""page_index"":8,""viewing_time"":7735},{""page_index"":9,""viewing_time"":7852},{""page_index"":10,""viewing_time"":7609},{""page_index"":11,""viewing_time"":6720},{""page_index"":12,""viewing_time"":6302},{""page_index"":13,""viewing_time"":5313}]","143672","","","","","","","","","","","","","","","","","","","","","","",""
"pit-trial","11","205292","0.0-2.0-4.0-0.0","battery-v0.2","","","484","","","&#9784;","elianto","#FFFFF080"," "," ","1","&#10004","[1336]","1","0","0","999&age=9&gender=f&participant_ID=888","888","","","","","","","",""
"pit-trial","12","208559","0.0-2.0-4.1-0.1","battery-v0.2","","","407","","","&#9784;","elianto","#FFFFF080"," "," ","1","&#10004","[1260]","1","0","0","999&age=9&gender=f&participant_ID=888","888","","","","","","","",""
"pit-trial","13","211788","0.0-2.0-4.2-0.2","battery-v0.2","","","363","","","&#9784;","elianto","#FFFFF080"," "," ","1","&#10004","[1218]","1","0","0","999&age=9&gender=f&participant_ID=888","888","","","","","","","",""
"pit-trial","14","214671","0.0-2.0-4.3-0.3","battery-v0.2","","","20","","","&#9784;","elianto","#FFFFF080"," "," ","1","&#10004","[874]","1","0","0","999&age=9&gender=f&participant_ID=888","888","","","","","","","",""
"pit-trial","15","217824","0.0-2.0-4.4-0.4","battery-v0.2","","","287","","","&#9784;","elianto","#FFFFF080"," "," ","1","&#10004","[1141]","1","0","0","999&age=9&gender=f&participant_ID=888","888","","","","","","","",""
"pit-instructions","16","239297","0.0-2.0-5.0","battery-v0.2","","[{""page_index"":0,""viewing_time"":5524},{""page_index"":1,""viewing_time"":5822},{""page_index"":2,""viewing_time"":4814},{""page_index"":3,""viewing_time"":5308}]","21468","","","","","","","","","","","","","","","","","","","","","","",""
"pit-trial","17","244160","0.0-2.0-6.0-0.0","battery-v0.2","","","-1","","","&#9854;","elianto","#FFFFF080","-1","-1","1","&#10004","[]","0","0","1","999&age=9&gender=f&participant_ID=888","888","","","","","","","",""
"pit-trial","18","249023","0.0-2.0-6.1-0.1","battery-v0.2","","","-1","","","&#9854;","elianto","#FFFFF080","-1","-1","1","&#10004","[]","0","0","1","999&age=9&gender=f&participant_ID=888","888","","","","","","","",""
"pit-trial","19","253887","0.0-2.0-6.2-0.2","battery-v0.2","","","-1","","","&#9854;","elianto","#FFFFF080","-1","-1","1","&#10004","[]","0","0","1","999&age=9&gender=f&participant_ID=888","888","","","","","","","",""
"pit-trial","20","258749","0.0-2.0-6.3-0.3","battery-v0.2","","","-1","","","&#9854;","elianto","#FFFFF080","-1","-1","1","&#10004","[]","0","0","1","999&age=9&gender=f&participant_ID=888","888","","","","","","","",""
"pit-trial","21","263611","0.0-2.0-6.4-0.4","battery-v0.2","","","-1","","","&#9854;","elianto","#FFFFF080","-1","-1","1","&#10004","[]","0","0","1","999&age=9&gender=f&participant_ID=888","888","","","","","","","",""
"pit-instructions","22","414491","0.0-2.0-7.0","battery-v0.2","","[{""page_index"":0,""viewing_time"":6202},{""page_index"":1,""viewing_time"":7059},{""page_index"":2,""viewing_time"":5707},{""page_index"":3,""viewing_time"":5843},{""page_index"":4,""viewing_time"":6148},{""page_index"":5,""viewing_time"":7105},{""page_index"":6,""viewing_time"":4294},{""page_index"":7,""viewing_time"":7792},{""page_index"":8,""viewing_time"":6499},{""page_index"":9,""viewing_time"":6641},{""page_index"":10,""viewing_time"":6778},{""page_index"":11,""viewing_time"":4639},{""page_index"":12,""viewing_time"":41788},{""page_index"":13,""viewing_time"":6789},{""page_index"":14,""viewing_time"":7213},{""page_index"":15,""viewing_time"":6507},{""page_index"":16,""viewing_time"":6666},{""page_index"":17,""viewing_time"":7206}]","150876","","","","","","","","","","","","","","","","","","","","","","",""
"pit-trial","23","417728","0.0-2.0-8.0-0.0","battery-v0.2","","","373","","","&#9776;","elianto","#3366ff99"," "," ","1","+10","[1228]","1","0","1","999&age=9&gender=f&participant_ID=888","888","","","","","","","",""
"pit-trial","24","420821","0.0-2.0-8.0-1.0","battery-v0.2","","","233","","","&#9776;","elianto","#3366ff99"," "," ","1","+10","[1084]","1","0","1","999&age=9&gender=f&participant_ID=888","888","","","","","","","",""
"pit-trial","25","423824","0.0-2.0-8.0-2.0","battery-v0.2","","","142","","","&#9776;","elianto","#3366ff99"," "," ","1","+10","[997]","1","0","1","999&age=9&gender=f&participant_ID=888","888","","","","","","","",""
"pit-trial","26","427166","0.0-2.0-8.0-3.0","battery-v0.2","","","479","","","&#9776;","elianto","#3366ff99"," "," ","1","0","[1332]","1","0","1","999&age=9&gender=f&participant_ID=888","888","","","","","","","",""
"pit-trial","27","430273","0.0-2.0-8.0-4.0","battery-v0.2","","","242","","","&#9776;","elianto","#3366ff99"," "," ","1","+10","[1098]","1","0","1","999&age=9&gender=f&participant_ID=888","888","","","","","","","",""
"call-function","28","430276","0.0-2.0-9.0","battery-v0.2","","","","","","","","","","","","","","","","","","","","","","","","","",""
"pit-instructions","29","607914","0.0-2.0-10.0","battery-v0.2","","[{""page_index"":0,""viewing_time"":6183},{""page_index"":1,""viewing_time"":6023},{""page_index"":2,""viewing_time"":5838},{""page_index"":1,""viewing_time"":659},{""page_index"":0,""viewing_time"":4968},{""page_index"":1,""viewing_time"":3485},{""page_index"":2,""viewing_time"":9139},{""page_index"":1,""viewing_time"":54533},{""page_index"":2,""viewing_time"":60749},{""page_index"":3,""viewing_time"":9462},{""page_index"":4,""viewing_time"":8961},{""page_index"":5,""viewing_time"":7640}]","177640","","","","","","","","","","","","","","","","","","","","","","",""
"pit-trial","30","611355","0.0-2.0-11.0-0.0","battery-v0.2","","","582","","","&#9761;","elianto","#3366ff99","-1"," ","0","0","[1434]","1","0","2","999&age=9&gender=f&participant_ID=888","888","","","","","","","",""
"pit-trial","31","616220","0.0-2.0-11.0-1.0","battery-v0.2","","","-1","","","&#9761;","elianto","#3366ff99","-1","-1","1","+10","[]","0","0","2","999&age=9&gender=f&participant_ID=888","888","","","","","","","",""
"pit-trial","32","621080","0.0-2.0-11.0-2.0","battery-v0.2","","","-1","","","&#9761;","elianto","#3366ff99","-1","-1","1","+10","[]","0","0","2","999&age=9&gender=f&participant_ID=888","888","","","","","","","",""
"pit-trial","33","625943","0.0-2.0-11.0-3.0","battery-v0.2","","","-1","","","&#9761;","elianto","#3366ff99","-1","-1","1","0","[]","0","0","2","999&age=9&gender=f&participant_ID=888","888","","","","","","","",""
"pit-trial","34","630807","0.0-2.0-11.0-4.0","battery-v0.2","","","-1","","","&#9761;","elianto","#3366ff99","-1","-1","1","+10","[]","0","0","2","999&age=9&gender=f&participant_ID=888","888","","","","","","","",""
"call-function","35","630810","0.0-2.0-12.0","battery-v0.2","","","","","","","","","","","","","","","","","","","","","","","","","",""
"pit-instructions","36","707881","0.0-2.0-13.0","battery-v0.2","","[{""page_index"":0,""viewing_time"":7091},{""page_index"":1,""viewing_time"":7009},{""page_index"":2,""viewing_time"":3517},{""page_index"":3,""viewing_time"":54709},{""page_index"":4,""viewing_time"":4747}]","77073","","","","","","","","","","","","","","","","","","","","","","",""
"pit-trial","37","712743","0.0-2.0-14.0-0.0","battery-v0.2","","","-1","","","&#9826;","elianto","#f73b6a7A","-1","-1","1","0","[]","0","0","3","999&age=9&gender=f&participant_ID=888","888","","","","","","","",""
"pit-trial","38","717606","0.0-2.0-14.0-1.0","battery-v0.2","","","-1","","","&#9826;","elianto","#f73b6a7A","-1","-1","1","0","[]","0","0","3","999&age=9&gender=f&participant_ID=888","888","","","","","","","",""
"pit-trial","39","722470","0.0-2.0-14.0-2.0","battery-v0.2","","","-1","","","&#9826;","elianto","#f73b6a7A","-1","-1","1","0","[]","0","0","3","999&age=9&gender=f&participant_ID=888","888","","","","","","","",""
"pit-trial","40","725554","0.0-2.0-14.0-3.0","battery-v0.2","","","222","","","&#9826;","elianto","#f73b6a7A","-1"," ","0","0","[1077]","1","0","3","999&age=9&gender=f&participant_ID=888","888","","","","","","","",""
"pit-trial","41","728460","0.0-2.0-14.0-4.0","battery-v0.2","","","47","","","&#9826;","elianto","#f73b6a7A","-1"," ","0","-10","[898]","1","0","3","999&age=9&gender=f&participant_ID=888","888","","","","","","","",""
"pit-trial","42","733324","0.0-2.0-14.1-0.1","battery-v0.2","","","-1","","","&#9826;","elianto","#f73b6a7A","-1","-1","1","0","[]","0","0","3","999&age=9&gender=f&participant_ID=888","888","","","","","","","",""
"pit-trial","43","738185","0.0-2.0-14.1-1.1","battery-v0.2","","","-1","","","&#9826;","elianto","#f73b6a7A","-1","-1","1","0","[]","0","0","3","999&age=9&gender=f&participant_ID=888","888","","","","","","","",""
"pit-trial","44","743049","0.0-2.0-14.1-2.1","battery-v0.2","","","-1","","","&#9826;","elianto","#f73b6a7A","-1","-1","1","0","[]","0","0","3","999&age=9&gender=f&participant_ID=888","888","","","","","","","",""
"pit-trial","45","747909","0.0-2.0-14.1-3.1","battery-v0.2","","","-1","","","&#9826;","elianto","#f73b6a7A","-1","-1","1","-10","[]","0","0","3","999&age=9&gender=f&participant_ID=888","888","","","","","","","",""
"pit-trial","46","752774","0.0-2.0-14.1-4.1","battery-v0.2","","","-1","","","&#9826;","elianto","#f73b6a7A","-1","-1","1","0","[]","0","0","3","999&age=9&gender=f&participant_ID=888","888","","","","","","","",""
"call-function","47","752777","0.0-2.0-15.0","battery-v0.2","","","","","","","","","","","","","","","","","","","","","","","","","",""
"pit-instructions","48","782464","0.0-2.0-16.0","battery-v0.2","","[{""page_index"":0,""viewing_time"":10545},{""page_index"":1,""viewing_time"":8813},{""page_index"":2,""viewing_time"":5163},{""page_index"":3,""viewing_time"":5166}]","29687","","","","","","","","","","","","","","","","","","","","","","",""
"pit-trial","49","785543","0.0-2.0-17.0-0.0","battery-v0.2","","","220","","","&#9789;","elianto","#f73b6a7A"," "," ","1","0","[1076]","1","0","4","999&age=9&gender=f&participant_ID=888","888","","","","","","","",""
"pit-trial","50","788783","0.0-2.0-17.0-1.0","battery-v0.2","","","380","","","&#9789;","elianto","#f73b6a7A"," "," ","1","0","[1232]","1","0","4","999&age=9&gender=f&participant_ID=888","888","","","","","","","",""
"pit-trial","51","792047","0.0-2.0-17.0-2.0","battery-v0.2","","","402","","","&#9789;","elianto","#f73b6a7A"," "," ","1","0","[1255]","1","0","4","999&age=9&gender=f&participant_ID=888","888","","","","","","","",""
"pit-trial","52","794988","0.0-2.0-17.0-3.0","battery-v0.2","","","77","","","&#9789;","elianto","#f73b6a7A"," "," ","1","-10","[932]","1","0","4","999&age=9&gender=f&participant_ID=888","888","","","","","","","",""
"pit-trial","53","798264","0.0-2.0-17.0-4.0","battery-v0.2","","","415","","","&#9789;","elianto","#f73b6a7A"," "," ","1","0","[1267]","1","0","4","999&age=9&gender=f&participant_ID=888","888","","","","","","","",""
"call-function","54","798267","0.0-2.0-18.0","battery-v0.2","","","","","","","","","","","","","","","","","","","","","","","","","",""
"pit-instructions","55","1008690","0.0-2.0-19.0","battery-v0.2","","[{""page_index"":0,""viewing_time"":6933},{""page_index"":1,""viewing_time"":8180},{""page_index"":2,""viewing_time"":13999},{""page_index"":3,""viewing_time"":143178},{""page_index"":4,""viewing_time"":8415},{""page_index"":5,""viewing_time"":9398},{""page_index"":6,""viewing_time"":9202},{""page_index"":7,""viewing_time"":6733},{""page_index"":8,""viewing_time"":4389}]","210429","","","","","","","","","","","","","","","","","","","","","","",""
"pit-comprehension","56","1014954","0.0-2.0-20.0-0.0","battery-v0.2","","","6259","[""SPACE""]","0","","","","","","","","","","","","","","","","","","","","",""
"pit-instructions","57","1053286","0.0-2.0-20.0-1.0","battery-v0.2","","[{""page_index"":0,""viewing_time"":38322}]","38322","","","","","","","","","","","","","","","","","","","","","","",""
"pit-comprehension","58","1060788","0.0-2.0-21.0-0.0","battery-v0.2","","","7496","[""10""]","0","","","","","","","","","","","","","","","","","","","","",""
"pit-instructions","59","1065166","0.0-2.0-21.0-1.0","battery-v0.2","","[{""page_index"":0,""viewing_time"":4366}]","4367","","","","","","","","","","","","","","","","","","","","","","",""
"pit-comprehension","60","1141666","0.0-2.0-22.0-0.0","battery-v0.2","","","76496","[""0""]","0","","","","","","","","","","","","","","","","","","","","",""
"pit-instructions","61","1143295","0.0-2.0-22.0-1.0","battery-v0.2","","[{""page_index"":0,""viewing_time"":1617}]","1617","","","","","","","","","","","","","","","","","","","","","","",""
"pit-comprehension","62","1153515","0.0-2.0-23.0-0.0","battery-v0.2","","","10216","[""False""]","1","","","","","","","","","","","","","","","","","","","","",""
"pit-instructions","63","1157489","0.0-2.0-23.0-1.0","battery-v0.2","","[{""page_index"":0,""viewing_time"":3962}]","3963","","","","","","","","","","","","","","","","","","","","","","",""
"pit-instructions","64","1159476","0.0-2.0-23.0-2.0-0.0","battery-v0.2","","[{""page_index"":0,""viewing_time"":1984}]","1984","","","","","","","","","","","","","","","","","","","","","","",""
"pit-comprehension","65","1169632","0.0-2.0-23.1-0.1","battery-v0.2","","","10152","[""True""]","0","","","","","","","","","","","","","","","","","","","","",""
"pit-instructions","66","1171765","0.0-2.0-23.1-1.1","battery-v0.2","","[{""page_index"":0,""viewing_time"":2123}]","2123","","","","","","","","","","","","","","","","","","","","","","",""
"pit-comprehension","67","1186112","0.0-2.0-24.0-0.0","battery-v0.2","","","14345","[""False""]","1","","","","","","","","","","","","","","","","","","","","",""
"pit-instructions","68","1188983","0.0-2.0-24.0-1.0","battery-v0.2","","[{""page_index"":0,""viewing_time"":2860}]","2860","","","","","","","","","","","","","","","","","","","","","","",""
"pit-instructions","69","1193239","0.0-2.0-24.0-2.0-0.0","battery-v0.2","","[{""page_index"":0,""viewing_time"":4255}]","4255","","","","","","","","","","","","","","","","","","","","","","",""
"pit-comprehension","70","1200601","0.0-2.0-24.1-0.1","battery-v0.2","","","7357","[""True""]","0","","","","","","","","","","","","","","","","","","","","",""
"pit-instructions","71","1203690","0.0-2.0-24.1-1.1","battery-v0.2","","[{""page_index"":0,""viewing_time"":3077}]","3078","","","","","","","","","","","","","","","","","","","","","","",""
"pit-comprehension","72","1210349","0.0-2.0-25.0-0.0","battery-v0.2","","","6654","[""True""]","0","","","","","","","","","","","","","","","","","","","","",""
"pit-instructions","73","1212693","0.0-2.0-25.0-1.0","battery-v0.2","","[{""page_index"":0,""viewing_time"":2332}]","2332","","","","","","","","","","","","","","","","","","","","","","",""
"pit-comprehension","74","1218566","0.0-2.0-26.0-0.0","battery-v0.2","","","5868","[""False""]","0","","","","","","","","","","","","","","","","","","","","",""
"pit-instructions","75","1224745","0.0-2.0-26.0-1.0","battery-v0.2","","[{""page_index"":0,""viewing_time"":6166}]","6166","","","","","","","","","","","","","","","","","","","","","","",""
"pit-instructions","76","1241215","0.0-3.0","battery-v0.2","","[{""page_index"":0,""viewing_time"":3918},{""page_index"":1,""viewing_time"":5037},{""page_index"":2,""viewing_time"":7512}]","16467","","","","","","","","","","","","","","","","","","","","","","",""
"pit-trial","77","1244420","0.0-4.0","battery-v0.2","","","347","","","&#9752;","elianto","#f73b6a7A"," "," ","1","0","[1197]","1","1","","","","","999&age=9&gender=f&participant_ID=888","1","3","3","lose","go","0"
"pit-trial","78","1247911","0.0-5.0","battery-v0.2","","","635","","","&#9728;","elianto","#f73b6a7A","-1"," ","0","-10","[1486]","1","1","","","","","999&age=9&gender=f&participant_ID=888","2","0","4","lose","no-go","0"
"pit-trial","79","1251874","0.0-6.0","battery-v0.2","","","1098","","","&#9733;","elianto","#3366ff99","-1"," ","0","0","[1953]","1","1","","","","","999&age=9&gender=f&participant_ID=888","3","2","2","win","no-go","0"
"pit-trial","80","1256738","0.0-7.0","battery-v0.2","","","-1","","","&#9730;","elianto","#3366ff99"," ","-1","0","0","[]","0","1","","","","","999&age=9&gender=f&participant_ID=888","4","1","1","win","go","0"
"pit-trial","81","1259683","0.0-8.0","battery-v0.2","","","81","","","&#9728;","elianto","#f73b6a7A","-1"," ","0","-10","[935]","1","1","","","","","999&age=9&gender=f&participant_ID=888","5","0","4","lose","no-go","0"
"pit-trial","82","1263667","0.0-9.0","battery-v0.2","","","1127","","","&#9733;","elianto","#3366ff99","-1"," ","0","0","[1978]","1","1","","","","","999&age=9&gender=f&participant_ID=888","6","2","2","win","no-go","0"
"pit-trial","83","1267604","0.0-10.0","battery-v0.2","","","1077","","","&#9752;","elianto","#f73b6a7A"," "," ","1","0","[1928]","1","1","","","","","999&age=9&gender=f&participant_ID=888","7","3","3","lose","go","0"
"pit-trial","84","1272467","0.0-11.0","battery-v0.2","","","-1","","","&#9730;","elianto","#3366ff99"," ","-1","0","0","[]","0","1","","","","","999&age=9&gender=f&participant_ID=888","8","1","1","win","go","0"
"pit-trial","85","1277332","0.0-12.0","battery-v0.2","","","-1","","","&#9728;","elianto","#f73b6a7A","-1","-1","1","0","[]","0","1","","","","","999&age=9&gender=f&participant_ID=888","9","0","4","lose","no-go","0"
"pit-trial","86","1282194","0.0-13.0","battery-v0.2","","","-1","","","&#9752;","elianto","#f73b6a7A"," ","-1","0","-10","[]","0","1","","","","","999&age=9&gender=f&participant_ID=888","10","3","3","lose","go","0"
"pit-trial","87","1285877","0.0-14.0","battery-v0.2","","","818","","","&#9733;","elianto","#3366ff99","-1"," ","0","+10","[1673]","1","1","","","","","999&age=9&gender=f&participant_ID=888","11","2","2","win","no-go","1"
"pit-trial","88","1290737","0.0-15.0","battery-v0.2","","","-1","","","&#9730;","elianto","#3366ff99"," ","-1","0","0","[]","0","1","","","","","999&age=9&gender=f&participant_ID=888","12","1","1","win","go","0"
"pit-trial","89","1294508","0.0-16.0","battery-v0.2","","","908","","","&#9730;","elianto","#3366ff99"," "," ","1","0","[1762]","1","1","","","","","999&age=9&gender=f&participant_ID=888","13","1","1","win","go","1"
"pit-trial","90","1298930","0.0-17.0","battery-v0.2","","","1567","","","&#9752;","elianto","#f73b6a7A"," "," ","1","0","[2418]","1","1","","","","","999&age=9&gender=f&participant_ID=888","14","3","3","lose","go","0"
"pit-trial","91","1303228","0.0-18.0","battery-v0.2","","","1437","","","&#9733;","elianto","#3366ff99","-1"," ","0","0","[2290]","1","1","","","","","999&age=9&gender=f&participant_ID=888","15","2","2","win","no-go","0"
"pit-trial","92","1308090","0.0-19.0","battery-v0.2","","","-1","","","&#9728;","elianto","#f73b6a7A","-1","-1","1","0","[]","0","1","","","","","999&age=9&gender=f&participant_ID=888","16","0","4","lose","no-go","0"
"pit-trial","93","1312949","0.0-20.0","battery-v0.2","","","-1","","","&#9733;","elianto","#3366ff99","-1","-1","1","+10","[3088]","1","1","","","","","999&age=9&gender=f&participant_ID=888","17","2","2","win","no-go","0"
"pit-trial","94","1317430","0.0-21.0","battery-v0.2","","","1622","","","&#9730;","elianto","#3366ff99"," "," ","1","+10","[2477]","1","1","","","","","999&age=9&gender=f&participant_ID=888","18","1","1","win","go","0"
"pit-trial","95","1321769","0.0-22.0","battery-v0.2","","","1474","","","&#9752;","elianto","#f73b6a7A"," "," ","1","0","[2329]","1","1","","","","","999&age=9&gender=f&participant_ID=888","19","3","3","lose","go","0"
"pit-trial","96","1326631","0.0-23.0","battery-v0.2","","","-1","","","&#9728;","elianto","#f73b6a7A","-1","-1","1","-10","[]","0","1","","","","","999&age=9&gender=f&participant_ID=888","20","0","4","lose","no-go","1"
"pit-instructions","97","1340114","0.0-24.0","battery-v0.2","","[{""page_index"":0,""viewing_time"":6440},{""page_index"":1,""viewing_time"":7039}]","13480","","","","","","","","","","","","","","","","","","","","","","",""
"pit-trial","98","1343467","0.0-25.0","battery-v0.2","","","491","","","m","elianto","#3366ff99","-1"," ","0","+10","[1344]","1","2","","","","","999&age=9&gender=f&participant_ID=888","21","0","2","win","no-go","1"
"pit-trial","99","1347428","0.0-26.0","battery-v0.2","","","1102","","","h","elianto","#f73b6a7A"," "," ","1","-10","[1953]","1","2","","","","","999&age=9&gender=f&participant_ID=888","22","3","3","lose","go","1"
"pit-trial","100","1351207","0.0-27.0","battery-v0.2","","","914","","","r","elianto","#3366ff99","-1"," ","0","0","[1770]","1","2","","","","","999&age=9&gender=f&participant_ID=888","23","1","2","win","no-go","0"
"pit-trial","101","1355349","0.0-28.0","battery-v0.2","","","1278","","","y","elianto","#3366ff99"," "," ","1","+10","[2133]","1","2","","","","","999&age=9&gender=f&participant_ID=888","24","2","1","win","go","0"
"pit-trial","102","1360213","0.0-29.0","battery-v0.2","","","-1","","","h","elianto","#f73b6a7A"," ","-1","0","-10","[]","0","2","","","","","999&age=9&gender=f&participant_ID=888","25","3","3","lose","go","0"
"pit-trial","103","1365076","0.0-30.0","battery-v0.2","","","-1","","","r","elianto","#3366ff99","-1","-1","1","+10","[]","0","2","","","","","999&age=9&gender=f&participant_ID=888","26","1","2","win","no-go","0"
"pit-trial","104","1368530","0.0-31.0","battery-v0.2","","","589","","","m","elianto","#3366ff99","-1"," ","0","0","[1444]","1","2","","","","","999&age=9&gender=f&participant_ID=888","27","0","2","win","no-go","0"
"pit-trial","105","1372115","0.0-32.0","battery-v0.2","","","722","","","y","elianto","#3366ff99"," "," ","1","+10","[1576]","1","2","","","","","999&age=9&gender=f&participant_ID=888","28","2","1","win","go","0"
"pit-trial","106","1376221","0.0-33.0","battery-v0.2","","","1246","","","h","elianto","#f73b6a7A"," "," ","1","0","[2101]","1","2","","","","","999&age=9&gender=f&participant_ID=888","29","3","3","lose","go","0"
"pit-trial","107","1379593","0.0-34.0","battery-v0.2","","","514","","","m","elianto","#3366ff99","-1"," ","0","+10","[1369]","1","2","","","","","999&age=9&gender=f&participant_ID=888","30","0","2","win","no-go","1"
"pit-trial","108","1384455","0.0-35.0","battery-v0.2","","","-1","","","r","elianto","#3366ff99","-1","-1","1","+10","[]","0","2","","","","","999&age=9&gender=f&participant_ID=888","31","1","2","win","no-go","0"
"pit-trial","109","1388092","0.0-36.0","battery-v0.2","","","776","","","y","elianto","#3366ff99"," "," ","1","+10","[1628]","1","2","","","","","999&age=9&gender=f&participant_ID=888","32","2","1","win","go","0"
"pit-trial","110","1391852","0.0-37.0","battery-v0.2","","","900","","","y","elianto","#3366ff99"," "," ","1","+10","[1755]","1","2","","","","","999&age=9&gender=f&participant_ID=888","33","2","1","win","go","0"
"pit-trial","111","1396712","0.0-38.0","battery-v0.2","","","-1","","","r","elianto","#3366ff99","-1","-1","1","+10","[]","0","2","","","","","999&age=9&gender=f&participant_ID=888","34","1","2","win","no-go","0"
"pit-trial","112","1400400","0.0-39.0","battery-v0.2","","","824","","","h","elianto","#f73b6a7A"," "," ","1","-10","[1679]","1","2","","","","","999&age=9&gender=f&participant_ID=888","35","3","3","lose","go","1"
"pit-trial","113","1403877","0.0-40.0","battery-v0.2","","","616","","","m","elianto","#3366ff99","-1"," ","0","0","[1468]","1","2","","","","","999&age=9&gender=f&participant_ID=888","36","0","2","win","no-go","0"
"pit-trial","114","1407229","0.0-41.0","battery-v0.2","","","493","","","y","elianto","#3366ff99"," "," ","1","+10","[1347]","1","2","","","","","999&age=9&gender=f&participant_ID=888","37","2","1","win","go","0"
"pit-trial","115","1412094","0.0-42.0","battery-v0.2","","","-1","","","r","elianto","#3366ff99","-1","-1","1","+10","[]","0","2","","","","","999&age=9&gender=f&participant_ID=888","38","1","2","win","no-go","0"
"pit-trial","116","1415766","0.0-43.0","battery-v0.2","","","814","","","h","elianto","#f73b6a7A"," "," ","1","-10","[1665]","1","2","","","","","999&age=9&gender=f&participant_ID=888","39","3","3","lose","go","1"
"pit-trial","117","1419252","0.0-44.0","battery-v0.2","","","626","","","m","elianto","#3366ff99","-1"," ","0","0","[1477]","1","2","","","","","999&age=9&gender=f&participant_ID=888","40","0","2","win","no-go","0"
"pit-trial","118","1422886","0.0-45.0","battery-v0.2","","","769","","","h","elianto","#f73b6a7A"," "," ","1","0","[1624]","1","2","","","","","999&age=9&gender=f&participant_ID=888","41","3","3","lose","go","0"
"pit-trial","119","1426329","0.0-46.0","battery-v0.2","","","578","","","y","elianto","#3366ff99"," "," ","1","0","[1433]","1","2","","","","","999&age=9&gender=f&participant_ID=888","42","2","1","win","go","1"
"pit-trial","120","1431186","0.0-47.0","battery-v0.2","","","-1","","","r","elianto","#3366ff99","-1","-1","1","0","[]","0","2","","","","","999&age=9&gender=f&participant_ID=888","43","1","2","win","no-go","1"
"pit-trial","121","1434701","0.0-48.0","battery-v0.2","","","653","","","m","elianto","#3366ff99","-1"," ","0","+10","[1505]","1","2","","","","","999&age=9&gender=f&participant_ID=888","44","0","2","win","no-go","1"
"pit-trial","122","1439565","0.0-49.0","battery-v0.2","","","-1","","","r","elianto","#3366ff99","-1","-1","1","0","[]","0","2","","","","","999&age=9&gender=f&participant_ID=888","45","1","2","win","no-go","1"
"pit-trial","123","1443138","0.0-50.0","battery-v0.2","","","714","","","h","elianto","#f73b6a7A"," "," ","1","0","[1565]","1","2","","","","","999&age=9&gender=f&participant_ID=888","46","3","3","lose","go","0"
"pit-trial","124","1446766","0.0-51.0","battery-v0.2","","","769","","","y","elianto","#3366ff99"," "," ","1","0","[1622]","1","2","","","","","999&age=9&gender=f&participant_ID=888","47","2","1","win","go","1"
"pit-trial","125","1450236","0.0-52.0","battery-v0.2","","","610","","","m","elianto","#3366ff99","-1"," ","0","0","[1463]","1","2","","","","","999&age=9&gender=f&participant_ID=888","48","0","2","win","no-go","0"
"pit-trial","126","1453884","0.0-53.0","battery-v0.2","","","784","","","h","elianto","#f73b6a7A"," "," ","1","0","[1639]","1","2","","","","","999&age=9&gender=f&participant_ID=888","49","3","3","lose","go","0"
"pit-trial","127","1457577","0.0-54.0","battery-v0.2","","","828","","","y","elianto","#3366ff99"," "," ","1","0","[1683]","1","2","","","","","999&age=9&gender=f&participant_ID=888","50","2","1","win","go","1"
"pit-trial","128","1462437","0.0-55.0","battery-v0.2","","","-1","","","r","elianto","#3366ff99","-1","-1","1","+10","[]","0","2","","","","","999&age=9&gender=f&participant_ID=888","51","1","2","win","no-go","0"
"pit-trial","129","1465823","0.0-56.0","battery-v0.2","","","525","","","m","elianto","#3366ff99","-1"," ","0","0","[1380]","1","2","","","","","999&age=9&gender=f&participant_ID=888","52","0","2","win","no-go","0"
"pit-trial","130","1470685","0.0-57.0","battery-v0.2","","","-1","","","c","elianto","#f73b6a7A"," ","-1","0","-10","[]","0","2","","","","","999&age=9&gender=f&participant_ID=888","53","5","3","lose","go","0"
"pit-trial","131","1474474","0.0-58.0","battery-v0.2","","","928","","","m","elianto","#3366ff99","-1"," ","0","0","[1780]","1","2","","","","","999&age=9&gender=f&participant_ID=888","54","0","2","win","no-go","0"
"pit-trial","132","1477785","0.0-59.0","battery-v0.2","","","451","","","y","elianto","#3366ff99"," "," ","1","+10","[1307]","1","2","","","","","999&age=9&gender=f&participant_ID=888","55","2","1","win","go","0"
"pit-trial","133","1482648","0.0-60.0","battery-v0.2","","","-1","","","z","elianto","#f73b6a7A","-1","-1","1","0","[]","0","2","","","","","999&age=9&gender=f&participant_ID=888","56","4","4","lose","no-go","0"
"pit-trial","134","1486299","0.0-61.0","battery-v0.2","","","792","","","y","elianto","#3366ff99"," "," ","1","+10","[1647]","1","2","","","","","999&age=9&gender=f&participant_ID=888","57","2","1","win","go","0"
"pit-trial","135","1490485","0.0-62.0","battery-v0.2","","","1325","","","m","elianto","#3366ff99","-1"," ","0","0","[2179]","1","2","","","","","999&age=9&gender=f&participant_ID=888","58","0","2","win","no-go","0"
"pit-trial","136","1495238","0.0-63.0","battery-v0.2","","","1888","","","c","elianto","#f73b6a7A"," "," ","1","0","[2743]","1","2","","","","","999&age=9&gender=f&participant_ID=888","59","5","3","lose","go","0"
"pit-trial","137","1500102","0.0-64.0","battery-v0.2","","","-1","","","z","elianto","#f73b6a7A","-1","-1","1","0","[]","0","2","","","","","999&age=9&gender=f&participant_ID=888","60","4","4","lose","no-go","0"
"pit-trial","138","1503649","0.0-65.0","battery-v0.2","","","687","","","y","elianto","#3366ff99"," "," ","1","+10","[1542]","1","2","","","","","999&age=9&gender=f&participant_ID=888","61","2","1","win","go","0"
"pit-trial","139","1508513","0.0-66.0","battery-v0.2","","","-1","","","b","elianto","#3366ff99","-1","-1","1","+10","[]","0","2","","","","","999&age=9&gender=f&participant_ID=888","62","6","2","win","no-go","0"
"pit-trial","140","1512807","0.0-67.0","battery-v0.2","","","1435","","","c","elianto","#f73b6a7A"," "," ","1","0","[2284]","1","2","","","","","999&age=9&gender=f&participant_ID=888","63","5","3","lose","go","0"
"pit-trial","141","1517667","0.0-68.0","battery-v0.2","","","-1","","","z","elianto","#f73b6a7A","-1","-1","1","0","[]","0","2","","","","","999&age=9&gender=f&participant_ID=888","64","4","4","lose","no-go","0"
"pit-trial","142","1521182","0.0-69.0","battery-v0.2","","","653","","","y","elianto","#3366ff99"," "," ","1","+10","[1508]","1","2","","","","","999&age=9&gender=f&participant_ID=888","65","2","1","win","go","0"
"pit-trial","143","1526039","0.0-70.0","battery-v0.2","","","-1","","","c","elianto","#f73b6a7A"," ","-1","0","-10","[2937]","1","2","","","","","999&age=9&gender=f&participant_ID=888","66","5","3","lose","go","0"
"pit-trial","144","1530902","0.0-71.0","battery-v0.2","","","-1","","","b","elianto","#3366ff99","-1","-1","1","+10","[]","0","2","","","","","999&age=9&gender=f&participant_ID=888","67","6","2","win","no-go","0"
"pit-trial","145","1535766","0.0-72.0","battery-v0.2","","","-1","","","z","elianto","#f73b6a7A","-1","-1","1","-10","[]","0","2","","","","","999&age=9&gender=f&participant_ID=888","68","4","4","lose","no-go","1"
"pit-trial","146","1540290","0.0-73.0","battery-v0.2","","","1660","","","t","elianto","#f73b6a7A","-1"," ","0","-10","[2515]","1","2","","","","","999&age=9&gender=f&participant_ID=888","69","7","4","lose","no-go","0"
"pit-trial","147","1545149","0.0-74.0","battery-v0.2","","","-1","","","z","elianto","#f73b6a7A","-1","-1","1","-10","[3105]","1","2","","","","","999&age=9&gender=f&participant_ID=888","70","4","4","lose","no-go","1"
"pit-trial","148","1550009","0.0-75.0","battery-v0.2","","","-1","","","b","elianto","#3366ff99","-1","-1","1","0","[]","0","2","","","","","999&age=9&gender=f&participant_ID=888","71","6","2","win","no-go","1"
"pit-trial","149","1554300","0.0-76.0","battery-v0.2","","","1431","","","c","elianto","#f73b6a7A"," "," ","1","0","[2282]","1","2","","","","","999&age=9&gender=f&participant_ID=888","72","5","3","lose","go","0"
"pit-trial","150","1557881","0.0-77.0","battery-v0.2","","","719","","","c","elianto","#f73b6a7A"," "," ","1","0","[1574]","1","2","","","","","999&age=9&gender=f&participant_ID=888","73","5","3","lose","go","0"
"pit-trial","151","1561822","0.0-78.0","battery-v0.2","","","1079","","","z","elianto","#f73b6a7A","-1"," ","0","-10","[1932]","1","2","","","","","999&age=9&gender=f&participant_ID=888","74","4","4","lose","no-go","0"
"pit-trial","152","1566686","0.0-79.0","battery-v0.2","","","-1","","","t","elianto","#f73b6a7A","-1","-1","1","0","[3085]","1","2","","","","","999&age=9&gender=f&participant_ID=888","75","7","4","lose","no-go","0"
"pit-trial","153","1570720","0.0-80.0","battery-v0.2","","","1170","","","b","elianto","#3366ff99","-1"," ","0","0","[2025]","1","2","","","","","999&age=9&gender=f&participant_ID=888","76","6","2","win","no-go","0"
"pit-trial","154","1575584","0.0-81.0","battery-v0.2","","","-1","","","b","elianto","#3366ff99","-1","-1","1","+10","[]","0","2","","","","","999&age=9&gender=f&participant_ID=888","77","6","2","win","no-go","0"
"pit-trial","155","1579533","0.0-82.0","battery-v0.2","","","1090","","","z","elianto","#f73b6a7A","-1"," ","0","-10","[1945]","1","2","","","","","999&age=9&gender=f&participant_ID=888","78","4","4","lose","no-go","0"
"pit-trial","156","1583024","0.0-83.0","battery-v0.2","","","635","","","c","elianto","#f73b6a7A"," "," ","1","0","[1487]","1","2","","","","","999&age=9&gender=f&participant_ID=888","79","5","3","lose","go","0"
"pit-trial","157","1587883","0.0-84.0","battery-v0.2","","","-1","","","t","elianto","#f73b6a7A","-1","-1","1","0","[]","0","2","","","","","999&age=9&gender=f&participant_ID=888","80","7","4","lose","no-go","0"
"pit-trial","158","1592748","0.0-85.0","battery-v0.2","","","-1","","","z","elianto","#f73b6a7A","-1","-1","1","0","[]","0","2","","","","","999&age=9&gender=f&participant_ID=888","81","4","4","lose","no-go","0"
"pit-trial","159","1597605","0.0-86.0","battery-v0.2","","","-1","","","t","elianto","#f73b6a7A","-1","-1","1","0","[]","0","2","","","","","999&age=9&gender=f&participant_ID=888","82","7","4","lose","no-go","0"
"pit-trial","160","1601044","0.0-87.0","battery-v0.2","","","576","","","c","elianto","#f73b6a7A"," "," ","1","0","[1431]","1","2","","","","","999&age=9&gender=f&participant_ID=888","83","5","3","lose","go","0"
"pit-trial","161","1605909","0.0-88.0","battery-v0.2","","","-1","","","b","elianto","#3366ff99","-1","-1","1","0","[]","0","2","","","","","999&age=9&gender=f&participant_ID=888","84","6","2","win","no-go","1"
"pit-trial","162","1610773","0.0-89.0","battery-v0.2","","","-1","","","z","elianto","#f73b6a7A","-1","-1","1","0","[]","0","2","","","","","999&age=9&gender=f&participant_ID=888","85","4","4","lose","no-go","0"
"pit-trial","163","1615636","0.0-90.0","battery-v0.2","","","-1","","","b","elianto","#3366ff99","-1","-1","1","+10","[]","0","2","","","","","999&age=9&gender=f&participant_ID=888","86","6","2","win","no-go","0"
"pit-trial","164","1619590","0.0-91.0","battery-v0.2","","","1092","","","c","elianto","#f73b6a7A"," "," ","1","0","[1946]","1","2","","","","","999&age=9&gender=f&participant_ID=888","87","5","3","lose","go","0"
"pit-trial","165","1624454","0.0-92.0","battery-v0.2","","","-1","","","t","elianto","#f73b6a7A","-1","-1","1","0","[]","0","2","","","","","999&age=9&gender=f&participant_ID=888","88","7","4","lose","no-go","0"
"pit-trial","166","1629313","0.0-93.0","battery-v0.2","","","-1","","","t","elianto","#f73b6a7A","-1","-1","1","0","[]","0","2","","","","","999&age=9&gender=f&participant_ID=888","89","7","4","lose","no-go","0"
"pit-trial","167","1632946","0.0-94.0","battery-v0.2","","","770","","","c","elianto","#f73b6a7A"," "," ","1","0","[1624]","1","2","","","","","999&age=9&gender=f&participant_ID=888","90","5","3","lose","go","0"
"pit-trial","168","1637806","0.0-95.0","battery-v0.2","","","-1","","","z","elianto","#f73b6a7A","-1","-1","1","0","[]","0","2","","","","","999&age=9&gender=f&participant_ID=888","91","4","4","lose","no-go","0"
"pit-trial","169","1642670","0.0-96.0","battery-v0.2","","","-1","","","b","elianto","#3366ff99","-1","-1","1","+10","[]","0","2","","","","","999&age=9&gender=f&participant_ID=888","92","6","2","win","no-go","0"
"pit-trial","170","1647532","0.0-97.0","battery-v0.2","","","-1","","","c","elianto","#f73b6a7A"," ","-1","0","-10","[3442]","1","2","","","","","999&age=9&gender=f&participant_ID=888","93","5","3","lose","go","0"
"pit-trial","171","1652396","0.0-98.0","battery-v0.2","","","-1","","","t","elianto","#f73b6a7A","-1","-1","1","-10","[]","0","2","","","","","999&age=9&gender=f&participant_ID=888","94","7","4","lose","no-go","1"
"pit-trial","172","1657261","0.0-99.0","battery-v0.2","","","-1","","","x","elianto","#f73b6a7A","-1","-1","1","-10","[]","0","2","","","","","999&age=9&gender=f&participant_ID=888","95","8","4","lose","no-go","1"
"pit-trial","173","1662118","0.0-100.0","battery-v0.2","","","-1","","","b","elianto","#3366ff99","-1","-1","1","0","[]","0","2","","","","","999&age=9&gender=f&participant_ID=888","96","6","2","win","no-go","1"
"pit-trial","174","1666981","0.0-101.0","battery-v0.2","","","-1","","","t","elianto","#f73b6a7A","-1","-1","1","-10","[]","0","2","","","","","999&age=9&gender=f&participant_ID=888","97","7","4","lose","no-go","1"
"pit-trial","175","1670481","0.0-102.0","battery-v0.2","","","640","","","c","elianto","#f73b6a7A"," "," ","1","-10","[1491]","1","2","","","","","999&age=9&gender=f&participant_ID=888","98","5","3","lose","go","1"
"pit-trial","176","1675345","0.0-103.0","battery-v0.2","","","-1","","","b","elianto","#3366ff99","-1","-1","1","+10","[]","0","2","","","","","999&age=9&gender=f&participant_ID=888","99","6","2","win","no-go","0"
"pit-trial","177","1679253","0.0-104.0","battery-v0.2","","","1051","","","x","elianto","#f73b6a7A","-1"," ","0","-10","[1902]","1","2","","","","","999&age=9&gender=f&participant_ID=888","100","8","4","lose","no-go","0"
"pit-trial","178","1684117","0.0-105.0","battery-v0.2","","","-1","","","x","elianto","#f73b6a7A","-1","-1","1","0","[]","0","2","","","","","999&age=9&gender=f&participant_ID=888","101","8","4","lose","no-go","0"
"pit-trial","179","1688310","0.0-106.0","battery-v0.2","","","1335","","","f","elianto","#3366ff99"," "," ","1","+10","[2186]","1","2","","","","","999&age=9&gender=f&participant_ID=888","102","9","1","win","go","0"
"pit-trial","180","1693173","0.0-107.0","battery-v0.2","","","-1","","","b","elianto","#3366ff99","-1","-1","1","0","[]","0","2","","","","","999&age=9&gender=f&participant_ID=888","103","6","2","win","no-go","1"
"pit-trial","181","1697749","0.0-108.0","battery-v0.2","","","1719","","","n","elianto","#f73b6a7A"," "," ","1","0","[2572]","1","2","","","","","999&age=9&gender=f&participant_ID=888","104","10","3","lose","go","0"
"pit-trial","182","1702609","0.0-109.0","battery-v0.2","","","-1","","","b","elianto","#3366ff99","-1","-1","1","+10","[]","0","2","","","","","999&age=9&gender=f&participant_ID=888","105","6","2","win","no-go","0"
"pit-trial","183","1707473","0.0-110.0","battery-v0.2","","","-1","","","x","elianto","#f73b6a7A","-1","-1","1","-10","[]","0","2","","","","","999&age=9&gender=f&participant_ID=888","106","8","4","lose","no-go","1"
"pit-trial","184","1711445","0.0-111.0","battery-v0.2","","","1110","","","n","elianto","#f73b6a7A"," "," ","1","-10","[1965]","1","2","","","","","999&age=9&gender=f&participant_ID=888","107","10","3","lose","go","1"
"pit-trial","185","1714938","0.0-112.0","battery-v0.2","","","633","","","f","elianto","#3366ff99"," "," ","1","0","[1485]","1","2","","","","","999&age=9&gender=f&participant_ID=888","108","9","1","win","go","1"
"pit-trial","186","1718535","0.0-113.0","battery-v0.2","","","736","","","n","elianto","#f73b6a7A"," "," ","1","-10","[1587]","1","2","","","","","999&age=9&gender=f&participant_ID=888","109","10","3","lose","go","1"
"pit-trial","187","1722778","0.0-114.0","battery-v0.2","","","1379","","","q","elianto","#3366ff99"," "," ","1","+10","[2234]","1","2","","","","","999&age=9&gender=f&participant_ID=888","110","11","1","win","go","0"
"pit-trial","188","1727513","0.0-115.0","battery-v0.2","","","1871","","","x","elianto","#f73b6a7A","-1"," ","0","-10","[2726]","1","2","","","","","999&age=9&gender=f&participant_ID=888","111","8","4","lose","no-go","0"
"pit-trial","189","1731999","0.0-116.0","battery-v0.2","","","1622","","","f","elianto","#3366ff99"," "," ","1","+10","[2477]","1","2","","","","","999&age=9&gender=f&participant_ID=888","112","9","1","win","go","0"
"pit-trial","190","1736862","0.0-117.0","battery-v0.2","","","-1","","","x","elianto","#f73b6a7A","-1","-1","1","-10","[]","0","2","","","","","999&age=9&gender=f&participant_ID=888","113","8","4","lose","no-go","1"
"pit-trial","191","1740451","0.0-118.0","battery-v0.2","","","730","","","f","elianto","#3366ff99"," "," ","1","+10","[1581]","1","2","","","","","999&age=9&gender=f&participant_ID=888","114","9","1","win","go","0"
"pit-trial","192","1744135","0.0-119.0","battery-v0.2","","","820","","","n","elianto","#f73b6a7A"," "," ","1","-10","[1676]","1","2","","","","","999&age=9&gender=f&participant_ID=888","115","10","3","lose","go","1"
"pit-trial","193","1747845","0.0-120.0","battery-v0.2","","","849","","","q","elianto","#3366ff99"," "," ","1","0","[1704]","1","2","","","","","999&age=9&gender=f&participant_ID=888","116","11","1","win","go","1"
"pit-trial","194","1752709","0.0-121.0","battery-v0.2","","","-1","","","q","elianto","#3366ff99"," ","-1","0","0","[]","0","2","","","","","999&age=9&gender=f&participant_ID=888","117","11","1","win","go","0"
"pit-trial","195","1756437","0.0-122.0","battery-v0.2","","","864","","","f","elianto","#3366ff99"," "," ","1","+10","[1718]","1","2","","","","","999&age=9&gender=f&participant_ID=888","118","9","1","win","go","0"
"pit-trial","196","1761301","0.0-123.0","battery-v0.2","","","-1","","","x","elianto","#f73b6a7A","-1","-1","1","0","[]","0","2","","","","","999&age=9&gender=f&participant_ID=888","119","8","4","lose","no-go","0"
"pit-trial","197","1766165","0.0-124.0","battery-v0.2","","","-1","","","n","elianto","#f73b6a7A"," ","-1","0","-10","[]","0","2","","","","","999&age=9&gender=f&participant_ID=888","120","10","3","lose","go","0"
"pit-trial","198","1769634","0.0-125.0","battery-v0.2","","","605","","","f","elianto","#3366ff99"," "," ","1","+10","[1461]","1","2","","","","","999&age=9&gender=f&participant_ID=888","121","9","1","win","go","0"
"pit-trial","199","1774494","0.0-126.0","battery-v0.2","","","-1","","","q","elianto","#3366ff99"," ","-1","0","+10","[]","0","2","","","","","999&age=9&gender=f&participant_ID=888","122","11","1","win","go","1"
"pit-trial","200","1779355","0.0-127.0","battery-v0.2","","","-1","","","x","elianto","#f73b6a7A","-1","-1","1","0","[]","0","2","","","","","999&age=9&gender=f&participant_ID=888","123","8","4","lose","no-go","0"
"pit-trial","201","1784218","0.0-128.0","battery-v0.2","","","-1","","","n","elianto","#f73b6a7A"," ","-1","0","-10","[]","0","2","","","","","999&age=9&gender=f&participant_ID=888","124","10","3","lose","go","0"
"pit-trial","202","1789077","0.0-129.0","battery-v0.2","","","-1","","","n","elianto","#f73b6a7A"," ","-1","0","-10","[]","0","2","","","","","999&age=9&gender=f&participant_ID=888","125","10","3","lose","go","0"
"pit-trial","203","1793939","0.0-130.0","battery-v0.2","","","-1","","","x","elianto","#f73b6a7A","-1","-1","1","0","[]","0","2","","","","","999&age=9&gender=f&participant_ID=888","126","8","4","lose","no-go","0"
"pit-trial","204","1798543","0.0-131.0","battery-v0.2","","","1742","","","q","elianto","#3366ff99"," "," ","1","+10","[2596]","1","2","","","","","999&age=9&gender=f&participant_ID=888","127","11","1","win","go","0"
"pit-trial","205","1802238","0.0-132.0","battery-v0.2","","","831","","","f","elianto","#3366ff99"," "," ","1","+10","[1686]","1","2","","","","","999&age=9&gender=f&participant_ID=888","128","9","1","win","go","0"
"pit-trial","206","1805744","0.0-133.0","battery-v0.2","","","642","","","q","elianto","#3366ff99"," "," ","1","+10","[1497]","1","2","","","","","999&age=9&gender=f&participant_ID=888","129","11","1","win","go","0"
"pit-trial","207","1810608","0.0-134.0","battery-v0.2","","","-1","","","x","elianto","#f73b6a7A","-1","-1","1","-10","[]","0","2","","","","","999&age=9&gender=f&participant_ID=888","130","8","4","lose","no-go","1"
"pit-trial","208","1814177","0.0-135.0","battery-v0.2","","","705","","","f","elianto","#3366ff99"," "," ","1","0","[1560]","1","2","","","","","999&age=9&gender=f&participant_ID=888","131","9","1","win","go","1"
"pit-trial","209","1819041","0.0-136.0","battery-v0.2","","","-1","","","n","elianto","#f73b6a7A"," ","-1","0","-10","[]","0","2","","","","","999&age=9&gender=f&participant_ID=888","132","10","3","lose","go","0"
"pit-trial","210","1822930","0.0-137.0","battery-v0.2","","","1030","","","n","elianto","#f73b6a7A"," "," ","1","0","[1881]","1","2","","","","","999&age=9&gender=f&participant_ID=888","133","10","3","lose","go","0"
"pit-trial","211","1827794","0.0-138.0","battery-v0.2","","","-1","","","x","elianto","#f73b6a7A","-1","-1","1","0","[]","0","2","","","","","999&age=9&gender=f&participant_ID=888","134","8","4","lose","no-go","0"
"pit-trial","212","1831609","0.0-139.0","battery-v0.2","","","950","","","f","elianto","#3366ff99"," "," ","1","0","[1805]","1","2","","","","","999&age=9&gender=f&participant_ID=888","135","9","1","win","go","1"
"pit-trial","213","1835255","0.0-140.0","battery-v0.2","","","781","","","q","elianto","#3366ff99"," "," ","1","+10","[1637]","1","2","","","","","999&age=9&gender=f&participant_ID=888","136","11","1","win","go","0"
"pit-trial","214","1840119","0.0-141.0","battery-v0.2","","","-1","","","x","elianto","#f73b6a7A","-1","-1","1","0","[]","0","2","","","","","999&age=9&gender=f&participant_ID=888","137","8","4","lose","no-go","0"
"pit-trial","215","1844983","0.0-142.0","battery-v0.2","","","-1","","","q","elianto","#3366ff99"," ","-1","0","0","[2864]","1","2","","","","","999&age=9&gender=f&participant_ID=888","138","11","1","win","go","0"
"pit-trial","216","1849847","0.0-143.0","battery-v0.2","","","-1","","","n","elianto","#f73b6a7A"," ","-1","0","-10","[]","0","2","","","","","999&age=9&gender=f&participant_ID=888","139","10","3","lose","go","0"
"pit-trial","217","1853209","0.0-144.0","battery-v0.2","","","498","","","f","elianto","#3366ff99"," "," ","1","+10","[1353]","1","2","","","","","999&age=9&gender=f&participant_ID=888","140","9","1","win","go","0"
"pit-instructions","218","1868445","0.0-145.0","battery-v0.2","","[{""page_index"":0,""viewing_time"":6602},{""page_index"":1,""viewing_time"":8630}]","15233","","","","","","","","","","","","","","","","","","","","","","",""
"pit-trial","219","1871709","0.0-146.0","battery-v0.2","","","402","","","v","elianto","#3366ff99","-1"," ","0","+10","[1255]","1","3","","","","","999&age=9&gender=f&participant_ID=888","141","0","2","win","no-go","1"
"pit-trial","220","1874991","0.0-147.0","battery-v0.2","","","422","","","k","elianto","#3366ff99"," "," ","1","+10","[1274]","1","3","","","","","999&age=9&gender=f&participant_ID=888","142","3","1","win","go","0"
"pit-trial","221","1878346","0.0-148.0","battery-v0.2","","","494","","","d","elianto","#f73b6a7A","-1"," ","0","-10","[1350]","1","3","","","","","999&age=9&gender=f&participant_ID=888","143","2","4","lose","no-go","0"
"pit-trial","222","1882317","0.0-149.0","battery-v0.2","","","1107","","","j","elianto","#f73b6a7A"," "," ","1","0","[1962]","1","3","","","","","999&age=9&gender=f&participant_ID=888","144","1","3","lose","go","0"
"pit-trial","223","1887180","0.0-150.0","battery-v0.2","","","-1","","","d","elianto","#f73b6a7A","-1","-1","1","-10","[]","0","3","","","","","999&age=9&gender=f&participant_ID=888","145","2","4","lose","no-go","1"
"pit-trial","224","1891044","0.0-151.0","battery-v0.2","","","1000","","","k","elianto","#3366ff99"," "," ","1","+10","[1855]","1","3","","","","","999&age=9&gender=f&participant_ID=888","146","3","1","win","go","0"
"pit-trial","225","1894364","0.0-152.0","battery-v0.2","","","461","","","v","elianto","#3366ff99","-1"," ","0","0","[1312]","1","3","","","","","999&age=9&gender=f&participant_ID=888","147","0","2","win","no-go","0"
"pit-trial","226","1898352","0.0-153.0","battery-v0.2","","","1125","","","j","elianto","#f73b6a7A"," "," ","1","0","[1980]","1","3","","","","","999&age=9&gender=f&participant_ID=888","148","1","3","lose","go","0"
"pit-trial","227","1901909","0.0-154.0","battery-v0.2","","","696","","","v","elianto","#3366ff99","-1"," ","0","0","[1551]","1","3","","","","","999&age=9&gender=f&participant_ID=888","149","0","2","win","no-go","0"
"pit-trial","228","1905518","0.0-155.0","battery-v0.2","","","750","","","j","elianto","#f73b6a7A"," "," ","1","0","[1603]","1","3","","","","","999&age=9&gender=f&participant_ID=888","150","1","3","lose","go","0"
"pit-trial","229","1909259","0.0-156.0","battery-v0.2","","","878","","","k","elianto","#3366ff99"," "," ","1","+10","[1733]","1","3","","","","","999&age=9&gender=f&participant_ID=888","151","3","1","win","go","0"
"pit-trial","230","1913156","0.0-157.0","battery-v0.2","","","1035","","","d","elianto","#f73b6a7A","-1"," ","0","-10","[1891]","1","3","","","","","999&age=9&gender=f&participant_ID=888","152","2","4","lose","no-go","0"
"pit-trial","231","1918020","0.0-158.0","battery-v0.2","","","-1","","","v","elianto","#3366ff99","-1","-1","1","+10","[]","0","3","","","","","999&age=9&gender=f&participant_ID=888","153","0","2","win","no-go","0"
"pit-trial","232","1921558","0.0-159.0","battery-v0.2","","","679","","","j","elianto","#f73b6a7A"," "," ","1","0","[1534]","1","3","","","","","999&age=9&gender=f&participant_ID=888","154","1","3","lose","go","0"
"pit-trial","233","1924905","0.0-160.0","battery-v0.2","","","484","","","k","elianto","#3366ff99"," "," ","1","0","[1338]","1","3","","","","","999&age=9&gender=f&participant_ID=888","155","3","1","win","go","1"
"pit-trial","234","1929211","0.0-161.0","battery-v0.2","","","1444","","","d","elianto","#f73b6a7A","-1"," ","0","0","[2298]","1","3","","","","","999&age=9&gender=f&participant_ID=888","156","2","4","lose","no-go","1"
"pit-trial","235","1933038","0.0-162.0","battery-v0.2","","","966","","","d","elianto","#f73b6a7A","-1"," ","0","-10","[1819]","1","3","","","","","999&age=9&gender=f&participant_ID=888","157","2","4","lose","no-go","0"
"pit-trial","236","1937434","0.0-163.0","battery-v0.2","","","1531","","","j","elianto","#f73b6a7A"," "," ","1","0","[2387]","1","3","","","","","999&age=9&gender=f&participant_ID=888","158","1","3","lose","go","0"
"pit-trial","237","1942297","0.0-164.0","battery-v0.2","","","-1","","","v","elianto","#3366ff99","-1","-1","1","+10","[]","0","3","","","","","999&age=9&gender=f&participant_ID=888","159","0","2","win","no-go","0"
"pit-trial","238","1946049","0.0-165.0","battery-v0.2","","","890","","","k","elianto","#3366ff99"," "," ","1","+10","[1744]","1","3","","","","","999&age=9&gender=f&participant_ID=888","160","3","1","win","go","0"
"pit-trial","239","1950913","0.0-166.0","battery-v0.2","","","-1","","","v","elianto","#3366ff99","-1","-1","1","0","[]","0","3","","","","","999&age=9&gender=f&participant_ID=888","161","0","2","win","no-go","1"
"pit-trial","240","1955655","0.0-167.0","battery-v0.2","","","1881","","","d","elianto","#f73b6a7A","-1"," ","0","-10","[2733]","1","3","","","","","999&age=9&gender=f&participant_ID=888","162","2","4","lose","no-go","0"
"pit-trial","241","1958900","0.0-168.0","battery-v0.2","","","381","","","k","elianto","#3366ff99"," "," ","1","+10","[1237]","1","3","","","","","999&age=9&gender=f&participant_ID=888","163","3","1","win","go","0"
"pit-trial","242","1962828","0.0-169.0","battery-v0.2","","","1063","","","j","elianto","#f73b6a7A"," "," ","1","-10","[1918]","1","3","","","","","999&age=9&gender=f&participant_ID=888","164","1","3","lose","go","1"
"pit-trial","243","1966844","0.0-170.0","battery-v0.2","","","1152","","","j","elianto","#f73b6a7A"," "," ","1","0","[2007]","1","3","","","","","999&age=9&gender=f&participant_ID=888","165","1","3","lose","go","0"
"pit-trial","244","1971013","0.0-171.0","battery-v0.2","","","1312","","","k","elianto","#3366ff99"," "," ","1","+10","[2164]","1","3","","","","","999&age=9&gender=f&participant_ID=888","166","3","1","win","go","0"
"pit-trial","245","1975370","0.0-172.0","battery-v0.2","","","1494","","","d","elianto","#f73b6a7A","-1"," ","0","0","[2349]","1","3","","","","","999&age=9&gender=f&participant_ID=888","167","2","4","lose","no-go","1"
"pit-trial","246","1979440","0.0-173.0","battery-v0.2","","","1208","","","v","elianto","#3366ff99","-1"," ","0","0","[2061]","1","3","","","","","999&age=9&gender=f&participant_ID=888","168","0","2","win","no-go","0"
"pit-trial","247","1983031","0.0-174.0","battery-v0.2","","","727","","","v","elianto","#3366ff99","-1"," ","0","0","[1582]","1","3","","","","","999&age=9&gender=f&participant_ID=888","169","0","2","win","no-go","0"
"pit-trial","248","1987074","0.0-175.0","battery-v0.2","","","1182","","","j","elianto","#f73b6a7A"," "," ","1","-10","[2036]","1","3","","","","","999&age=9&gender=f&participant_ID=888","170","1","3","lose","go","1"
"pit-trial","249","1991938","0.0-176.0","battery-v0.2","","","-1","","","d","elianto","#f73b6a7A","-1","-1","1","0","[3551]","1","3","","","","","999&age=9&gender=f&participant_ID=888","171","2","4","lose","no-go","0"
"pit-trial","250","1995743","0.0-177.0","battery-v0.2","","","940","","","k","elianto","#3366ff99"," "," ","1","+10","[1795]","1","3","","","","","999&age=9&gender=f&participant_ID=888","172","3","1","win","go","0"
"pit-trial","251","1999476","0.0-178.0","battery-v0.2","","","868","","","d","elianto","#f73b6a7A","-1"," ","0","-10","[1724]","1","3","","","","","999&age=9&gender=f&participant_ID=888","173","2","4","lose","no-go","0"
"pit-trial","252","2004338","0.0-179.0","battery-v0.2","","","-1","","","e","elianto","#f73b6a7A"," ","-1","0","-10","[]","0","3","","","","","999&age=9&gender=f&participant_ID=888","174","4","3","lose","go","0"
"pit-trial","253","2007974","0.0-180.0","battery-v0.2","","","774","","","j","elianto","#f73b6a7A"," "," ","1","0","[1629]","1","3","","","","","999&age=9&gender=f&participant_ID=888","175","1","3","lose","go","0"
"pit-trial","254","2011671","0.0-181.0","battery-v0.2","","","834","","","w","elianto","#f73b6a7A","-1"," ","0","0","[1689]","1","3","","","","","999&age=9&gender=f&participant_ID=888","176","5","4","lose","no-go","1"
"pit-trial","255","2015217","0.0-182.0","battery-v0.2","","","684","","","d","elianto","#f73b6a7A","-1"," ","0","-10","[1538]","1","3","","","","","999&age=9&gender=f&participant_ID=888","177","2","4","lose","no-go","0"
"pit-trial","256","2019507","0.0-183.0","battery-v0.2","","","1434","","","w","elianto","#f73b6a7A","-1"," ","0","-10","[2285]","1","3","","","","","999&age=9&gender=f&participant_ID=888","178","5","4","lose","no-go","0"
"pit-trial","257","2023507","0.0-184.0","battery-v0.2","","","1142","","","j","elianto","#f73b6a7A"," "," ","1","0","[1993]","1","3","","","","","999&age=9&gender=f&participant_ID=888","179","1","3","lose","go","0"
"pit-trial","258","2027548","0.0-185.0","battery-v0.2","","","1179","","","e","elianto","#f73b6a7A"," "," ","1","-10","[2033]","1","3","","","","","999&age=9&gender=f&participant_ID=888","180","4","3","lose","go","1"
"pit-trial","259","2032411","0.0-186.0","battery-v0.2","","","-1","","","w","elianto","#f73b6a7A","-1","-1","1","0","[]","0","3","","","","","999&age=9&gender=f&participant_ID=888","181","5","4","lose","no-go","0"
"pit-trial","260","2035672","0.0-187.0","battery-v0.2","","","396","","","e","elianto","#f73b6a7A"," "," ","1","0","[1251]","1","3","","","","","999&age=9&gender=f&participant_ID=888","182","4","3","lose","go","0"
"pit-trial","261","2039505","0.0-188.0","battery-v0.2","","","969","","","s","elianto","#3366ff99","-1"," ","0","+10","[1824]","1","3","","","","","999&age=9&gender=f&participant_ID=888","183","6","2","win","no-go","1"
"pit-trial","262","2044369","0.0-189.0","battery-v0.2","","","-1","","","d","elianto","#f73b6a7A","-1","-1","1","0","[]","0","3","","","","","999&age=9&gender=f&participant_ID=888","184","2","4","lose","no-go","0"
"pit-trial","263","2049233","0.0-190.0","battery-v0.2","","","-1","","","d","elianto","#f73b6a7A","-1","-1","1","0","[]","0","3","","","","","999&age=9&gender=f&participant_ID=888","185","2","4","lose","no-go","0"
"pit-trial","264","2053297","0.0-191.0","battery-v0.2","","","1206","","","e","elianto","#f73b6a7A"," "," ","1","-10","[2057]","1","3","","","","","999&age=9&gender=f&participant_ID=888","186","4","3","lose","go","1"
"pit-trial","265","2056913","0.0-192.0","battery-v0.2","","","753","","","s","elianto","#3366ff99","-1"," ","0","0","[1606]","1","3","","","","","999&age=9&gender=f&participant_ID=888","187","6","2","win","no-go","0"
"pit-trial","266","2060908","0.0-193.0","battery-v0.2","","","1136","","","w","elianto","#f73b6a7A","-1"," ","0","0","[1987]","1","3","","","","","999&age=9&gender=f&participant_ID=888","188","5","4","lose","no-go","1"
"pit-trial","267","2065771","0.0-194.0","battery-v0.2","","","-1","","","s","elianto","#3366ff99","-1","-1","1","+10","[]","0","3","","","","","999&age=9&gender=f&participant_ID=888","189","6","2","win","no-go","0"
"pit-trial","268","2070634","0.0-195.0","battery-v0.2","","","-1","","","e","elianto","#f73b6a7A"," ","-1","0","0","[]","0","3","","","","","999&age=9&gender=f&participant_ID=888","190","4","3","lose","go","1"
"pit-trial","269","2074597","0.0-196.0","battery-v0.2","","","1102","","","w","elianto","#f73b6a7A","-1"," ","0","-10","[1954]","1","3","","","","","999&age=9&gender=f&participant_ID=888","191","5","4","lose","no-go","0"
"pit-trial","270","2078805","0.0-197.0","battery-v0.2","","","1346","","","p","elianto","#3366ff99"," "," ","1","+10","[2201]","1","3","","","","","999&age=9&gender=f&participant_ID=888","192","7","1","win","go","0"
"pit-trial","271","2082393","0.0-198.0","battery-v0.2","","","730","","","p","elianto","#3366ff99"," "," ","1","+10","[1581]","1","3","","","","","999&age=9&gender=f&participant_ID=888","193","7","1","win","go","0"
"pit-trial","272","2087253","0.0-199.0","battery-v0.2","","","-1","","","s","elianto","#3366ff99","-1","-1","1","0","[]","0","3","","","","","999&age=9&gender=f&participant_ID=888","194","6","2","win","no-go","1"
"pit-trial","273","2090915","0.0-200.0","battery-v0.2","","","797","","","e","elianto","#f73b6a7A"," "," ","1","0","[1652]","1","3","","","","","999&age=9&gender=f&participant_ID=888","195","4","3","lose","go","0"
"pit-trial","274","2094286","0.0-201.0","battery-v0.2","","","511","","","w","elianto","#f73b6a7A","-1"," ","0","-10","[1366]","1","3","","","","","999&age=9&gender=f&participant_ID=888","196","5","4","lose","no-go","0"
"pit-trial","275","2097678","0.0-202.0","battery-v0.2","","","528","","","w","elianto","#f73b6a7A","-1"," ","0","-10","[1382]","1","3","","","","","999&age=9&gender=f&participant_ID=888","197","5","4","lose","no-go","0"
"pit-trial","276","2101427","0.0-203.0","battery-v0.2","","","884","","","e","elianto","#f73b6a7A"," "," ","1","0","[1739]","1","3","","","","","999&age=9&gender=f&participant_ID=888","198","4","3","lose","go","0"
"pit-trial","277","2105489","0.0-204.0","battery-v0.2","","","1200","","","p","elianto","#3366ff99"," "," ","1","+10","[2054]","1","3","","","","","999&age=9&gender=f&participant_ID=888","199","7","1","win","go","0"
"pit-trial","278","2109017","0.0-205.0","battery-v0.2","","","664","","","s","elianto","#3366ff99","-1"," ","0","0","[1519]","1","3","","","","","999&age=9&gender=f&participant_ID=888","200","6","2","win","no-go","0"
"pit-trial","279","2112390","0.0-206.0","battery-v0.2","","","511","","","s","elianto","#3366ff99","-1"," ","0","+10","[1366]","1","3","","","","","999&age=9&gender=f&participant_ID=888","201","6","2","win","no-go","1"
"pit-trial","280","2116077","0.0-207.0","battery-v0.2","","","824","","","e","elianto","#f73b6a7A"," "," ","1","0","[1679]","1","3","","","","","999&age=9&gender=f&participant_ID=888","202","4","3","lose","go","0"
"pit-trial","281","2119511","0.0-208.0","battery-v0.2","","","571","","","w","elianto","#f73b6a7A","-1"," ","0","0","[1425]","1","3","","","","","999&age=9&gender=f&participant_ID=888","203","5","4","lose","no-go","1"
"pit-trial","282","2122599","0.0-209.0","battery-v0.2","","","225","","","p","elianto","#3366ff99"," "," ","1","+10","[1079]","1","3","","","","","999&age=9&gender=f&participant_ID=888","204","7","1","win","go","0"
"pit-trial","283","2126504","0.0-210.0","battery-v0.2","","","1049","","","e","elianto","#f73b6a7A"," "," ","1","0","[1899]","1","3","","","","","999&age=9&gender=f&participant_ID=888","205","4","3","lose","go","0"
"pit-trial","284","2130502","0.0-211.0","battery-v0.2","","","1136","","","p","elianto","#3366ff99"," "," ","1","+10","[1989]","1","3","","","","","999&age=9&gender=f&participant_ID=888","206","7","1","win","go","0"
"pit-trial","285","2134648","0.0-212.0","battery-v0.2","","","1283","","","w","elianto","#f73b6a7A","-1"," ","0","-10","[2139]","1","3","","","","","999&age=9&gender=f&participant_ID=888","207","5","4","lose","no-go","0"
"pit-trial","286","2139002","0.0-213.0","battery-v0.2","","","1494","","","s","elianto","#3366ff99","-1"," ","0","+10","[2348]","1","3","","","","","999&age=9&gender=f&participant_ID=888","208","6","2","win","no-go","1"
"pit-trial","287","2143865","0.0-214.0","battery-v0.2","","","-1","","","w","elianto","#f73b6a7A","-1","-1","1","0","[3694]","1","3","","","","","999&age=9&gender=f&participant_ID=888","209","5","4","lose","no-go","0"
"pit-trial","288","2147339","0.0-215.0","battery-v0.2","","","608","","","s","elianto","#3366ff99","-1"," ","0","0","[830,1463]","2","3","","","","","999&age=9&gender=f&participant_ID=888","210","6","2","win","no-go","0"
"pit-trial","289","2150633","0.0-216.0","battery-v0.2","","","430","","","p","elianto","#3366ff99"," "," ","1","+10","[1285]","1","3","","","","","999&age=9&gender=f&participant_ID=888","211","7","1","win","go","0"
"pit-trial","290","2155114","0.0-217.0","battery-v0.2","","","1618","","","e","elianto","#f73b6a7A"," "," ","1","-10","[2472]","1","3","","","","","999&age=9&gender=f&participant_ID=888","212","4","3","lose","go","1"
"pit-trial","291","2158173","0.0-218.0","battery-v0.2","","","197","","","p","elianto","#3366ff99"," "," ","1","0","[1050]","1","3","","","","","999&age=9&gender=f&participant_ID=888","213","7","1","win","go","1"
"pit-trial","292","2162845","0.0-219.0","battery-v0.2","","","1811","","","s","elianto","#3366ff99","-1"," ","0","+10","[2666]","1","3","","","","","999&age=9&gender=f&participant_ID=888","214","6","2","win","no-go","1"
"pit-trial","293","2165870","0.0-220.0","battery-v0.2","","","166","","","g","elianto","#3366ff99"," "," ","1","+10","[1017]","1","3","","","","","999&age=9&gender=f&participant_ID=888","215","8","1","win","go","0"
"pit-trial","294","2168975","0.0-221.0","battery-v0.2","","","243","","","e","elianto","#f73b6a7A"," "," ","1","-10","[1098]","1","3","","","","","999&age=9&gender=f&participant_ID=888","216","4","3","lose","go","1"
"pit-trial","295","2172876","0.0-222.0","battery-v0.2","","","1037","","","s","elianto","#3366ff99","-1"," ","0","0","[1892]","1","3","","","","","999&age=9&gender=f&participant_ID=888","217","6","2","win","no-go","0"
"pit-trial","296","2177740","0.0-223.0","battery-v0.2","","","-1","","","p","elianto","#3366ff99"," ","-1","0","0","[3041]","1","3","","","","","999&age=9&gender=f&participant_ID=888","218","7","1","win","go","0"
"pit-trial","297","2182396","0.0-224.0","battery-v0.2","","","1793","","","e","elianto","#f73b6a7A"," "," ","1","-10","[2648]","1","3","","","","","999&age=9&gender=f&participant_ID=888","219","4","3","lose","go","1"
"pit-trial","298","2186247","0.0-225.0","battery-v0.2","","","991","","","g","elianto","#3366ff99"," "," ","1","+10","[1846]","1","3","","","","","999&age=9&gender=f&participant_ID=888","220","8","1","win","go","0"
"pit-trial","299","2191110","0.0-226.0","battery-v0.2","","","-1","","","a","elianto","#3366ff99","-1","-1","1","+10","[]","0","3","","","","","999&age=9&gender=f&participant_ID=888","221","9","2","win","no-go","0"
"pit-trial","300","2194692","0.0-227.0","battery-v0.2","","","717","","","p","elianto","#3366ff99"," "," ","1","+10","[1572]","1","3","","","","","999&age=9&gender=f&participant_ID=888","222","7","1","win","go","0"
"pit-trial","301","2199549","0.0-228.0","battery-v0.2","","","-1","","","g","elianto","#3366ff99"," ","-1","0","0","[]","0","3","","","","","999&age=9&gender=f&participant_ID=888","223","8","1","win","go","0"
"pit-trial","302","2202864","0.0-229.0","battery-v0.2","","","453","","","s","elianto","#3366ff99","-1"," ","0","0","[1308]","1","3","","","","","999&age=9&gender=f&participant_ID=888","224","6","2","win","no-go","0"
"pit-trial","303","2207528","0.0-230.0","battery-v0.2","","","1806","","","g","elianto","#3366ff99"," "," ","1","0","[2658]","1","3","","","","","999&age=9&gender=f&participant_ID=888","225","8","1","win","go","1"
"pit-trial","304","2212391","0.0-231.0","battery-v0.2","","","-1","","","a","elianto","#3366ff99","-1","-1","1","+10","[]","0","3","","","","","999&age=9&gender=f&participant_ID=888","226","9","2","win","no-go","0"
"pit-trial","305","2215734","0.0-232.0","battery-v0.2","","","479","","","p","elianto","#3366ff99"," "," ","1","+10","[1334]","1","3","","","","","999&age=9&gender=f&participant_ID=888","227","7","1","win","go","0"
"pit-trial","306","2218952","0.0-233.0","battery-v0.2","","","354","","","s","elianto","#3366ff99","-1"," ","0","+10","[1209]","1","3","","","","","999&age=9&gender=f&participant_ID=888","228","6","2","win","no-go","1"
"pit-trial","307","2223811","0.0-234.0","battery-v0.2","","","-1","","","l","elianto","#f73b6a7A"," ","-1","0","-10","[3980]","1","3","","","","","999&age=9&gender=f&participant_ID=888","229","10","3","lose","go","0"
"pit-trial","308","2228420","0.0-235.0","battery-v0.2","","","1746","","","a","elianto","#3366ff99","-1"," ","0","0","[2600]","1","3","","","","","999&age=9&gender=f&participant_ID=888","230","9","2","win","no-go","0"
"pit-trial","309","2232307","0.0-236.0","battery-v0.2","","","1023","","","u","elianto","#f73b6a7A","-1"," ","0","-10","[1877]","1","3","","","","","999&age=9&gender=f&participant_ID=888","231","11","4","lose","no-go","0"
"pit-trial","310","2237170","0.0-237.0","battery-v0.2","","","-1","","","g","elianto","#3366ff99"," ","-1","0","0","[3585]","1","3","","","","","999&age=9&gender=f&participant_ID=888","232","8","1","win","go","0"
"pit-trial","311","2242030","0.0-238.0","battery-v0.2","","","-1","","","u","elianto","#f73b6a7A","-1","-1","1","-10","[3923]","1","3","","","","","999&age=9&gender=f&participant_ID=888","233","11","4","lose","no-go","1"
"pit-trial","312","2245394","0.0-239.0","battery-v0.2","","","502","","","g","elianto","#3366ff99"," "," ","1","0","[1354]","1","3","","","","","999&age=9&gender=f&participant_ID=888","234","8","1","win","go","1"
"pit-trial","313","2250258","0.0-240.0","battery-v0.2","","","-1","","","l","elianto","#f73b6a7A"," ","-1","0","-10","[3526]","1","3","","","","","999&age=9&gender=f&participant_ID=888","235","10","3","lose","go","0"
"pit-trial","314","2255122","0.0-241.0","battery-v0.2","","","-1","","","a","elianto","#3366ff99","-1","-1","1","+10","[]","0","3","","","","","999&age=9&gender=f&participant_ID=888","236","9","2","win","no-go","0"
"pit-trial","315","2257989","0.0-242.0","battery-v0.2","","","2","","","u","elianto","#f73b6a7A","-1"," ","0","0","[857,1186]","2","3","","","","","999&age=9&gender=f&participant_ID=888","237","11","4","lose","no-go","1"
"pit-trial","316","2262849","0.0-243.0","battery-v0.2","","","-1","","","a","elianto","#3366ff99","-1","-1","1","0","[]","0","3","","","","","999&age=9&gender=f&participant_ID=888","238","9","2","win","no-go","1"
"pit-trial","317","2267034","0.0-244.0","battery-v0.2","","","1320","","","l","elianto","#f73b6a7A"," "," ","1","0","[484,2175]","2","3","","","","","999&age=9&gender=f&participant_ID=888","239","10","3","lose","go","0"
"pit-trial","318","2270144","0.0-245.0","battery-v0.2","","","251","","","g","elianto","#3366ff99"," "," ","1","+10","[1106,1945]","2","3","","","","","999&age=9&gender=f&participant_ID=888","240","8","1","win","go","0"
"pit-trial","319","2275009","0.0-246.0","battery-v0.2","","","-1","","","g","elianto","#3366ff99"," ","-1","0","0","[]","0","3","","","","","999&age=9&gender=f&participant_ID=888","241","8","1","win","go","0"
"pit-trial","320","2279868","0.0-247.0","battery-v0.2","","","-1","","","a","elianto","#3366ff99","-1","-1","1","+10","[3492]","1","3","","","","","999&age=9&gender=f&participant_ID=888","242","9","2","win","no-go","0"
"pit-trial","321","2284733","0.0-248.0","battery-v0.2","","","-1","","","u","elianto","#f73b6a7A","-1","-1","1","0","[]","0","3","","","","","999&age=9&gender=f&participant_ID=888","243","11","4","lose","no-go","0"
"pit-trial","322","2288694","0.0-249.0","battery-v0.2","","","1102","","","l","elianto","#f73b6a7A"," "," ","1","0","[1953]","1","3","","","","","999&age=9&gender=f&participant_ID=888","244","10","3","lose","go","0"
"pit-trial","323","2293559","0.0-250.0","battery-v0.2","","","-1","","","g","elianto","#3366ff99"," ","-1","0","0","[3973]","1","3","","","","","999&age=9&gender=f&participant_ID=888","245","8","1","win","go","0"
"pit-trial","324","2298422","0.0-251.0","battery-v0.2","","","-1","","","a","elianto","#3366ff99","-1","-1","1","+10","[2898]","1","3","","","","","999&age=9&gender=f&participant_ID=888","246","9","2","win","no-go","0"
"pit-trial","325","2301681","0.0-252.0","battery-v0.2","","","395","","","u","elianto","#f73b6a7A","-1"," ","0","-10","[1250]","1","3","","","","","999&age=9&gender=f&participant_ID=888","247","11","4","lose","no-go","0"
"pit-trial","326","2305358","0.0-253.0","battery-v0.2","","","814","","","l","elianto","#f73b6a7A"," "," ","1","-10","[1670]","1","3","","","","","999&age=9&gender=f&participant_ID=888","248","10","3","lose","go","1"
"pit-trial","327","2310222","0.0-254.0","battery-v0.2","","","-1","","","u","elianto","#f73b6a7A","-1","-1","1","0","[]","0","3","","","","","999&age=9&gender=f&participant_ID=888","249","11","4","lose","no-go","0"
"pit-trial","328","2315084","0.0-255.0","battery-v0.2","","","-1","","","l","elianto","#f73b6a7A"," ","-1","0","-10","[]","0","3","","","","","999&age=9&gender=f&participant_ID=888","250","10","3","lose","go","0"
"pit-trial","329","2318480","0.0-256.0","battery-v0.2","","","531","","","a","elianto","#3366ff99","-1"," ","0","0","[1386]","1","3","","","","","999&age=9&gender=f&participant_ID=888","251","9","2","win","no-go","0"
"pit-trial","330","2322532","0.0-257.0","battery-v0.2","","","1188","","","g","elianto","#3366ff99"," "," ","1","0","[2043]","1","3","","","","","999&age=9&gender=f&participant_ID=888","252","8","1","win","go","1"
"pit-trial","331","2326908","0.0-258.0","battery-v0.2","","","1515","","","l","elianto","#f73b6a7A"," "," ","1","0","[2367]","1","3","","","","","999&age=9&gender=f&participant_ID=888","253","10","3","lose","go","0"
"pit-trial","332","2330321","0.0-259.0","battery-v0.2","","","554","","","g","elianto","#3366ff99"," "," ","1","0","[1409]","1","3","","","","","999&age=9&gender=f&participant_ID=888","254","8","1","win","go","1"
"pit-trial","333","2334496","0.0-260.0","battery-v0.2","","","1318","","","u","elianto","#f73b6a7A","-1"," ","0","-10","[2168]","1","3","","","","","999&age=9&gender=f&participant_ID=888","255","11","4","lose","no-go","0"
"pit-trial","334","2337869","0.0-261.0","battery-v0.2","","","512","","","a","elianto","#3366ff99","-1"," ","0","0","[832,1367]","2","3","","","","","999&age=9&gender=f&participant_ID=888","256","9","2","win","no-go","0"
"pit-trial","335","2340995","0.0-262.0","battery-v0.2","","","263","","","u","elianto","#f73b6a7A","-1"," ","0","-10","[1118]","1","3","","","","","999&age=9&gender=f&participant_ID=888","257","11","4","lose","no-go","0"
"pit-trial","336","2345857","0.0-263.0","battery-v0.2","","","-1","","","a","elianto","#3366ff99","-1","-1","1","+10","[]","0","3","","","","","999&age=9&gender=f&participant_ID=888","258","9","2","win","no-go","0"
"pit-trial","337","2349139","0.0-264.0","battery-v0.2","","","418","","","l","elianto","#f73b6a7A"," "," ","1","0","[1273]","1","3","","","","","999&age=9&gender=f&participant_ID=888","259","10","3","lose","go","0"
"pit-trial","338","2353542","0.0-265.0","battery-v0.2","","","1540","","","g","elianto","#3366ff99"," "," ","1","+10","[2395]","1","3","","","","","999&age=9&gender=f&participant_ID=888","260","8","1","win","go","0"
"pit-instructions","339","2365451","0.0-266.0","battery-v0.2","","[{""page_index"":0,""viewing_time"":11905}]","11905","","","","","","","","","","","","","","","","","","","","","","",""
