"trial_type","trial_index","time_elapsed","internal_node_id","task_version","view_history","rt","rune","rune_set","hex","correct","choice","accuracy","outcome","keys","total_keys","block","practice","value","responses","num_errors","sub","trial","stimulus","robot","valence","action","sham"
"pavlovia","0","37","0.0-0.0","battery-v0.2","","","","","","","","","","","","","","","","","","","","","","",""
"pit-instructions","1","76063","0.0-1.0-0.0","battery-v0.2","[{""page_index"":0,""viewing_time"":3460.689999978058},{""page_index"":1,""viewing_time"":5583.740000030957},{""page_index"":2,""viewing_time"":8695.91499993112},{""page_index"":3,""viewing_time"":6311.9100000476465},{""page_index"":4,""viewing_time"":7632.095000008121},{""page_index"":5,""viewing_time"":5567.990000010468},{""page_index"":6,""viewing_time"":5175.889999954961},{""page_index"":7,""viewing_time"":11576.155000017025},{""page_index"":8,""viewing_time"":9248.35999996867},{""page_index"":9,""viewing_time"":2488.0999999586493},{""page_index"":8,""viewing_time"":5247.84000008367},{""page_index"":9,""viewing_time"":5032.049999921583}]","76021.81999990717","","","","","","","","","","","","","","","","","","","","",""
"pit-trial","2","80085","0.0-1.0-1.0-0.0","battery-v0.2","","-1","1","elianto","#3366ff99","32","-1","0","+1","","0","0","1","","","","","","","","","",""
"pit-trial","3","83410","0.0-1.0-1.1-0.1","battery-v0.2","","603.4199999412522","1","elianto","#3366ff99","32","32","1","+10","2104.330000001937","1","0","1","","","","","","","","","",""
"pit-trial","4","86600","0.0-1.0-1.2-0.2","battery-v0.2","","482.99000004772097","1","elianto","#3366ff99","32","32","1","+10","1983.420000062324,2882.255000062287","2","0","1","","","","","","","","","",""
"pit-trial","5","89952","0.0-1.0-1.3-0.3","battery-v0.2","","635.8950000721961","1","elianto","#3366ff99","32","32","1","+10","2135.9449999872595","1","0","1","","","","","","","","","",""
"call-function","6","89958","0.0-1.0-2.0","battery-v0.2","","","","","","","","","","","","","","","","","","","","","","",""
"pit-instructions","7","97462","0.0-1.0-3.0","battery-v0.2","[{""page_index"":0,""viewing_time"":5829.8300000606105},{""page_index"":1,""viewing_time"":1672.1299999626353}]","7502.34000000637","","","","","","","","","","","","","","","","","","","","",""
"pit-trial","8","100959","0.0-1.0-4.0-0.0","battery-v0.2","","778.0199999688193","2","elianto","#3366ff99","-1","32","0","+1","2278.829999966547","1","0","2","","","","","","","","","",""
"pit-trial","9","104980","0.0-1.0-4.1-0.1","battery-v0.2","","-1","2","elianto","#3366ff99","-1","-1","1","+10","","0","0","2","","","","","","","","","",""
"pit-trial","10","108993","0.0-1.0-4.2-0.2","battery-v0.2","","-1","2","elianto","#3366ff99","-1","-1","1","+10","","0","0","2","","","","","","","","","",""
"pit-trial","11","113006","0.0-1.0-4.3-0.3","battery-v0.2","","-1","2","elianto","#3366ff99","-1","-1","1","+10","","0","0","2","","","","","","","","","",""
"call-function","12","113008","0.0-1.0-5.0","battery-v0.2","","","","","","","","","","","","","","","","","","","","","","",""
"pit-instructions","13","148414","0.0-1.0-6.0","battery-v0.2","[{""page_index"":0,""viewing_time"":32403.92999991309},{""page_index"":1,""viewing_time"":3000.0749999890104}]","35404.47499998845","","","","","","","","","","","","","","","","","","","","",""
"pit-trial","14","151551","0.0-1.0-7.0-0.0","battery-v0.2","","417.6399999996647","3","elianto","#f73b6a7A","-1","32","0","-10","1918.6900000786409","1","0","3","","","","","","","","","",""
"pit-trial","15","155581","0.0-1.0-7.1-0.1","battery-v0.2","","-1","3","elianto","#f73b6a7A","-1","-1","1","-1","","0","0","3","","","","","","","","","",""
"pit-trial","16","159588","0.0-1.0-7.2-0.2","battery-v0.2","","-1","3","elianto","#f73b6a7A","-1","-1","1","-1","","0","0","3","","","","","","","","","",""
"pit-trial","17","163598","0.0-1.0-7.3-0.3","battery-v0.2","","-1","3","elianto","#f73b6a7A","-1","-1","1","-1","","0","0","3","","","","","","","","","",""
"call-function","18","163601","0.0-1.0-8.0","battery-v0.2","","","","","","","","","","","","","","","","","","","","","","",""
"pit-instructions","19","179558","0.0-1.0-9.0","battery-v0.2","[{""page_index"":0,""viewing_time"":12772.035000030883},{""page_index"":1,""viewing_time"":3184.000000008382}]","15956.510000047274","","","","","","","","","","","","","","","","","","","","",""
"pit-trial","20","182451","0.0-1.0-10.0-0.0","battery-v0.2","","180.78500009141862","4","elianto","#f73b6a7A","32","32","1","-1","1680.7750000152737","1","0","4","","","","","","","","","",""
"pit-trial","21","185367","0.0-1.0-10.1-0.1","battery-v0.2","","206.46000001579523","4","elianto","#f73b6a7A","32","32","1","-1","1708.7049999972805","1","0","4","","","","","","","","","",""
"pit-trial","22","188193","0.0-1.0-10.2-0.2","battery-v0.2","","114.449999993667","4","elianto","#f73b6a7A","32","32","1","-1","1614.729999913834","1","0","4","","","","","","","","","",""
"pit-trial","23","191169","0.0-1.0-10.3-0.3","battery-v0.2","","265.65499999560416","4","elianto","#f73b6a7A","32","32","1","-1","1765.955000068061","1","0","4","","","","","","","","","",""
"call-function","24","191172","0.0-1.0-11.0","battery-v0.2","","","","","","","","","","","","","","","","","","","","","","",""
"pit-instructions","25","206237","0.0-1.0-12.0","battery-v0.2","[{""page_index"":0,""viewing_time"":8672.03499993775},{""page_index"":1,""viewing_time"":856.5050000324845},{""page_index"":2,""viewing_time"":1183.4599999710917},{""page_index"":3,""viewing_time"":1240.1049999753013},{""page_index"":4,""viewing_time"":1711.9449999881908},{""page_index"":5,""viewing_time"":1400.0600000144914}]","15064.579999889247","","","","","","","","","","","","","","","","","","","","",""
"pit-comprehension","26","236014","0.0-1.0-13.0","battery-v0.2","","29773.929999908432","","","","","","","","","","","","","Press SPACE,+10,-1,True,True","0","","","","","","",""
"pit-instructions","27","243053","0.0-2.0","battery-v0.2","[{""page_index"":0,""viewing_time"":2091.3650000002235},{""page_index"":1,""viewing_time"":4944.129999959841}]","7035.960000008345","","","","","","","","","","","","","","","","","","","","",""
"pit-trial","28","246513","0.0-3.0","battery-v0.2","","740.5450000660494","U","elianto","#3366ff99","-1","32","0","+10","2241.1250000586733","1","1","","","","","804","1","0","2","win","no-go","1"
"pit-trial","29","250534","0.0-4.0","battery-v0.2","","-1","L","elianto","#3366ff99","-1","-1","1","+10","","0","1","","","","","804","2","1","2","win","no-go","0"
"pit-trial","30","254051","0.0-5.0","battery-v0.2","","807.3899999726564","A","elianto","#3366ff99","32","32","1","+10","2309.6000000368804","1","1","","","","","804","3","2","1","win","go","0"
"pit-trial","31","257457","0.0-6.0","battery-v0.2","","696.2799999164417","G","elianto","#f73b6a7A","32","32","1","-1","2196.490000002086","1","1","","","","","804","4","3","3","lose","go","0"
"pit-trial","32","260718","0.0-7.0","battery-v0.2","","550.8100000442937","G","elianto","#f73b6a7A","32","32","1","-1","2051.240000058897","1","1","","","","","804","5","3","3","lose","go","0"
"pit-trial","33","264115","0.0-8.0","battery-v0.2","","676.6100000822917","A","elianto","#3366ff99","32","32","1","+1","2177.754999953322","1","1","","","","","804","6","2","1","win","go","1"
"pit-trial","34","267320","0.0-9.0","battery-v0.2","","497.4899999797344","L","elianto","#3366ff99","-1","32","0","+10","1998.299999977462","1","1","","","","","804","7","1","2","win","no-go","1"
"pit-trial","35","270548","0.0-10.0","battery-v0.2","","509.65999998152256","U","elianto","#3366ff99","-1","32","0","+1","2011.4649999886751","1","1","","","","","804","8","0","2","win","no-go","0"
"pit-trial","36","274573","0.0-11.0","battery-v0.2","","-1","U","elianto","#3366ff99","-1","-1","1","+10","","0","1","","","","","804","9","0","2","win","no-go","0"
"pit-trial","37","277917","0.0-12.0","battery-v0.2","","626.8299999646842","G","elianto","#f73b6a7A","32","32","1","-1","2127.4299999931827","1","1","","","","","804","10","3","3","lose","go","0"
"pit-trial","38","281573","0.0-13.0","battery-v0.2","","945.3499999362975","L","elianto","#3366ff99","-1","32","0","+1","2447.554999962449","1","1","","","","","804","11","1","2","win","no-go","0"
"pit-trial","39","284658","0.0-14.0","battery-v0.2","","377.9249999206513","A","elianto","#3366ff99","32","32","1","+10","1878.000000026077","1","1","","","","","804","12","2","1","win","go","0"
"pit-trial","40","288677","0.0-15.0","battery-v0.2","","-1","L","elianto","#3366ff99","-1","-1","1","+10","","0","1","","","","","804","13","1","2","win","no-go","0"
"pit-trial","41","292113","0.0-16.0","battery-v0.2","","726.0499999392778","G","elianto","#f73b6a7A","32","32","1","-1","2226.1550000403076,2599.2450000485405","2","1","","","","","804","14","3","3","lose","go","0"
"pit-trial","42","296067","0.0-17.0","battery-v0.2","","1235.4499999200925","U","elianto","#3366ff99","-1","32","0","+10","2736.5149999968708","1","1","","","","","804","15","0","2","win","no-go","1"
"pit-trial","43","299532","0.0-18.0","battery-v0.2","","746.4900000486523","A","elianto","#3366ff99","32","32","1","+10","2248.55999997817,3334.069999982603","2","1","","","","","804","16","2","1","win","go","0"
"pit-trial","44","302821","0.0-19.0","battery-v0.2","","576.2649999232963","U","elianto","#3366ff99","-1","32","0","+1","2077.0550000015646","1","1","","","","","804","17","0","2","win","no-go","0"
"pit-trial","45","306130","0.0-20.0","battery-v0.2","","588.4599999990314","A","elianto","#3366ff99","32","32","1","+10","2088.5850000195205","1","1","","","","","804","18","2","1","win","go","0"
"pit-trial","46","309636","0.0-21.0","battery-v0.2","","797.6100000087172","G","elianto","#f73b6a7A","32","32","1","-1","2299.005000037141","1","1","","","","","804","19","3","3","lose","go","0"
"pit-trial","47","313513","0.0-22.0","battery-v0.2","","1158.4000000730157","L","elianto","#3366ff99","-1","32","0","+1","2659.449999919161","1","1","","","","","804","20","1","2","win","no-go","0"
"pit-trial","48","317533","0.0-23.0","battery-v0.2","","-1","U","elianto","#3366ff99","-1","-1","1","+10","","0","1","","","","","804","21","0","2","win","no-go","0"
"pit-trial","49","321567","0.0-24.0","battery-v0.2","","-1","L","elianto","#3366ff99","-1","-1","1","+10","","0","1","","","","","804","22","1","2","win","no-go","0"
"pit-trial","50","324800","0.0-25.0","battery-v0.2","","520.3200000105426","A","elianto","#3366ff99","32","32","1","+10","2021.2049999972805","1","1","","","","","804","23","2","1","win","go","0"
"pit-trial","51","327740","0.0-26.0","battery-v0.2","","232.83999995328486","G","elianto","#f73b6a7A","32","32","1","-1","1733.3999999100342","1","1","","","","","804","24","3","3","lose","go","0"
"pit-trial","52","331013","0.0-27.0","battery-v0.2","","556.455000070855","G","elianto","#f73b6a7A","32","32","1","-10","2056.845000013709,2790.184999932535","2","1","","","","","804","25","3","3","lose","go","1"
"pit-trial","53","335029","0.0-28.0","battery-v0.2","","-1","L","elianto","#3366ff99","-1","-1","1","+10","","0","1","","","","","804","26","1","2","win","no-go","0"
"pit-trial","54","338351","0.0-29.0","battery-v0.2","","609.2149999458343","A","elianto","#3366ff99","32","32","1","+10","2109.5350000541657,2649.6099999640137","2","1","","","","","804","27","2","1","win","go","0"
"pit-trial","55","342374","0.0-30.0","battery-v0.2","","-1","U","elianto","#3366ff99","-1","-1","1","+10","3339.6499999798834","1","1","","","","","804","28","0","2","win","no-go","0"
"pit-trial","56","345721","0.0-31.0","battery-v0.2","","632.1000000461936","G","elianto","#f73b6a7A","32","32","1","-1","2132.5650000944734","1","1","","","","","804","29","3","3","lose","go","0"
"pit-trial","57","349750","0.0-32.0","battery-v0.2","","-1","L","elianto","#3366ff99","-1","-1","1","+10","","0","1","","","","","804","30","1","2","win","no-go","0"
"pit-trial","58","352997","0.0-33.0","battery-v0.2","","528.3999999519438","A","elianto","#3366ff99","32","32","1","+10","2029.2800000170246","1","1","","","","","804","31","2","1","win","go","0"
"pit-trial","59","356599","0.0-34.0","battery-v0.2","","895.2950000530109","U","elianto","#3366ff99","-1","32","0","+10","2395.4600000288337,2642.2800000291318","2","1","","","","","804","32","0","2","win","no-go","1"
"pit-trial","60","360615","0.0-35.0","battery-v0.2","","-1","P","elianto","#f73b6a7A","-1","-1","1","-10","2942.2499999636784","1","1","","","","","804","33","4","4","lose","no-go","1"
"pit-trial","61","363842","0.0-36.0","battery-v0.2","","521.2400000309572","A","elianto","#3366ff99","32","32","1","+10","2021.720000077039","1","1","","","","","804","34","2","1","win","go","0"
"pit-trial","62","367439","0.0-37.0","battery-v0.2","","878.2499999506399","U","elianto","#3366ff99","-1","32","0","+1","2379.0049999952316","1","1","","","","","804","35","0","2","win","no-go","0"
"pit-trial","63","371061","0.0-38.0","battery-v0.2","","910.1550000486895","S","elianto","#f73b6a7A","32","32","1","-1","2411.074999952689","1","1","","","","","804","36","5","3","lose","go","0"
"pit-trial","64","375070","0.0-39.0","battery-v0.2","","-1","P","elianto","#f73b6a7A","-1","-1","1","-1","","0","1","","","","","804","37","4","4","lose","no-go","0"
"pit-trial","65","378201","0.0-40.0","battery-v0.2","","418.4900000691414","A","elianto","#3366ff99","32","32","1","+10","1918.5550000984222","1","1","","","","","804","38","2","1","win","go","0"
"pit-trial","66","381623","0.0-41.0","battery-v0.2","","699.7400000691414","U","elianto","#3366ff99","-1","32","0","+1","2201.67500001844","1","1","","","","","804","39","0","2","win","no-go","0"
"pit-trial","67","385645","0.0-42.0","battery-v0.2","","-1","S","elianto","#f73b6a7A","32","-1","0","-10","","0","1","","","","","804","40","5","3","lose","go","0"
"pit-trial","68","388947","0.0-43.0","battery-v0.2","","594.8400000343099","S","elianto","#f73b6a7A","32","32","1","-1","2095.7499999785796","1","1","","","","","804","41","5","3","lose","go","0"
"pit-trial","69","392345","0.0-44.0","battery-v0.2","","693.5550000052899","P","elianto","#f73b6a7A","-1","32","0","-10","2194.0099999774247,2489.574999897741","2","1","","","","","804","42","4","4","lose","no-go","0"
"pit-trial","70","395072","0.0-45.0","battery-v0.2","","14.170000096783042","W","elianto","#3366ff99","-1","32","0","+1","1514.934999984689","1","1","","","","","804","43","6","2","win","no-go","0"
"pit-trial","71","398222","0.0-46.0","battery-v0.2","","444.16999991517514","A","elianto","#3366ff99","32","32","1","+10","1945.5949999392033","1","1","","","","","804","44","2","1","win","go","0"
"pit-trial","72","402236","0.0-47.0","battery-v0.2","","-1","W","elianto","#3366ff99","-1","-1","1","+1","","0","1","","","","","804","45","6","2","win","no-go","1"
"pit-trial","73","406259","0.0-48.0","battery-v0.2","","-1","P","elianto","#f73b6a7A","-1","-1","1","-1","601.1949999956414","1","1","","","","","804","46","4","4","lose","no-go","0"
"pit-trial","74","409449","0.0-49.0","battery-v0.2","","476.325000054203","A","elianto","#3366ff99","32","32","1","+1","1977.294999989681","1","1","","","","","804","47","2","1","win","go","1"
"pit-trial","75","413475","0.0-50.0","battery-v0.2","","-1","S","elianto","#f73b6a7A","32","-1","0","-1","","0","1","","","","","804","48","5","3","lose","go","1"
"pit-trial","76","417500","0.0-51.0","battery-v0.2","","-1","P","elianto","#f73b6a7A","-1","-1","1","-1","","0","1","","","","","804","49","4","4","lose","no-go","0"
"pit-trial","77","420392","0.0-52.0","battery-v0.2","","179.57499995827675","W","elianto","#3366ff99","-1","32","0","+1","1681.1600000364706","1","1","","","","","804","50","6","2","win","no-go","0"
"pit-trial","78","424416","0.0-53.0","battery-v0.2","","-1","S","elianto","#f73b6a7A","32","-1","0","-10","","0","1","","","","","804","51","5","3","lose","go","0"
"pit-trial","79","428450","0.0-54.0","battery-v0.2","","-1","E","elianto","#f73b6a7A","-1","-1","1","-1","","0","1","","","","","804","52","7","4","lose","no-go","0"
"pit-trial","80","431494","0.0-55.0","battery-v0.2","","330.30500006861985","W","elianto","#3366ff99","-1","32","0","+1","1832.094999961555","1","1","","","","","804","53","6","2","win","no-go","0"
"pit-trial","81","435017","0.0-56.0","battery-v0.2","","816.590000060387","P","elianto","#f73b6a7A","-1","32","0","-1","2316.8099999893457","1","1","","","","","804","54","4","4","lose","no-go","1"
"pit-trial","82","439053","0.0-57.0","battery-v0.2","","-1","S","elianto","#f73b6a7A","32","-1","0","-10","","0","1","","","","","804","55","5","3","lose","go","0"
"pit-trial","83","443076","0.0-58.0","battery-v0.2","","-1","E","elianto","#f73b6a7A","-1","-1","1","-1","","0","1","","","","","804","56","7","4","lose","no-go","0"
"pit-trial","84","446665","0.0-59.0","battery-v0.2","","867.6200000336394","S","elianto","#f73b6a7A","32","32","1","-1","2369.3050000583753","1","1","","","","","804","57","5","3","lose","go","0"
"pit-trial","85","450441","0.0-60.0","battery-v0.2","","1060.674999956973","W","elianto","#3366ff99","-1","32","0","+10","2560.9999999869615","1","1","","","","","804","58","6","2","win","no-go","1"
"pit-trial","86","454459","0.0-61.0","battery-v0.2","","-1","P","elianto","#f73b6a7A","-1","-1","1","-10","","0","1","","","","","804","59","4","4","lose","no-go","1"
"pit-trial","87","458485","0.0-62.0","battery-v0.2","","-1","E","elianto","#f73b6a7A","-1","-1","1","-1","","0","1","","","","","804","60","7","4","lose","no-go","0"
"pit-trial","88","462496","0.0-63.0","battery-v0.2","","-1","E","elianto","#f73b6a7A","-1","-1","1","-1","","0","1","","","","","804","61","7","4","lose","no-go","0"
"pit-trial","89","466032","0.0-64.0","battery-v0.2","","823.2200000202283","P","elianto","#f73b6a7A","-1","32","0","-10","2323.5250000143424","1","1","","","","","804","62","4","4","lose","no-go","0"
"pit-trial","90","470048","0.0-65.0","battery-v0.2","","-1","S","elianto","#f73b6a7A","32","-1","0","-10","","0","1","","","","","804","63","5","3","lose","go","0"
"pit-trial","91","473716","0.0-66.0","battery-v0.2","","959.5200000330806","W","elianto","#3366ff99","-1","32","0","+1","2460.084999911487","1","1","","","","","804","64","6","2","win","no-go","0"
"pit-trial","92","477738","0.0-67.0","battery-v0.2","","-1","P","elianto","#f73b6a7A","-1","-1","1","-1","","0","1","","","","","804","65","4","4","lose","no-go","0"
"pit-trial","93","481751","0.0-68.0","battery-v0.2","","-1","W","elianto","#3366ff99","-1","-1","1","+10","","0","1","","","","","804","66","6","2","win","no-go","0"
"pit-trial","94","485771","0.0-69.0","battery-v0.2","","-1","S","elianto","#f73b6a7A","32","-1","0","-1","","0","1","","","","","804","67","5","3","lose","go","1"
"pit-trial","95","489780","0.0-70.0","battery-v0.2","","-1","E","elianto","#f73b6a7A","-1","-1","1","-10","3331.6000000340864","1","1","","","","","804","68","7","4","lose","no-go","1"
"pit-trial","96","493807","0.0-71.0","battery-v0.2","","-1","P","elianto","#f73b6a7A","-1","-1","1","-1","","0","1","","","","","804","69","4","4","lose","no-go","0"
"pit-trial","97","497822","0.0-72.0","battery-v0.2","","-1","S","elianto","#f73b6a7A","32","-1","0","-10","","0","1","","","","","804","70","5","3","lose","go","0"
"pit-trial","98","501838","0.0-73.0","battery-v0.2","","-1","E","elianto","#f73b6a7A","-1","-1","1","-1","","0","1","","","","","804","71","7","4","lose","no-go","0"
"pit-trial","99","505864","0.0-74.0","battery-v0.2","","-1","W","elianto","#3366ff99","-1","-1","1","+1","","0","1","","","","","804","72","6","2","win","no-go","1"
"pit-trial","100","509888","0.0-75.0","battery-v0.2","","-1","K","elianto","#f73b6a7A","-1","-1","1","-1","","0","1","","","","","804","73","8","4","lose","no-go","0"
"pit-trial","101","513900","0.0-76.0","battery-v0.2","","-1","S","elianto","#f73b6a7A","32","-1","0","-10","3146.6899999650195,3683.3300000289455,3960.1150000235066","3","1","","","","","804","74","5","3","lose","go","0"
"pit-trial","102","517909","0.0-77.0","battery-v0.2","","-1","E","elianto","#f73b6a7A","-1","-1","1","-1","","0","1","","","","","804","75","7","4","lose","no-go","0"
"pit-trial","103","521920","0.0-78.0","battery-v0.2","","-1","W","elianto","#3366ff99","-1","-1","1","+1","","0","1","","","","","804","76","6","2","win","no-go","1"
"pit-trial","104","525345","0.0-79.0","battery-v0.2","","713.2599999895319","W","elianto","#3366ff99","-1","32","0","+10","2213.935000007041","1","1","","","","","804","77","6","2","win","no-go","1"
"pit-trial","105","529354","0.0-80.0","battery-v0.2","","-1","E","elianto","#f73b6a7A","-1","-1","1","-1","","0","1","","","","","804","78","7","4","lose","no-go","0"
"pit-trial","106","533378","0.0-81.0","battery-v0.2","","-1","K","elianto","#f73b6a7A","-1","-1","1","-1","","0","1","","","","","804","79","8","4","lose","no-go","0"
"pit-trial","107","536247","0.0-82.0","battery-v0.2","","160.88500001933426","S","elianto","#f73b6a7A","32","32","1","-1","1660.9250000910833","1","1","","","","","804","80","5","3","lose","go","0"
"pit-trial","108","540266","0.0-83.0","battery-v0.2","","-1","J","elianto","#f73b6a7A","32","-1","0","-10","","0","1","","","","","804","81","10","3","lose","go","0"
"pit-trial","109","544022","0.0-84.0","battery-v0.2","","1044.9749999679625","K","elianto","#f73b6a7A","-1","32","0","-10","2545.6799999810755","1","1","","","","","804","82","8","4","lose","no-go","0"
"pit-trial","110","548042","0.0-85.0","battery-v0.2","","-1","W","elianto","#3366ff99","-1","-1","1","+10","","0","1","","","","","804","83","6","2","win","no-go","0"
"pit-trial","111","552066","0.0-86.0","battery-v0.2","","-1","D","elianto","#3366ff99","32","-1","0","+10","","0","1","","","","","804","84","9","1","win","go","1"
"pit-trial","112","556079","0.0-87.0","battery-v0.2","","-1","K","elianto","#f73b6a7A","-1","-1","1","-1","","0","1","","","","","804","85","8","4","lose","no-go","0"
"pit-trial","113","560103","0.0-88.0","battery-v0.2","","-1","J","elianto","#f73b6a7A","32","-1","0","-10","3425.1200000289828","1","1","","","","","804","86","10","3","lose","go","0"
"pit-trial","114","564137","0.0-89.0","battery-v0.2","","-1","D","elianto","#3366ff99","32","-1","0","+1","3157.729999977164","1","1","","","","","804","87","9","1","win","go","0"
"pit-trial","115","568165","0.0-90.0","battery-v0.2","","-1","W","elianto","#3366ff99","-1","-1","1","+10","3329.230000032112","1","1","","","","","804","88","6","2","win","no-go","0"
"pit-trial","116","571754","0.0-91.0","battery-v0.2","","879.6200000215322","J","elianto","#f73b6a7A","32","32","1","-10","2379.535000072792","1","1","","","","","804","89","10","3","lose","go","1"
"pit-trial","117","575723","0.0-92.0","battery-v0.2","","1259.5799999544397","K","elianto","#f73b6a7A","-1","32","0","-10","2761.090000043623","1","1","","","","","804","90","8","4","lose","no-go","0"
"pit-trial","118","578646","0.0-93.0","battery-v0.2","","215.03500000108033","D","elianto","#3366ff99","32","32","1","+10","1715.9400000236928","1","1","","","","","804","91","9","1","win","go","0"
"pit-trial","119","582672","0.0-94.0","battery-v0.2","","-1","V","elianto","#3366ff99","32","-1","0","+1","3793.249999987893","1","1","","","","","804","92","11","1","win","go","0"
"pit-trial","120","586679","0.0-95.0","battery-v0.2","","-1","K","elianto","#f73b6a7A","-1","-1","1","-1","3233.545000082813","1","1","","","","","804","93","8","4","lose","no-go","0"
"pit-trial","121","590708","0.0-96.0","battery-v0.2","","-1","J","elianto","#f73b6a7A","32","-1","0","-10","","0","1","","","","","804","94","10","3","lose","go","0"
"pit-trial","122","594722","0.0-97.0","battery-v0.2","","-1","V","elianto","#3366ff99","32","-1","0","+1","","0","1","","","","","804","95","11","1","win","go","0"
"pit-trial","123","597936","0.0-98.0","battery-v0.2","","504.9400000134483","D","elianto","#3366ff99","32","32","1","+10","2005.2349999314174","1","1","","","","","804","96","9","1","win","go","0"
"pit-trial","124","601948","0.0-99.0","battery-v0.2","","-1","K","elianto","#f73b6a7A","-1","-1","1","-1","","0","1","","","","","804","97","8","4","lose","no-go","0"
"pit-trial","125","605973","0.0-100.0","battery-v0.2","","-1","J","elianto","#f73b6a7A","32","-1","0","-10","","0","1","","","","","804","98","10","3","lose","go","0"
"pit-trial","126","609361","0.0-101.0","battery-v0.2","","674.7449999675155","D","elianto","#3366ff99","32","32","1","+10","2175.2299999352545","1","1","","","","","804","99","9","1","win","go","0"
"pit-trial","127","612849","0.0-102.0","battery-v0.2","","771.0100000258535","V","elianto","#3366ff99","32","32","1","+1","2272.7250000461936","1","1","","","","","804","100","11","1","win","go","1"
"pit-trial","128","616797","0.0-103.0","battery-v0.2","","1235.3499999735504","V","elianto","#3366ff99","32","32","1","+10","2735.9899999573827","1","1","","","","","804","101","11","1","win","go","0"
"pit-trial","129","620399","0.0-104.0","battery-v0.2","","895.7499999087304","D","elianto","#3366ff99","32","32","1","+10","2396.87000005506","1","1","","","","","804","102","9","1","win","go","0"
"pit-trial","130","624425","0.0-105.0","battery-v0.2","","-1","J","elianto","#f73b6a7A","32","-1","0","-1","","0","1","","","","","804","103","10","3","lose","go","1"
"pit-trial","131","628454","0.0-106.0","battery-v0.2","","-1","K","elianto","#f73b6a7A","-1","-1","1","-1","","0","1","","","","","804","104","8","4","lose","no-go","0"
"pit-trial","132","631451","0.0-107.0","battery-v0.2","","283.7799999397248","D","elianto","#3366ff99","32","32","1","+1","1783.960000029765","1","1","","","","","804","105","9","1","win","go","1"
"pit-trial","133","634644","0.0-108.0","battery-v0.2","","478.4550000913441","V","elianto","#3366ff99","32","32","1","+10","1979.0149999316782","1","1","","","","","804","106","11","1","win","go","0"
"pit-trial","134","637497","0.0-109.0","battery-v0.2","","141.7549999896437","K","elianto","#f73b6a7A","-1","32","0","-10","1642.4999999580905","1","1","","","","","804","107","8","4","lose","no-go","0"
"pit-trial","135","640438","0.0-110.0","battery-v0.2","","232.66499990131706","J","elianto","#f73b6a7A","32","32","1","-1","1733.4849999751896,2015.5599999707192","2","1","","","","","804","108","10","3","lose","go","0"
"pit-trial","136","643477","0.0-111.0","battery-v0.2","","326.70500001404434","J","elianto","#f73b6a7A","32","32","1","-10","1826.8950000638142","1","1","","","","","804","109","10","3","lose","go","1"
"pit-trial","137","646357","0.0-112.0","battery-v0.2","","157.79500000644475","K","elianto","#f73b6a7A","-1","32","0","-10","1658.739999984391","1","1","","","","","804","110","8","4","lose","no-go","0"
"pit-trial","138","649213","0.0-113.0","battery-v0.2","","138.9750000089407","V","elianto","#3366ff99","32","32","1","+10","1640.3399999253452","1","1","","","","","804","111","11","1","win","go","0"
"pit-trial","139","653075","0.0-114.0","battery-v0.2","","1140.9599999897182","D","elianto","#3366ff99","32","32","1","+10","2641.3649999303743","1","1","","","","","804","112","9","1","win","go","0"
"pit-trial","140","656380","0.0-115.0","battery-v0.2","","595.8250000840053","D","elianto","#3366ff99","32","32","1","+10","2096.789999981411","1","1","","","","","804","113","9","1","win","go","0"
"pit-trial","141","659682","0.0-116.0","battery-v0.2","","593.929999973625","V","elianto","#3366ff99","32","32","1","+10","2094.620000105351","1","1","","","","","804","114","11","1","win","go","0"
"pit-trial","142","663709","0.0-117.0","battery-v0.2","","-1","J","elianto","#f73b6a7A","32","-1","0","-10","","0","1","","","","","804","115","10","3","lose","go","0"
"pit-trial","143","666764","0.0-118.0","battery-v0.2","","346.29999997559935","K","elianto","#f73b6a7A","-1","32","0","-10","1848.1650000903755","1","1","","","","","804","116","8","4","lose","no-go","0"
"pit-trial","144","670777","0.0-119.0","battery-v0.2","","-1","K","elianto","#f73b6a7A","-1","-1","1","-1","","0","1","","","","","804","117","8","4","lose","no-go","0"
"pit-trial","145","673729","0.0-120.0","battery-v0.2","","239.95499999728054","D","elianto","#3366ff99","32","32","1","+10","1740.944999968633","1","1","","","","","804","118","9","1","win","go","0"
"pit-trial","146","677100","0.0-121.0","battery-v0.2","","657.4100001016632","V","elianto","#3366ff99","32","32","1","+10","2157.6950000599027","1","1","","","","","804","119","11","1","win","go","0"
"pit-trial","147","681111","0.0-122.0","battery-v0.2","","-1","J","elianto","#f73b6a7A","32","-1","0","-10","","0","1","","","","","804","120","10","3","lose","go","0"
"pit-instructions","148","687021","0.0-123.0","battery-v0.2","[{""page_index"":0,""viewing_time"":5122.545000049286},{""page_index"":1,""viewing_time"":783.4949999814853}]","5906.470000045374","","","","","","","","","","","","","","","","","","","","",""
"pit-trial","149","690496","0.0-124.0","battery-v0.2","","765.955000068061","Y","elianto","#f73b6a7A","-1","32","0","-10","2267.8600000217557","1","2","","","","","804","121","2","4","lose","no-go","0"
"pit-trial","150","693560","0.0-125.0","battery-v0.2","","345.72999994270504","M","elianto","#3366ff99","-1","32","0","+1","1846.1200000019744","1","2","","","","","804","122","0","2","win","no-go","0"
"pit-trial","151","696525","0.0-126.0","battery-v0.2","","247.38999991677701","H","elianto","#3366ff99","32","32","1","+10","1747.5900000426918,2175.5999999586493,2285.3200000245124,2519.289999967441,2902.265000040643","5","2","","","","","804","123","3","1","win","go","0"
"pit-trial","152","700537","0.0-127.0","battery-v0.2","","-1","R","elianto","#f73b6a7A","32","-1","0","-10","","0","2","","","","","804","124","1","3","lose","go","0"
"pit-trial","153","704561","0.0-128.0","battery-v0.2","","-1","R","elianto","#f73b6a7A","32","-1","0","-1","","0","2","","","","","804","125","1","3","lose","go","1"
"pit-trial","154","708585","0.0-129.0","battery-v0.2","","-1","Y","elianto","#f73b6a7A","-1","-1","1","-1","","0","2","","","","","804","126","2","4","lose","no-go","0"
"pit-trial","155","711784","0.0-130.0","battery-v0.2","","487.3549999902025","M","elianto","#3366ff99","-1","32","0","+1","1987.859999993816,3061.0299999825656","2","2","","","","","804","127","0","2","win","no-go","0"
"pit-trial","156","715527","0.0-131.0","battery-v0.2","","1032.5149999698624","H","elianto","#3366ff99","32","32","1","+10","2532.689999905415","1","2","","","","","804","128","3","1","win","go","0"
"pit-trial","157","719557","0.0-132.0","battery-v0.2","","-1","M","elianto","#3366ff99","-1","-1","1","+10","679.9299999838695,788.7500000651926","2","2","","","","","804","129","0","2","win","no-go","0"
"pit-trial","158","722791","0.0-133.0","battery-v0.2","","519.8350000428036","R","elianto","#f73b6a7A","32","32","1","-10","1386.3350000465289,2020.1149999629706,2810.635000001639","3","2","","","","","804","130","1","3","lose","go","1"
"pit-trial","159","725838","0.0-134.0","battery-v0.2","","341.63499996066093","H","elianto","#3366ff99","32","32","1","+1","1842.1150000067428,2063.7400000123307","2","2","","","","","804","131","3","1","win","go","1"
"pit-trial","160","729855","0.0-135.0","battery-v0.2","","-1","Y","elianto","#f73b6a7A","-1","-1","1","-1","","0","2","","","","","804","132","2","4","lose","no-go","0"
"pit-trial","161","733046","0.0-136.0","battery-v0.2","","483.98500005714595","M","elianto","#3366ff99","-1","32","0","+10","1983.959999983199","1","2","","","","","804","133","0","2","win","no-go","1"
"pit-trial","162","736199","0.0-137.0","battery-v0.2","","435.7000000309199","H","elianto","#3366ff99","32","32","1","+10","1936.51500006672","1","2","","","","","804","134","3","1","win","go","0"
"pit-trial","163","740217","0.0-138.0","battery-v0.2","","-1","R","elianto","#f73b6a7A","32","-1","0","-10","","0","2","","","","","804","135","1","3","lose","go","0"
"pit-trial","164","743699","0.0-139.0","battery-v0.2","","765.1449999539182","Y","elianto","#f73b6a7A","-1","32","0","-1","2266.940000001341","1","2","","","","","804","136","2","4","lose","no-go","1"
"pit-trial","165","746943","0.0-140.0","battery-v0.2","","535.3200000245124","Y","elianto","#f73b6a7A","-1","32","0","-1","2035.5349999153987","1","2","","","","","804","137","2","4","lose","no-go","1"
"pit-trial","166","750963","0.0-141.0","battery-v0.2","","-1","H","elianto","#3366ff99","32","-1","0","+1","","0","2","","","","","804","138","3","1","win","go","0"
"pit-trial","167","754998","0.0-142.0","battery-v0.2","","-1","R","elianto","#f73b6a7A","32","-1","0","-10","3198.6249999608845","1","2","","","","","804","139","1","3","lose","go","0"
"pit-trial","168","758089","0.0-143.0","battery-v0.2","","370.53000007290393","M","elianto","#3366ff99","-1","32","0","+1","393.91999994404614,1871.6799999820068,2433.8299999944866","3","2","","","","","804","140","0","2","win","no-go","0"
"pit-trial","169","761372","0.0-144.0","battery-v0.2","","575.9000000543892","H","elianto","#3366ff99","32","32","1","+1","2076.8049999605864","1","2","","","","","804","141","3","1","win","go","1"
"pit-trial","170","764613","0.0-145.0","battery-v0.2","","522.5349999964237","R","elianto","#f73b6a7A","32","32","1","-10","2023.0150000425056","1","2","","","","","804","142","1","3","lose","go","1"
"pit-trial","171","768386","0.0-146.0","battery-v0.2","","1058.1099999835715","M","elianto","#3366ff99","-1","32","0","+1","2559.594999998808","1","2","","","","","804","143","0","2","win","no-go","0"
"pit-trial","172","772294","0.0-147.0","battery-v0.2","","1189.5099999383092","Y","elianto","#f73b6a7A","-1","32","0","-10","2690.9649999579415","1","2","","","","","804","144","2","4","lose","no-go","0"
"pit-trial","173","776303","0.0-148.0","battery-v0.2","","-1","M","elianto","#3366ff99","-1","-1","1","+10","","0","2","","","","","804","145","0","2","win","no-go","0"
"pit-trial","174","780325","0.0-149.0","battery-v0.2","","-1","Y","elianto","#f73b6a7A","-1","-1","1","-1","","0","2","","","","","804","146","2","4","lose","no-go","0"
"pit-trial","175","783949","0.0-150.0","battery-v0.2","","908.144999993965","H","elianto","#3366ff99","32","32","1","+10","2409.1000000480562","1","2","","","","","804","147","3","1","win","go","0"
"pit-trial","176","787980","0.0-151.0","battery-v0.2","","-1","R","elianto","#f73b6a7A","32","-1","0","-10","","0","2","","","","","804","148","1","3","lose","go","0"
"pit-trial","177","791235","0.0-152.0","battery-v0.2","","548.9400000078604","H","elianto","#3366ff99","32","32","1","+1","2050.6150000728667","1","2","","","","","804","149","3","1","win","go","1"
"pit-trial","178","795261","0.0-153.0","battery-v0.2","","-1","Y","elianto","#f73b6a7A","-1","-1","1","-1","","0","2","","","","","804","150","2","4","lose","no-go","0"
"pit-trial","179","798625","0.0-154.0","battery-v0.2","","651.5950000612065","M","elianto","#3366ff99","-1","32","0","+1","2152.8149999212474","1","2","","","","","804","151","0","2","win","no-go","0"
"pit-trial","180","802647","0.0-155.0","battery-v0.2","","-1","R","elianto","#f73b6a7A","32","-1","0","-10","","0","2","","","","","804","152","1","3","lose","go","0"
"pit-trial","181","806663","0.0-156.0","battery-v0.2","","-1","C","elianto","#f73b6a7A","-1","-1","1","-1","3043.724999995902","1","2","","","","","804","153","5","4","lose","no-go","0"
"pit-trial","182","810686","0.0-157.0","battery-v0.2","","-1","Z","elianto","#f73b6a7A","32","-1","0","-10","3385.8900000341237","1","2","","","","","804","154","4","3","lose","go","0"
"pit-trial","183","813742","0.0-158.0","battery-v0.2","","338.5000000707805","R","elianto","#f73b6a7A","32","32","1","-1","1839.7499999264255","1","2","","","","","804","155","1","3","lose","go","0"
"pit-trial","184","817765","0.0-159.0","battery-v0.2","","-1","Y","elianto","#f73b6a7A","-1","-1","1","-1","","0","2","","","","","804","156","2","4","lose","no-go","0"
"pit-trial","185","821792","0.0-160.0","battery-v0.2","","-1","C","elianto","#f73b6a7A","-1","-1","1","-1","","0","2","","","","","804","157","5","4","lose","no-go","0"
"pit-trial","186","825580","0.0-161.0","battery-v0.2","","1076.6849999781698","R","elianto","#f73b6a7A","32","32","1","-1","2576.939999940805","1","2","","","","","804","158","1","3","lose","go","0"
"pit-trial","187","829602","0.0-162.0","battery-v0.2","","-1","Y","elianto","#f73b6a7A","-1","-1","1","-1","","0","2","","","","","804","159","2","4","lose","no-go","0"
"pit-trial","188","833625","0.0-163.0","battery-v0.2","","-1","Z","elianto","#f73b6a7A","32","-1","0","-1","","0","2","","","","","804","160","4","3","lose","go","1"
"pit-trial","189","837660","0.0-164.0","battery-v0.2","","-1","Y","elianto","#f73b6a7A","-1","-1","1","-1","","0","2","","","","","804","161","2","4","lose","no-go","0"
"pit-trial","190","840824","0.0-165.0","battery-v0.2","","450.83500002510846","B","elianto","#3366ff99","-1","32","0","+1","1952.1100000711158","1","2","","","","","804","162","6","2","win","no-go","0"
"pit-trial","191","844858","0.0-166.0","battery-v0.2","","-1","Z","elianto","#f73b6a7A","32","-1","0","-10","3602.430000086315","1","2","","","","","804","163","4","3","lose","go","0"
"pit-trial","192","848881","0.0-167.0","battery-v0.2","","-1","C","elianto","#f73b6a7A","-1","-1","1","-1","","0","2","","","","","804","164","5","4","lose","no-go","0"
"pit-trial","193","852898","0.0-168.0","battery-v0.2","","-1","Y","elianto","#f73b6a7A","-1","-1","1","-1","","0","2","","","","","804","165","2","4","lose","no-go","0"
"pit-trial","194","856136","0.0-169.0","battery-v0.2","","525.785000063479","B","elianto","#3366ff99","-1","32","0","+1","2026.36999997776","1","2","","","","","804","166","6","2","win","no-go","0"
"pit-trial","195","860152","0.0-170.0","battery-v0.2","","-1","C","elianto","#f73b6a7A","-1","-1","1","-1","","0","2","","","","","804","167","5","4","lose","no-go","0"
"pit-trial","196","864159","0.0-171.0","battery-v0.2","","-1","Z","elianto","#f73b6a7A","32","-1","0","-10","","0","2","","","","","804","168","4","3","lose","go","0"
"pit-trial","197","867594","0.0-172.0","battery-v0.2","","717.8250000579283","T","elianto","#3366ff99","32","32","1","+10","2218.914999975823","1","2","","","","","804","169","7","1","win","go","0"
"pit-trial","198","871616","0.0-173.0","battery-v0.2","","-1","C","elianto","#f73b6a7A","-1","-1","1","-10","","0","2","","","","","804","170","5","4","lose","no-go","1"
"pit-trial","199","874774","0.0-174.0","battery-v0.2","","440.07499993313104","B","elianto","#3366ff99","-1","32","0","+1","1941.4200000464916,2676.8750000046566,2900.1749999588355","3","2","","","","","804","171","6","2","win","no-go","0"
"pit-trial","200","878364","0.0-175.0","battery-v0.2","","875.9750000899658","Z","elianto","#f73b6a7A","32","32","1","-1","2377.6499999221414","1","2","","","","","804","172","4","3","lose","go","0"
"pit-trial","201","882392","0.0-176.0","battery-v0.2","","-1","C","elianto","#f73b6a7A","-1","-1","1","-1","561.8000000249594","1","2","","","","","804","173","5","4","lose","no-go","0"
"pit-trial","202","885621","0.0-177.0","battery-v0.2","","512.4900001101196","T","elianto","#3366ff99","32","32","1","+10","2018.2750000385568","1","2","","","","","804","174","7","1","win","go","0"
"pit-trial","203","889297","0.0-178.0","battery-v0.2","","957.6250000391155","Z","elianto","#f73b6a7A","32","32","1","-10","2458.1649999599904,2921.4800000190735,3089.0049999579787,3207.6149999629706,3437.359999981709,3601.6499999677762","6","2","","","","","804","175","4","3","lose","go","1"
"pit-trial","204","893308","0.0-179.0","battery-v0.2","","-1","B","elianto","#3366ff99","-1","-1","1","+10","114.88499992992729,256.70499994885176","2","2","","","","","804","176","6","2","win","no-go","0"
"pit-trial","205","897291","0.0-180.0","battery-v0.2","","1274.474999983795","B","elianto","#3366ff99","-1","32","0","+10","2775.30000009574","1","2","","","","","804","177","6","2","win","no-go","1"
"pit-trial","206","901312","0.0-181.0","battery-v0.2","","-1","T","elianto","#3366ff99","32","-1","0","+1","","0","2","","","","","804","178","7","1","win","go","0"
"pit-trial","207","905322","0.0-182.0","battery-v0.2","","-1","C","elianto","#f73b6a7A","-1","-1","1","-1","","0","2","","","","","804","179","5","4","lose","no-go","0"
"pit-trial","208","909132","0.0-183.0","battery-v0.2","","1089.9849999696016","Z","elianto","#f73b6a7A","32","32","1","-1","2591.4600000251085","1","2","","","","","804","180","4","3","lose","go","0"
"pit-trial","209","913122","0.0-184.0","battery-v0.2","","1269.6399999549612","T","elianto","#3366ff99","32","32","1","+10","2770.215000025928","1","2","","","","","804","181","7","1","win","go","0"
"pit-trial","210","916433","0.0-185.0","battery-v0.2","","605.0850000465289","B","elianto","#3366ff99","-1","32","0","+1","2106.114999973215","1","2","","","","","804","182","6","2","win","no-go","0"
"pit-trial","211","920449","0.0-186.0","battery-v0.2","","-1","C","elianto","#f73b6a7A","-1","-1","1","-1","","0","2","","","","","804","183","5","4","lose","no-go","0"
"pit-trial","212","924481","0.0-187.0","battery-v0.2","","-1","Z","elianto","#f73b6a7A","32","-1","0","-10","3649.0149999735877,3804.200000013225,3966.714999987744","3","2","","","","","804","184","4","3","lose","go","0"
"pit-trial","213","927728","0.0-188.0","battery-v0.2","","535.440000006929","C","elianto","#f73b6a7A","-1","32","0","-10","2035.4900000384077","1","2","","","","","804","185","5","4","lose","no-go","0"
"pit-trial","214","931192","0.0-189.0","battery-v0.2","","752.8650000458583","Z","elianto","#f73b6a7A","32","32","1","-1","2253.015000023879,3166.8599999975413","2","2","","","","","804","186","4","3","lose","go","0"
"pit-trial","215","934648","0.0-190.0","battery-v0.2","","742.4800000153482","B","elianto","#3366ff99","-1","32","0","+1","0.2300000051036477,2246.7049999395385","2","2","","","","","804","187","6","2","win","no-go","0"
"pit-trial","216","938597","0.0-191.0","battery-v0.2","","1233.490000013262","T","elianto","#3366ff99","32","32","1","+10","2734.0250000124797","1","2","","","","","804","188","7","1","win","go","0"
"pit-trial","217","942382","0.0-192.0","battery-v0.2","","1070.7249999977648","Z","elianto","#f73b6a7A","32","32","1","-1","2571.830000029877","1","2","","","","","804","189","4","3","lose","go","0"
"pit-trial","218","946406","0.0-193.0","battery-v0.2","","-1","B","elianto","#3366ff99","-1","-1","1","+10","","0","2","","","","","804","190","6","2","win","no-go","0"
"pit-trial","219","950419","0.0-194.0","battery-v0.2","","-1","C","elianto","#f73b6a7A","-1","-1","1","-1","","0","2","","","","","804","191","5","4","lose","no-go","0"
"pit-trial","220","954445","0.0-195.0","battery-v0.2","","-1","T","elianto","#3366ff99","32","-1","0","+10","","0","2","","","","","804","192","7","1","win","go","1"
"pit-trial","221","958469","0.0-196.0","battery-v0.2","","-1","X","elianto","#3366ff99","32","-1","0","+10","","0","2","","","","","804","193","8","1","win","go","1"
"pit-trial","222","962500","0.0-197.0","battery-v0.2","","-1","B","elianto","#3366ff99","-1","-1","1","+10","","0","2","","","","","804","194","6","2","win","no-go","0"
"pit-trial","223","966526","0.0-198.0","battery-v0.2","","-1","Z","elianto","#f73b6a7A","32","-1","0","-10","","0","2","","","","","804","195","4","3","lose","go","0"
"pit-trial","224","970557","0.0-199.0","battery-v0.2","","-1","T","elianto","#3366ff99","32","-1","0","+1","","0","2","","","","","804","196","7","1","win","go","0"
"pit-trial","225","974578","0.0-200.0","battery-v0.2","","-1","X","elianto","#3366ff99","32","-1","0","+1","","0","2","","","","","804","197","8","1","win","go","0"
"pit-trial","226","978592","0.0-201.0","battery-v0.2","","-1","T","elianto","#3366ff99","32","-1","0","+1","","0","2","","","","","804","198","7","1","win","go","0"
"pit-trial","227","982621","0.0-202.0","battery-v0.2","","-1","Z","elianto","#f73b6a7A","32","-1","0","-1","","0","2","","","","","804","199","4","3","lose","go","1"
"pit-trial","228","986644","0.0-203.0","battery-v0.2","","-1","B","elianto","#3366ff99","-1","-1","1","+10","","0","2","","","","","804","200","6","2","win","no-go","0"
"pit-trial","229","990667","0.0-204.0","battery-v0.2","","-1","X","elianto","#3366ff99","32","-1","0","+1","","0","2","","","","","804","201","8","1","win","go","0"
"pit-trial","230","994699","0.0-205.0","battery-v0.2","","-1","B","elianto","#3366ff99","-1","-1","1","+10","","0","2","","","","","804","202","6","2","win","no-go","0"
"pit-trial","231","998718","0.0-206.0","battery-v0.2","","-1","F","elianto","#3366ff99","-1","-1","1","+10","","0","2","","","","","804","203","9","2","win","no-go","0"
"pit-trial","232","1002739","0.0-207.0","battery-v0.2","","-1","T","elianto","#3366ff99","32","-1","0","+10","","0","2","","","","","804","204","7","1","win","go","1"
"pit-trial","233","1006762","0.0-208.0","battery-v0.2","","-1","F","elianto","#3366ff99","-1","-1","1","+1","","0","2","","","","","804","205","9","2","win","no-go","1"
"pit-trial","234","1010774","0.0-209.0","battery-v0.2","","-1","X","elianto","#3366ff99","32","-1","0","+1","","0","2","","","","","804","206","8","1","win","go","0"
"pit-trial","235","1014801","0.0-210.0","battery-v0.2","","-1","T","elianto","#3366ff99","32","-1","0","+1","","0","2","","","","","804","207","7","1","win","go","0"
"pit-trial","236","1018829","0.0-211.0","battery-v0.2","","-1","B","elianto","#3366ff99","-1","-1","1","+10","","0","2","","","","","804","208","6","2","win","no-go","0"
"pit-trial","237","1022838","0.0-212.0","battery-v0.2","","-1","N","elianto","#f73b6a7A","32","-1","0","-10","","0","2","","","","","804","209","10","3","lose","go","0"
"pit-trial","238","1026859","0.0-213.0","battery-v0.2","","-1","F","elianto","#3366ff99","-1","-1","1","+10","","0","2","","","","","804","210","9","2","win","no-go","0"
"pit-trial","239","1030889","0.0-214.0","battery-v0.2","","-1","X","elianto","#3366ff99","32","-1","0","+1","","0","2","","","","","804","211","8","1","win","go","0"
"pit-trial","240","1034903","0.0-215.0","battery-v0.2","","-1","Q","elianto","#f73b6a7A","-1","-1","1","-1","","0","2","","","","","804","212","11","4","lose","no-go","0"
"pit-trial","241","1038927","0.0-216.0","battery-v0.2","","-1","X","elianto","#3366ff99","32","-1","0","+10","","0","2","","","","","804","213","8","1","win","go","1"
"pit-trial","242","1042943","0.0-217.0","battery-v0.2","","-1","F","elianto","#3366ff99","-1","-1","1","+10","","0","2","","","","","804","214","9","2","win","no-go","0"
"pit-trial","243","1046971","0.0-218.0","battery-v0.2","","-1","Q","elianto","#f73b6a7A","-1","-1","1","-10","","0","2","","","","","804","215","11","4","lose","no-go","1"
"pit-trial","244","1050983","0.0-219.0","battery-v0.2","","-1","N","elianto","#f73b6a7A","32","-1","0","-1","","0","2","","","","","804","216","10","3","lose","go","1"
"pit-trial","245","1055010","0.0-220.0","battery-v0.2","","-1","N","elianto","#f73b6a7A","32","-1","0","-10","","0","2","","","","","804","217","10","3","lose","go","0"
"pit-trial","246","1059043","0.0-221.0","battery-v0.2","","-1","F","elianto","#3366ff99","-1","-1","1","+1","","0","2","","","","","804","218","9","2","win","no-go","1"
"pit-trial","247","1063067","0.0-222.0","battery-v0.2","","-1","Q","elianto","#f73b6a7A","-1","-1","1","-1","","0","2","","","","","804","219","11","4","lose","no-go","0"
"pit-trial","248","1067099","0.0-223.0","battery-v0.2","","-1","X","elianto","#3366ff99","32","-1","0","+10","","0","2","","","","","804","220","8","1","win","go","1"
"pit-trial","249","1071124","0.0-224.0","battery-v0.2","","-1","Q","elianto","#f73b6a7A","-1","-1","1","-1","","0","2","","","","","804","221","11","4","lose","no-go","0"
"pit-trial","250","1075155","0.0-225.0","battery-v0.2","","-1","X","elianto","#3366ff99","32","-1","0","+1","","0","2","","","","","804","222","8","1","win","go","0"
"pit-trial","251","1079170","0.0-226.0","battery-v0.2","","-1","N","elianto","#f73b6a7A","32","-1","0","-10","","0","2","","","","","804","223","10","3","lose","go","0"
"pit-trial","252","1083179","0.0-227.0","battery-v0.2","","-1","F","elianto","#3366ff99","-1","-1","1","+10","","0","2","","","","","804","224","9","2","win","no-go","0"
"pit-trial","253","1087198","0.0-228.0","battery-v0.2","","-1","X","elianto","#3366ff99","32","-1","0","+1","","0","2","","","","","804","225","8","1","win","go","0"
"pit-trial","254","1091234","0.0-229.0","battery-v0.2","","-1","Q","elianto","#f73b6a7A","-1","-1","1","-1","","0","2","","","","","804","226","11","4","lose","no-go","0"
"pit-trial","255","1095262","0.0-230.0","battery-v0.2","","-1","N","elianto","#f73b6a7A","32","-1","0","-10","","0","2","","","","","804","227","10","3","lose","go","0"
"pit-trial","256","1099282","0.0-231.0","battery-v0.2","","-1","F","elianto","#3366ff99","-1","-1","1","+10","","0","2","","","","","804","228","9","2","win","no-go","0"
"pit-trial","257","1103293","0.0-232.0","battery-v0.2","","-1","N","elianto","#f73b6a7A","32","-1","0","-10","","0","2","","","","","804","229","10","3","lose","go","0"
"pit-trial","258","1107302","0.0-233.0","battery-v0.2","","-1","Q","elianto","#f73b6a7A","-1","-1","1","-1","","0","2","","","","","804","230","11","4","lose","no-go","0"
"pit-trial","259","1111316","0.0-234.0","battery-v0.2","","-1","F","elianto","#3366ff99","-1","-1","1","+10","","0","2","","","","","804","231","9","2","win","no-go","0"
"pit-trial","260","1114439","0.0-235.0","battery-v0.2","","413.1000000052154","X","elianto","#3366ff99","32","32","1","+1","1914.4599999999627","1","2","","","","","804","232","8","1","win","go","1"
"pit-trial","261","1118019","0.0-236.0","battery-v0.2","","859.0450000483543","Q","elianto","#f73b6a7A","-1","32","0","-10","2360.5550000211224","1","2","","","","","804","233","11","4","lose","no-go","0"
"pit-trial","262","1121102","0.0-237.0","battery-v0.2","","376.0299999266863","N","elianto","#f73b6a7A","32","32","1","-1","1877.5750000495464","1","2","","","","","804","234","10","3","lose","go","0"
"pit-trial","263","1124197","0.0-238.0","battery-v0.2","","372.8650000412017","X","elianto","#3366ff99","32","32","1","+10","1874.7950000688434","1","2","","","","","804","235","8","1","win","go","0"
"pit-trial","264","1127476","0.0-239.0","battery-v0.2","","565.2400000253692","F","elianto","#3366ff99","-1","32","0","+1","2066.359999938868","1","2","","","","","804","236","9","2","win","no-go","0"
"pit-trial","265","1131142","0.0-240.0","battery-v0.2","","948.3349999645725","N","elianto","#f73b6a7A","32","32","1","-1","1186.7899999488145,2448.355000000447","2","2","","","","","804","237","10","3","lose","go","0"
"pit-trial","266","1134201","0.0-241.0","battery-v0.2","","338.4249999653548","X","elianto","#3366ff99","32","32","1","+10","1838.78500002902","1","2","","","","","804","238","8","1","win","go","0"
"pit-trial","267","1138228","0.0-242.0","battery-v0.2","","-1","F","elianto","#3366ff99","-1","-1","1","+1","","0","2","","","","","804","239","9","2","win","no-go","1"
"pit-trial","268","1141552","0.0-243.0","battery-v0.2","","604.1350000305101","Q","elianto","#f73b6a7A","-1","32","0","-1","2104.7850000904873","1","2","","","","","804","240","11","4","lose","no-go","1"
