"trial_type","trial_index","time_elapsed","internal_node_id","task_version","view_history","rt","rune","rune_set","hex","correct","choice","accuracy","outcome","keys","total_keys","block","practice","value","responses","num_errors","sub","trial","stimulus","robot","valence","action","sham"
"pavlovia","0","8","0.0-0.0","battery-v0.2","","","","","","","","","","","","","","","","","","","","","","",""
"pit-instructions","1","68007","0.0-1.0-0.0","battery-v0.2","[{""page_index"":0,""viewing_time"":1132.7999999988824},{""page_index"":1,""viewing_time"":459.80000000074506},{""page_index"":2,""viewing_time"":430.09999999962747},{""page_index"":3,""viewing_time"":63925.90000000037},{""page_index"":4,""viewing_time"":413.69999999925494},{""page_index"":5,""viewing_time"":322},{""page_index"":6,""viewing_time"":255.40000000037253},{""page_index"":7,""viewing_time"":320.40000000037253},{""page_index"":8,""viewing_time"":375.90000000037253},{""page_index"":9,""viewing_time"":360.5}]","67997.29999999888","","","","","","","","","","","","","","","","","","","","",""
"pit-trial","2","71813","0.0-1.0-1.0-0.0","battery-v0.2","","299.40000000037253","&#9744;","elianto","#3366ff99","32","32","1","+10","1799.2000000011176","1","0","1","","","","","","","","","",""
"pit-trial","3","75540","0.0-1.0-1.1-0.1","battery-v0.2","","221.19999999925494","&#9744;","elianto","#3366ff99","32","32","1","+10","1721.2000000011176","1","0","1","","","","","","","","","",""
"pit-trial","4","79299","0.0-1.0-1.2-0.2","battery-v0.2","","255.7999999988824","&#9744;","elianto","#3366ff99","32","32","1","+10","1755.9000000003725","1","0","1","","","","","","","","","",""
"pit-trial","5","83187","0.0-1.0-1.3-0.3","battery-v0.2","","384","&#9744;","elianto","#3366ff99","32","32","1","+10","1884.0999999996275","1","0","1","","","","","","","","","",""
"call-function","6","83190","0.0-1.0-2.0","battery-v0.2","","","","","","","","","","","","","","","","","","","","","","",""
"pit-instructions","7","87925","0.0-1.0-3.0","battery-v0.2","[{""page_index"":0,""viewing_time"":4396.199999999255},{""page_index"":1,""viewing_time"":336.09999999962747}]","4732.89999999851","","","","","","","","","","","","","","","","","","","","",""
"pit-trial","8","93429","0.0-1.0-4.0-0.0","battery-v0.2","","-1","&#9776;","elianto","#3366ff99","-1","-1","1","+10","","0","0","2","","","","","","","","","",""
"pit-trial","9","98933","0.0-1.0-4.1-0.1","battery-v0.2","","-1","&#9776;","elianto","#3366ff99","-1","-1","1","+10","","0","0","2","","","","","","","","","",""
"pit-trial","10","104437","0.0-1.0-4.2-0.2","battery-v0.2","","-1","&#9776;","elianto","#3366ff99","-1","-1","1","+10","","0","0","2","","","","","","","","","",""
"pit-trial","11","109940","0.0-1.0-4.3-0.3","battery-v0.2","","-1","&#9776;","elianto","#3366ff99","-1","-1","1","+10","","0","0","2","","","","","","","","","",""
"call-function","12","109942","0.0-1.0-5.0","battery-v0.2","","","","","","","","","","","","","","","","","","","","","","",""
"pit-instructions","13","112941","0.0-1.0-6.0","battery-v0.2","[{""page_index"":0,""viewing_time"":2614.4000000003725},{""page_index"":1,""viewing_time"":382.40000000037253}]","2997.5","","","","","","","","","","","","","","","","","","","","",""
"pit-trial","14","116803","0.0-1.0-7.0-0.0","battery-v0.2","","357.80000000074506","&#9826;","elianto","#f73b6a7A","-1","32","0","-10","1857.2000000011176","1","0","3","","","","","","","","","",""
"pit-trial","15","122307","0.0-1.0-7.1-0.1","battery-v0.2","","-1","&#9826;","elianto","#f73b6a7A","-1","-1","1","0","","0","0","3","","","","","","","","","",""
"pit-trial","16","127811","0.0-1.0-7.2-0.2","battery-v0.2","","-1","&#9826;","elianto","#f73b6a7A","-1","-1","1","0","","0","0","3","","","","","","","","","",""
"pit-trial","17","133315","0.0-1.0-7.3-0.3","battery-v0.2","","-1","&#9826;","elianto","#f73b6a7A","-1","-1","1","0","","0","0","3","","","","","","","","","",""
"call-function","18","133317","0.0-1.0-8.0","battery-v0.2","","","","","","","","","","","","","","","","","","","","","","",""
"pit-instructions","19","143540","0.0-1.0-9.0","battery-v0.2","[{""page_index"":0,""viewing_time"":9808.400000000373},{""page_index"":1,""viewing_time"":413.69999999925494}]","10222.799999998882","","","","","","","","","","","","","","","","","","","","",""
"pit-trial","20","147932","0.0-1.0-10.0-0.0","battery-v0.2","","888","&#9789;","elianto","#f73b6a7A","32","32","1","0","2387.0999999996275","1","0","4","","","","","","","","","",""
"pit-trial","21","153435","0.0-1.0-10.1-0.1","battery-v0.2","","-1","&#9789;","elianto","#f73b6a7A","32","-1","0","-10","","0","0","4","","","","","","","","","",""
"pit-trial","22","157427","0.0-1.0-10.2-0.2","battery-v0.2","","488.19999999925494","&#9789;","elianto","#f73b6a7A","32","32","1","0","1988.0999999996275","1","0","4","","","","","","","","","",""
"pit-trial","23","161211","0.0-1.0-10.3-0.3","battery-v0.2","","281.5","&#9789;","elianto","#f73b6a7A","32","32","1","0","1781.699999999255","1","0","4","","","","","","","","","",""
"pit-trial","24","165354","0.0-1.0-10.4-0.4","battery-v0.2","","640.0999999996275","&#9789;","elianto","#f73b6a7A","32","32","1","0","2140.0999999996275","1","0","4","","","","","","","","","",""
"call-function","25","165355","0.0-1.0-11.0","battery-v0.2","","","","","","","","","","","","","","","","","","","","","","",""
"pit-instructions","26","169484","0.0-1.0-12.0","battery-v0.2","[{""page_index"":0,""viewing_time"":1885.4000000003725},{""page_index"":1,""viewing_time"":398},{""page_index"":2,""viewing_time"":328},{""page_index"":3,""viewing_time"":398.09999999962747},{""page_index"":4,""viewing_time"":374.19999999925494},{""page_index"":5,""viewing_time"":367.80000000074506},{""page_index"":6,""viewing_time"":375.59999999962747}]","4127.699999999255","","","","","","","","","","","","","","","","","","","","",""
"pit-comprehension","27","183789","0.0-1.0-13.0","battery-v0.2","","14299.900000000373","","","","","","","","","","","","","Press SPACE,+10,-10,True,False, somtimes you will not get all the points even if you took the right action,True","2","","","","","","",""
"pit-instructions","28","187490","0.0-2.0","battery-v0.2","[{""page_index"":0,""viewing_time"":1041.9000000003725},{""page_index"":1,""viewing_time"":1827.699999999255},{""page_index"":2,""viewing_time"":828.3000000007451}]","3698.5","","","","","","","","","","","","","","","","","","","","",""
"pit-trial","29","192996","0.0-3.0","battery-v0.2","","-1","&#9730;","elianto","#3366ff99","32","-1","0","0","","0","1","","","","","5555","1","1","1","win","go","0"
"pit-trial","30","198499","0.0-4.0","battery-v0.2","","-1","&#9733;","elianto","#3366ff99","-1","-1","1","0","","0","1","","","","","5555","2","2","2","win","no-go","1"
"pit-trial","31","204002","0.0-5.0","battery-v0.2","","-1","&#9728;","elianto","#f73b6a7A","-1","-1","1","0","","0","1","","","","","5555","3","0","4","lose","no-go","0"
"pit-trial","32","209506","0.0-6.0","battery-v0.2","","-1","&#9752;","elianto","#f73b6a7A","32","-1","0","-10","","0","1","","","","","5555","4","3","3","lose","go","0"
"pit-trial","33","213754","0.0-7.0","battery-v0.2","","744.5999999996275","&#9730;","elianto","#3366ff99","32","32","1","+10","2244.699999999255","1","1","","","","","5555","5","1","1","win","go","0"
"pit-trial","34","218066","0.0-8.0","battery-v0.2","","810.5","&#9728;","elianto","#f73b6a7A","-1","32","0","-10","2310.5","1","1","","","","","5555","6","0","4","lose","no-go","0"
"pit-trial","35","222395","0.0-9.0","battery-v0.2","","825.5999999996275","&#9733;","elianto","#3366ff99","-1","32","0","0","2325.5999999996275","1","1","","","","","5555","7","2","2","win","no-go","0"
"pit-trial","36","226643","0.0-10.0","battery-v0.2","","744.9000000003725","&#9752;","elianto","#f73b6a7A","32","32","1","-10","2244.9000000003725","1","1","","","","","5555","8","3","3","lose","go","1"
"pit-trial","37","230547","0.0-11.0","battery-v0.2","","400.7999999988824","&#9752;","elianto","#f73b6a7A","32","32","1","0","1900.8999999985099","1","1","","","","","5555","9","3","3","lose","go","0"
"pit-trial","38","234746","0.0-12.0","battery-v0.2","","696.7000000011176","&#9730;","elianto","#3366ff99","32","32","1","+10","2196.5","1","1","","","","","5555","10","1","1","win","go","0"
"pit-trial","39","238490","0.0-13.0","battery-v0.2","","240","&#9733;","elianto","#3366ff99","-1","32","0","0","1740.0999999996275","1","1","","","","","5555","11","2","2","win","no-go","0"
"pit-trial","40","242299","0.0-14.0","battery-v0.2","","305.40000000037253","&#9728;","elianto","#f73b6a7A","-1","32","0","-10","1805.4000000003725","1","1","","","","","5555","12","0","4","lose","no-go","0"
"pit-trial","41","246083","0.0-15.0","battery-v0.2","","280","&#9728;","elianto","#f73b6a7A","-1","32","0","-10","1780","1","1","","","","","5555","13","0","4","lose","no-go","0"
"pit-trial","42","250188","0.0-16.0","battery-v0.2","","601","&#9730;","elianto","#3366ff99","32","32","1","+10","2101","1","1","","","","","5555","14","1","1","win","go","0"
"pit-trial","43","255338","0.0-17.0","battery-v0.2","","1646.2999999988824","&#9733;","elianto","#3366ff99","-1","32","0","0","3146.5","1","1","","","","","5555","15","2","2","win","no-go","0"
"pit-trial","44","260842","0.0-18.0","battery-v0.2","","-1","&#9752;","elianto","#f73b6a7A","32","-1","0","-10","","0","1","","","","","5555","16","3","3","lose","go","0"
"pit-trial","45","266345","0.0-19.0","battery-v0.2","","-1","&#9733;","elianto","#3366ff99","-1","-1","1","+10","","0","1","","","","","5555","17","2","2","win","no-go","0"
"pit-trial","46","271849","0.0-20.0","battery-v0.2","","-1","&#9752;","elianto","#f73b6a7A","32","-1","0","-10","","0","1","","","","","5555","18","3","3","lose","go","0"
"pit-trial","47","277352","0.0-21.0","battery-v0.2","","-1","&#9730;","elianto","#3366ff99","32","-1","0","0","","0","1","","","","","5555","19","1","1","win","go","0"
"pit-trial","48","282854","0.0-22.0","battery-v0.2","","-1","&#9728;","elianto","#f73b6a7A","-1","-1","1","0","","0","1","","","","","5555","20","0","4","lose","no-go","0"
"pit-instructions","49","328130","0.0-23.0","battery-v0.2","[{""page_index"":0,""viewing_time"":44844.10000000149},{""page_index"":1,""viewing_time"":429.8999999985099}]","45274.40000000037","","","","","","","","","","","","","","","","","","","","",""
"pit-trial","50","333634","0.0-24.0","battery-v0.2","","-1","D","elianto","#3366ff99","32","-1","0","0","","0","2","","","","","5555","21","2","1","win","go","0"
"pit-trial","51","339137","0.0-25.0","battery-v0.2","","-1","V","elianto","#3366ff99","-1","-1","1","+10","","0","2","","","","","5555","22","0","2","win","no-go","0"
"pit-trial","52","344640","0.0-26.0","battery-v0.2","","-1","K","elianto","#f73b6a7A","32","-1","0","-10","","0","2","","","","","5555","23","3","3","lose","go","0"
"pit-trial","53","350143","0.0-27.0","battery-v0.2","","-1","J","elianto","#3366ff99","-1","-1","1","+10","","0","2","","","","","5555","24","1","2","win","no-go","0"
"pit-trial","54","355645","0.0-28.0","battery-v0.2","","-1","D","elianto","#3366ff99","32","-1","0","0","","0","2","","","","","5555","25","2","1","win","go","0"
"pit-trial","55","361147","0.0-29.0","battery-v0.2","","-1","K","elianto","#f73b6a7A","32","-1","0","-10","","0","2","","","","","5555","26","3","3","lose","go","0"
"pit-trial","56","366650","0.0-30.0","battery-v0.2","","-1","V","elianto","#3366ff99","-1","-1","1","+10","","0","2","","","","","5555","27","0","2","win","no-go","0"
"pit-trial","57","372151","0.0-31.0","battery-v0.2","","-1","J","elianto","#3366ff99","-1","-1","1","+10","","0","2","","","","","5555","28","1","2","win","no-go","0"
"pit-trial","58","377653","0.0-32.0","battery-v0.2","","-1","V","elianto","#3366ff99","-1","-1","1","+10","","0","2","","","","","5555","29","0","2","win","no-go","0"
"pit-trial","59","383155","0.0-33.0","battery-v0.2","","-1","K","elianto","#f73b6a7A","32","-1","0","-10","","0","2","","","","","5555","30","3","3","lose","go","0"
"pit-trial","60","388657","0.0-34.0","battery-v0.2","","-1","J","elianto","#3366ff99","-1","-1","1","0","","0","2","","","","","5555","31","1","2","win","no-go","1"
"pit-trial","61","394160","0.0-35.0","battery-v0.2","","-1","D","elianto","#3366ff99","32","-1","0","0","","0","2","","","","","5555","32","2","1","win","go","0"
"pit-trial","62","399663","0.0-36.0","battery-v0.2","","-1","V","elianto","#3366ff99","-1","-1","1","+10","","0","2","","","","","5555","33","0","2","win","no-go","0"
"pit-trial","63","405166","0.0-37.0","battery-v0.2","","-1","D","elianto","#3366ff99","32","-1","0","0","","0","2","","","","","5555","34","2","1","win","go","0"
"pit-trial","64","410670","0.0-38.0","battery-v0.2","","-1","K","elianto","#f73b6a7A","32","-1","0","-10","","0","2","","","","","5555","35","3","3","lose","go","0"
"pit-trial","65","416173","0.0-39.0","battery-v0.2","","-1","J","elianto","#3366ff99","-1","-1","1","+10","","0","2","","","","","5555","36","1","2","win","no-go","0"
"pit-trial","66","421676","0.0-40.0","battery-v0.2","","-1","D","elianto","#3366ff99","32","-1","0","+10","","0","2","","","","","5555","37","2","1","win","go","1"
"pit-trial","67","427179","0.0-41.0","battery-v0.2","","-1","J","elianto","#3366ff99","-1","-1","1","+10","","0","2","","","","","5555","38","1","2","win","no-go","0"
"pit-trial","68","432682","0.0-42.0","battery-v0.2","","-1","K","elianto","#f73b6a7A","32","-1","0","-10","","0","2","","","","","5555","39","3","3","lose","go","0"
"pit-trial","69","438184","0.0-43.0","battery-v0.2","","-1","V","elianto","#3366ff99","-1","-1","1","+10","","0","2","","","","","5555","40","0","2","win","no-go","0"
"pit-trial","70","443688","0.0-44.0","battery-v0.2","","-1","D","elianto","#3366ff99","32","-1","0","+10","","0","2","","","","","5555","41","2","1","win","go","1"
"pit-trial","71","449191","0.0-45.0","battery-v0.2","","-1","J","elianto","#3366ff99","-1","-1","1","+10","","0","2","","","","","5555","42","1","2","win","no-go","0"
"pit-trial","72","454694","0.0-46.0","battery-v0.2","","-1","V","elianto","#3366ff99","-1","-1","1","+10","","0","2","","","","","5555","43","0","2","win","no-go","0"
"pit-trial","73","460197","0.0-47.0","battery-v0.2","","-1","K","elianto","#f73b6a7A","32","-1","0","0","","0","2","","","","","5555","44","3","3","lose","go","1"
"pit-trial","74","465701","0.0-48.0","battery-v0.2","","-1","D","elianto","#3366ff99","32","-1","0","0","","0","2","","","","","5555","45","2","1","win","go","0"
"pit-trial","75","471205","0.0-49.0","battery-v0.2","","-1","J","elianto","#3366ff99","-1","-1","1","+10","","0","2","","","","","5555","46","1","2","win","no-go","0"
"pit-trial","76","476710","0.0-50.0","battery-v0.2","","-1","V","elianto","#3366ff99","-1","-1","1","+10","","0","2","","","","","5555","47","0","2","win","no-go","0"
"pit-trial","77","482214","0.0-51.0","battery-v0.2","","-1","K","elianto","#f73b6a7A","32","-1","0","-10","","0","2","","","","","5555","48","3","3","lose","go","0"
"pit-trial","78","487719","0.0-52.0","battery-v0.2","","-1","K","elianto","#f73b6a7A","32","-1","0","-10","","0","2","","","","","5555","49","3","3","lose","go","0"
"pit-trial","79","493224","0.0-53.0","battery-v0.2","","-1","V","elianto","#3366ff99","-1","-1","1","+10","","0","2","","","","","5555","50","0","2","win","no-go","0"
"pit-trial","80","498728","0.0-54.0","battery-v0.2","","-1","D","elianto","#3366ff99","32","-1","0","0","","0","2","","","","","5555","51","2","1","win","go","0"
"pit-trial","81","504233","0.0-55.0","battery-v0.2","","-1","J","elianto","#3366ff99","-1","-1","1","+10","","0","2","","","","","5555","52","1","2","win","no-go","0"
"pit-trial","82","509738","0.0-56.0","battery-v0.2","","-1","D","elianto","#3366ff99","32","-1","0","+10","","0","2","","","","","5555","53","2","1","win","go","1"
"pit-trial","83","515242","0.0-57.0","battery-v0.2","","-1","W","elianto","#f73b6a7A","32","-1","0","-10","","0","2","","","","","5555","54","5","3","lose","go","0"
"pit-trial","84","520746","0.0-58.0","battery-v0.2","","-1","V","elianto","#3366ff99","-1","-1","1","+10","","0","2","","","","","5555","55","0","2","win","no-go","0"
"pit-trial","85","526248","0.0-59.0","battery-v0.2","","-1","E","elianto","#f73b6a7A","-1","-1","1","-10","","0","2","","","","","5555","56","4","4","lose","no-go","1"
"pit-trial","86","531751","0.0-60.0","battery-v0.2","","-1","W","elianto","#f73b6a7A","32","-1","0","-10","","0","2","","","","","5555","57","5","3","lose","go","0"
"pit-trial","87","537253","0.0-61.0","battery-v0.2","","-1","E","elianto","#f73b6a7A","-1","-1","1","0","","0","2","","","","","5555","58","4","4","lose","no-go","0"
"pit-trial","88","542755","0.0-62.0","battery-v0.2","","-1","V","elianto","#3366ff99","-1","-1","1","+10","","0","2","","","","","5555","59","0","2","win","no-go","0"
"pit-trial","89","548258","0.0-63.0","battery-v0.2","","-1","D","elianto","#3366ff99","32","-1","0","0","","0","2","","","","","5555","60","2","1","win","go","0"
"pit-trial","90","553760","0.0-64.0","battery-v0.2","","-1","S","elianto","#3366ff99","-1","-1","1","0","","0","2","","","","","5555","61","6","2","win","no-go","1"
"pit-trial","91","559262","0.0-65.0","battery-v0.2","","-1","D","elianto","#3366ff99","32","-1","0","0","","0","2","","","","","5555","62","2","1","win","go","0"
"pit-trial","92","564764","0.0-66.0","battery-v0.2","","-1","W","elianto","#f73b6a7A","32","-1","0","-10","","0","2","","","","","5555","63","5","3","lose","go","0"
"pit-trial","93","570266","0.0-67.0","battery-v0.2","","-1","E","elianto","#f73b6a7A","-1","-1","1","0","","0","2","","","","","5555","64","4","4","lose","no-go","0"
"pit-trial","94","575768","0.0-68.0","battery-v0.2","","-1","E","elianto","#f73b6a7A","-1","-1","1","0","","0","2","","","","","5555","65","4","4","lose","no-go","0"
"pit-trial","95","581271","0.0-69.0","battery-v0.2","","-1","D","elianto","#3366ff99","32","-1","0","0","","0","2","","","","","5555","66","2","1","win","go","0"
"pit-trial","96","586775","0.0-70.0","battery-v0.2","","-1","S","elianto","#3366ff99","-1","-1","1","+10","","0","2","","","","","5555","67","6","2","win","no-go","0"
"pit-trial","97","592278","0.0-71.0","battery-v0.2","","-1","W","elianto","#f73b6a7A","32","-1","0","-10","","0","2","","","","","5555","68","5","3","lose","go","0"
"pit-trial","98","597781","0.0-72.0","battery-v0.2","","-1","E","elianto","#f73b6a7A","-1","-1","1","-10","","0","2","","","","","5555","69","4","4","lose","no-go","1"
"pit-trial","99","603284","0.0-73.0","battery-v0.2","","-1","W","elianto","#f73b6a7A","32","-1","0","0","","0","2","","","","","5555","70","5","3","lose","go","1"
"pit-trial","100","608788","0.0-74.0","battery-v0.2","","-1","S","elianto","#3366ff99","-1","-1","1","+10","","0","2","","","","","5555","71","6","2","win","no-go","0"
"pit-trial","101","614292","0.0-75.0","battery-v0.2","","-1","P","elianto","#f73b6a7A","-1","-1","1","0","","0","2","","","","","5555","72","7","4","lose","no-go","0"
"pit-trial","102","619795","0.0-76.0","battery-v0.2","","-1","E","elianto","#f73b6a7A","-1","-1","1","0","","0","2","","","","","5555","73","4","4","lose","no-go","0"
"pit-trial","103","625298","0.0-77.0","battery-v0.2","","-1","P","elianto","#f73b6a7A","-1","-1","1","0","","0","2","","","","","5555","74","7","4","lose","no-go","0"
"pit-trial","104","630801","0.0-78.0","battery-v0.2","","-1","S","elianto","#3366ff99","-1","-1","1","+10","","0","2","","","","","5555","75","6","2","win","no-go","0"
"pit-trial","105","636305","0.0-79.0","battery-v0.2","","-1","W","elianto","#f73b6a7A","32","-1","0","-10","","0","2","","","","","5555","76","5","3","lose","go","0"
"pit-trial","106","641809","0.0-80.0","battery-v0.2","","-1","W","elianto","#f73b6a7A","32","-1","0","0","","0","2","","","","","5555","77","5","3","lose","go","1"
"pit-trial","107","647314","0.0-81.0","battery-v0.2","","-1","P","elianto","#f73b6a7A","-1","-1","1","0","","0","2","","","","","5555","78","7","4","lose","no-go","0"
"pit-trial","108","652818","0.0-82.0","battery-v0.2","","-1","S","elianto","#3366ff99","-1","-1","1","+10","","0","2","","","","","5555","79","6","2","win","no-go","0"
"pit-trial","109","658322","0.0-83.0","battery-v0.2","","-1","E","elianto","#f73b6a7A","-1","-1","1","0","","0","2","","","","","5555","80","4","4","lose","no-go","0"
"pit-trial","110","663826","0.0-84.0","battery-v0.2","","-1","W","elianto","#f73b6a7A","32","-1","0","-10","","0","2","","","","","5555","81","5","3","lose","go","0"
"pit-trial","111","669330","0.0-85.0","battery-v0.2","","-1","S","elianto","#3366ff99","-1","-1","1","+10","","0","2","","","","","5555","82","6","2","win","no-go","0"
"pit-trial","112","674835","0.0-86.0","battery-v0.2","","-1","P","elianto","#f73b6a7A","-1","-1","1","0","","0","2","","","","","5555","83","7","4","lose","no-go","0"
"pit-trial","113","680339","0.0-87.0","battery-v0.2","","-1","E","elianto","#f73b6a7A","-1","-1","1","0","","0","2","","","","","5555","84","4","4","lose","no-go","0"
"pit-trial","114","685843","0.0-88.0","battery-v0.2","","-1","E","elianto","#f73b6a7A","-1","-1","1","0","","0","2","","","","","5555","85","4","4","lose","no-go","0"
"pit-trial","115","691347","0.0-89.0","battery-v0.2","","-1","P","elianto","#f73b6a7A","-1","-1","1","0","","0","2","","","","","5555","86","7","4","lose","no-go","0"
"pit-trial","116","696850","0.0-90.0","battery-v0.2","","-1","W","elianto","#f73b6a7A","32","-1","0","-10","","0","2","","","","","5555","87","5","3","lose","go","0"
"pit-trial","117","702353","0.0-91.0","battery-v0.2","","-1","S","elianto","#3366ff99","-1","-1","1","+10","","0","2","","","","","5555","88","6","2","win","no-go","0"
"pit-trial","118","707855","0.0-92.0","battery-v0.2","","-1","E","elianto","#f73b6a7A","-1","-1","1","0","","0","2","","","","","5555","89","4","4","lose","no-go","0"
"pit-trial","119","713357","0.0-93.0","battery-v0.2","","-1","P","elianto","#f73b6a7A","-1","-1","1","-10","","0","2","","","","","5555","90","7","4","lose","no-go","1"
"pit-trial","120","718859","0.0-94.0","battery-v0.2","","-1","S","elianto","#3366ff99","-1","-1","1","+10","","0","2","","","","","5555","91","6","2","win","no-go","0"
"pit-trial","121","724361","0.0-95.0","battery-v0.2","","-1","W","elianto","#f73b6a7A","32","-1","0","-10","","0","2","","","","","5555","92","5","3","lose","go","0"
"pit-trial","122","729863","0.0-96.0","battery-v0.2","","-1","G","elianto","#f73b6a7A","-1","-1","1","0","","0","2","","","","","5555","93","8","4","lose","no-go","0"
"pit-trial","123","735365","0.0-97.0","battery-v0.2","","-1","P","elianto","#f73b6a7A","-1","-1","1","0","","0","2","","","","","5555","94","7","4","lose","no-go","0"
"pit-trial","124","740868","0.0-98.0","battery-v0.2","","-1","S","elianto","#3366ff99","-1","-1","1","+10","","0","2","","","","","5555","95","6","2","win","no-go","0"
"pit-trial","125","746371","0.0-99.0","battery-v0.2","","-1","W","elianto","#f73b6a7A","32","-1","0","-10","","0","2","","","","","5555","96","5","3","lose","go","0"
"pit-trial","126","751873","0.0-100.0","battery-v0.2","","-1","S","elianto","#3366ff99","-1","-1","1","0","","0","2","","","","","5555","97","6","2","win","no-go","1"
"pit-trial","127","757375","0.0-101.0","battery-v0.2","","-1","P","elianto","#f73b6a7A","-1","-1","1","0","","0","2","","","","","5555","98","7","4","lose","no-go","0"
"pit-trial","128","762878","0.0-102.0","battery-v0.2","","-1","W","elianto","#f73b6a7A","32","-1","0","-10","","0","2","","","","","5555","99","5","3","lose","go","0"
"pit-trial","129","768382","0.0-103.0","battery-v0.2","","-1","G","elianto","#f73b6a7A","-1","-1","1","0","","0","2","","","","","5555","100","8","4","lose","no-go","0"
"pit-trial","130","773885","0.0-104.0","battery-v0.2","","-1","G","elianto","#f73b6a7A","-1","-1","1","0","","0","2","","","","","5555","101","8","4","lose","no-go","0"
"pit-trial","131","779389","0.0-105.0","battery-v0.2","","-1","A","elianto","#3366ff99","32","-1","0","0","","0","2","","","","","5555","102","9","1","win","go","0"
"pit-trial","132","784892","0.0-106.0","battery-v0.2","","-1","L","elianto","#f73b6a7A","32","-1","0","0","","0","2","","","","","5555","103","10","3","lose","go","1"
"pit-trial","133","790395","0.0-107.0","battery-v0.2","","-1","S","elianto","#3366ff99","-1","-1","1","+10","","0","2","","","","","5555","104","6","2","win","no-go","0"
"pit-trial","134","795899","0.0-108.0","battery-v0.2","","-1","A","elianto","#3366ff99","32","-1","0","0","","0","2","","","","","5555","105","9","1","win","go","0"
"pit-trial","135","801403","0.0-109.0","battery-v0.2","","-1","G","elianto","#f73b6a7A","-1","-1","1","0","","0","2","","","","","5555","106","8","4","lose","no-go","0"
"pit-trial","136","806907","0.0-110.0","battery-v0.2","","-1","L","elianto","#f73b6a7A","32","-1","0","-10","","0","2","","","","","5555","107","10","3","lose","go","0"
"pit-trial","137","812411","0.0-111.0","battery-v0.2","","-1","S","elianto","#3366ff99","-1","-1","1","+10","","0","2","","","","","5555","108","6","2","win","no-go","0"
"pit-trial","138","817915","0.0-112.0","battery-v0.2","","-1","G","elianto","#f73b6a7A","-1","-1","1","-10","","0","2","","","","","5555","109","8","4","lose","no-go","1"
"pit-trial","139","823419","0.0-113.0","battery-v0.2","","-1","A","elianto","#3366ff99","32","-1","0","0","","0","2","","","","","5555","110","9","1","win","go","0"
"pit-trial","140","828923","0.0-114.0","battery-v0.2","","-1","L","elianto","#f73b6a7A","32","-1","0","-10","","0","2","","","","","5555","111","10","3","lose","go","0"
"pit-trial","141","834427","0.0-115.0","battery-v0.2","","-1","U","elianto","#3366ff99","32","-1","0","0","","0","2","","","","","5555","112","11","1","win","go","0"
"pit-trial","142","839932","0.0-116.0","battery-v0.2","","-1","G","elianto","#f73b6a7A","-1","-1","1","0","","0","2","","","","","5555","113","8","4","lose","no-go","0"
"pit-trial","143","845435","0.0-117.0","battery-v0.2","","-1","U","elianto","#3366ff99","32","-1","0","0","","0","2","","","","","5555","114","11","1","win","go","0"
"pit-trial","144","850939","0.0-118.0","battery-v0.2","","-1","L","elianto","#f73b6a7A","32","-1","0","-10","","0","2","","","","","5555","115","10","3","lose","go","0"
"pit-trial","145","856443","0.0-119.0","battery-v0.2","","-1","A","elianto","#3366ff99","32","-1","0","+10","","0","2","","","","","5555","116","9","1","win","go","1"
"pit-trial","146","861947","0.0-120.0","battery-v0.2","","-1","U","elianto","#3366ff99","32","-1","0","0","","0","2","","","","","5555","117","11","1","win","go","0"
"pit-trial","147","867450","0.0-121.0","battery-v0.2","","-1","L","elianto","#f73b6a7A","32","-1","0","-10","","0","2","","","","","5555","118","10","3","lose","go","0"
"pit-trial","148","872952","0.0-122.0","battery-v0.2","","-1","A","elianto","#3366ff99","32","-1","0","0","","0","2","","","","","5555","119","9","1","win","go","0"
"pit-trial","149","878456","0.0-123.0","battery-v0.2","","-1","G","elianto","#f73b6a7A","-1","-1","1","0","","0","2","","","","","5555","120","8","4","lose","no-go","0"
"pit-trial","150","883959","0.0-124.0","battery-v0.2","","-1","A","elianto","#3366ff99","32","-1","0","+10","","0","2","","","","","5555","121","9","1","win","go","1"
"pit-trial","151","889462","0.0-125.0","battery-v0.2","","-1","U","elianto","#3366ff99","32","-1","0","0","","0","2","","","","","5555","122","11","1","win","go","0"
"pit-trial","152","894966","0.0-126.0","battery-v0.2","","-1","G","elianto","#f73b6a7A","-1","-1","1","-10","","0","2","","","","","5555","123","8","4","lose","no-go","1"
"pit-trial","153","900470","0.0-127.0","battery-v0.2","","-1","L","elianto","#f73b6a7A","32","-1","0","-10","","0","2","","","","","5555","124","10","3","lose","go","0"
"pit-trial","154","905972","0.0-128.0","battery-v0.2","","-1","A","elianto","#3366ff99","32","-1","0","+10","","0","2","","","","","5555","125","9","1","win","go","1"
"pit-trial","155","911474","0.0-129.0","battery-v0.2","","-1","U","elianto","#3366ff99","32","-1","0","0","","0","2","","","","","5555","126","11","1","win","go","0"
"pit-trial","156","916977","0.0-130.0","battery-v0.2","","-1","G","elianto","#f73b6a7A","-1","-1","1","0","","0","2","","","","","5555","127","8","4","lose","no-go","0"
"pit-trial","157","922479","0.0-131.0","battery-v0.2","","-1","L","elianto","#f73b6a7A","32","-1","0","0","","0","2","","","","","5555","128","10","3","lose","go","1"
"pit-trial","158","927981","0.0-132.0","battery-v0.2","","-1","U","elianto","#3366ff99","32","-1","0","+10","","0","2","","","","","5555","129","11","1","win","go","1"
"pit-trial","159","933485","0.0-133.0","battery-v0.2","","-1","A","elianto","#3366ff99","32","-1","0","0","","0","2","","","","","5555","130","9","1","win","go","0"
"pit-trial","160","938988","0.0-134.0","battery-v0.2","","-1","G","elianto","#f73b6a7A","-1","-1","1","0","","0","2","","","","","5555","131","8","4","lose","no-go","0"
"pit-trial","161","944491","0.0-135.0","battery-v0.2","","-1","L","elianto","#f73b6a7A","32","-1","0","-10","","0","2","","","","","5555","132","10","3","lose","go","0"
"pit-trial","162","949995","0.0-136.0","battery-v0.2","","-1","G","elianto","#f73b6a7A","-1","-1","1","0","","0","2","","","","","5555","133","8","4","lose","no-go","0"
"pit-trial","163","955498","0.0-137.0","battery-v0.2","","-1","L","elianto","#f73b6a7A","32","-1","0","-10","","0","2","","","","","5555","134","10","3","lose","go","0"
"pit-trial","164","961002","0.0-138.0","battery-v0.2","","-1","A","elianto","#3366ff99","32","-1","0","+10","","0","2","","","","","5555","135","9","1","win","go","1"
"pit-trial","165","966506","0.0-139.0","battery-v0.2","","-1","U","elianto","#3366ff99","32","-1","0","0","","0","2","","","","","5555","136","11","1","win","go","0"
"pit-trial","166","972009","0.0-140.0","battery-v0.2","","-1","L","elianto","#f73b6a7A","32","-1","0","0","","0","2","","","","","5555","137","10","3","lose","go","1"
"pit-trial","167","977512","0.0-141.0","battery-v0.2","","-1","A","elianto","#3366ff99","32","-1","0","0","","0","2","","","","","5555","138","9","1","win","go","0"
"pit-trial","168","983015","0.0-142.0","battery-v0.2","","-1","U","elianto","#3366ff99","32","-1","0","0","","0","2","","","","","5555","139","11","1","win","go","0"
"pit-trial","169","988519","0.0-143.0","battery-v0.2","","-1","G","elianto","#f73b6a7A","-1","-1","1","-10","","0","2","","","","","5555","140","8","4","lose","no-go","1"
"pit-instructions","170","2331782","0.0-144.0","battery-v0.2","[{""page_index"":0,""viewing_time"":1341936.5999999996},{""page_index"":1,""viewing_time"":1322.5}]","1343260","","","","","","","","","","","","","","","","","","","","",""
"pit-trial","171","2337289","0.0-145.0","battery-v0.2","","-1","H","elianto","#3366ff99","32","-1","0","0","","0","3","","","","","5555","141","3","1","win","go","0"
"pit-trial","172","2342792","0.0-146.0","battery-v0.2","","-1","M","elianto","#3366ff99","-1","-1","1","+10","","0","3","","","","","5555","142","0","2","win","no-go","0"
"pit-trial","173","2348295","0.0-147.0","battery-v0.2","","-1","Y","elianto","#f73b6a7A","-1","-1","1","0","","0","3","","","","","5555","143","2","4","lose","no-go","0"
"pit-trial","174","2353798","0.0-148.0","battery-v0.2","","-1","R","elianto","#f73b6a7A","32","-1","0","-10","","0","3","","","","","5555","144","1","3","lose","go","0"
"pit-trial","175","2359302","0.0-149.0","battery-v0.2","","-1","R","elianto","#f73b6a7A","32","-1","0","-10","","0","3","","","","","5555","145","1","3","lose","go","0"
"pit-trial","176","2364805","0.0-150.0","battery-v0.2","","-1","Y","elianto","#f73b6a7A","-1","-1","1","-10","","0","3","","","","","5555","146","2","4","lose","no-go","1"
"pit-trial","177","2370308","0.0-151.0","battery-v0.2","","-1","H","elianto","#3366ff99","32","-1","0","0","","0","3","","","","","5555","147","3","1","win","go","0"
"pit-trial","178","2375811","0.0-152.0","battery-v0.2","","-1","M","elianto","#3366ff99","-1","-1","1","+10","","0","3","","","","","5555","148","0","2","win","no-go","0"
"pit-trial","179","2381315","0.0-153.0","battery-v0.2","","-1","H","elianto","#3366ff99","32","-1","0","0","","0","3","","","","","5555","149","3","1","win","go","0"
"pit-trial","180","2386818","0.0-154.0","battery-v0.2","","-1","Y","elianto","#f73b6a7A","-1","-1","1","-10","","0","3","","","","","5555","150","2","4","lose","no-go","1"
"pit-trial","181","2392322","0.0-155.0","battery-v0.2","","-1","M","elianto","#3366ff99","-1","-1","1","+10","","0","3","","","","","5555","151","0","2","win","no-go","0"
"pit-trial","182","2397826","0.0-156.0","battery-v0.2","","-1","R","elianto","#f73b6a7A","32","-1","0","-10","","0","3","","","","","5555","152","1","3","lose","go","0"
"pit-trial","183","2403331","0.0-157.0","battery-v0.2","","-1","R","elianto","#f73b6a7A","32","-1","0","-10","","0","3","","","","","5555","153","1","3","lose","go","0"
"pit-trial","184","2408834","0.0-158.0","battery-v0.2","","-1","H","elianto","#3366ff99","32","-1","0","0","","0","3","","","","","5555","154","3","1","win","go","0"
"pit-trial","185","2414338","0.0-159.0","battery-v0.2","","-1","Y","elianto","#f73b6a7A","-1","-1","1","0","","0","3","","","","","5555","155","2","4","lose","no-go","0"
"pit-trial","186","2419841","0.0-160.0","battery-v0.2","","-1","M","elianto","#3366ff99","-1","-1","1","+10","","0","3","","","","","5555","156","0","2","win","no-go","0"
"pit-trial","187","2425344","0.0-161.0","battery-v0.2","","-1","M","elianto","#3366ff99","-1","-1","1","+10","","0","3","","","","","5555","157","0","2","win","no-go","0"
"pit-trial","188","2430846","0.0-162.0","battery-v0.2","","-1","R","elianto","#f73b6a7A","32","-1","0","-10","","0","3","","","","","5555","158","1","3","lose","go","0"
"pit-trial","189","2436348","0.0-163.0","battery-v0.2","","-1","Y","elianto","#f73b6a7A","-1","-1","1","0","","0","3","","","","","5555","159","2","4","lose","no-go","0"
"pit-trial","190","2441850","0.0-164.0","battery-v0.2","","-1","H","elianto","#3366ff99","32","-1","0","+10","","0","3","","","","","5555","160","3","1","win","go","1"
"pit-trial","191","2447352","0.0-165.0","battery-v0.2","","-1","M","elianto","#3366ff99","-1","-1","1","0","","0","3","","","","","5555","161","0","2","win","no-go","1"
"pit-trial","192","2452854","0.0-166.0","battery-v0.2","","-1","H","elianto","#3366ff99","32","-1","0","0","","0","3","","","","","5555","162","3","1","win","go","0"
"pit-trial","193","2458355","0.0-167.0","battery-v0.2","","-1","Y","elianto","#f73b6a7A","-1","-1","1","0","","0","3","","","","","5555","163","2","4","lose","no-go","0"
"pit-trial","194","2463858","0.0-168.0","battery-v0.2","","-1","R","elianto","#f73b6a7A","32","-1","0","-10","","0","3","","","","","5555","164","1","3","lose","go","0"
"pit-trial","195","2469360","0.0-169.0","battery-v0.2","","-1","M","elianto","#3366ff99","-1","-1","1","+10","","0","3","","","","","5555","165","0","2","win","no-go","0"
"pit-trial","196","2474862","0.0-170.0","battery-v0.2","","-1","H","elianto","#3366ff99","32","-1","0","0","","0","3","","","","","5555","166","3","1","win","go","0"
"pit-trial","197","2480365","0.0-171.0","battery-v0.2","","-1","R","elianto","#f73b6a7A","32","-1","0","-10","","0","3","","","","","5555","167","1","3","lose","go","0"
"pit-trial","198","2485867","0.0-172.0","battery-v0.2","","-1","Y","elianto","#f73b6a7A","-1","-1","1","0","","0","3","","","","","5555","168","2","4","lose","no-go","0"
"pit-trial","199","2491371","0.0-173.0","battery-v0.2","","-1","H","elianto","#3366ff99","32","-1","0","+10","","0","3","","","","","5555","169","3","1","win","go","1"
"pit-trial","200","2496873","0.0-174.0","battery-v0.2","","-1","M","elianto","#3366ff99","-1","-1","1","0","","0","3","","","","","5555","170","0","2","win","no-go","1"
"pit-trial","201","2502376","0.0-175.0","battery-v0.2","","-1","Y","elianto","#f73b6a7A","-1","-1","1","-10","","0","3","","","","","5555","171","2","4","lose","no-go","1"
"pit-trial","202","2507879","0.0-176.0","battery-v0.2","","-1","R","elianto","#f73b6a7A","32","-1","0","-10","","0","3","","","","","5555","172","1","3","lose","go","0"
"pit-trial","203","2513383","0.0-177.0","battery-v0.2","","-1","Y","elianto","#f73b6a7A","-1","-1","1","-10","","0","3","","","","","5555","173","2","4","lose","no-go","1"
"pit-trial","204","2518887","0.0-178.0","battery-v0.2","","-1","C","elianto","#f73b6a7A","-1","-1","1","-10","","0","3","","","","","5555","174","5","4","lose","no-go","1"
"pit-trial","205","2524391","0.0-179.0","battery-v0.2","","-1","Z","elianto","#f73b6a7A","32","-1","0","-10","","0","3","","","","","5555","175","4","3","lose","go","0"
"pit-trial","206","2529894","0.0-180.0","battery-v0.2","","-1","R","elianto","#f73b6a7A","32","-1","0","-10","","0","3","","","","","5555","176","1","3","lose","go","0"
"pit-trial","207","2535398","0.0-181.0","battery-v0.2","","-1","Z","elianto","#f73b6a7A","32","-1","0","-10","","0","3","","","","","5555","177","4","3","lose","go","0"
"pit-trial","208","2540902","0.0-182.0","battery-v0.2","","-1","Y","elianto","#f73b6a7A","-1","-1","1","0","","0","3","","","","","5555","178","2","4","lose","no-go","0"
"pit-trial","209","2546406","0.0-183.0","battery-v0.2","","-1","R","elianto","#f73b6a7A","32","-1","0","0","","0","3","","","","","5555","179","1","3","lose","go","1"
"pit-trial","210","2551909","0.0-184.0","battery-v0.2","","-1","C","elianto","#f73b6a7A","-1","-1","1","0","","0","3","","","","","5555","180","5","4","lose","no-go","0"
"pit-trial","211","2557413","0.0-185.0","battery-v0.2","","-1","Z","elianto","#f73b6a7A","32","-1","0","-10","","0","3","","","","","5555","181","4","3","lose","go","0"
"pit-trial","212","2562916","0.0-186.0","battery-v0.2","","-1","C","elianto","#f73b6a7A","-1","-1","1","0","","0","3","","","","","5555","182","5","4","lose","no-go","0"
"pit-trial","213","2568420","0.0-187.0","battery-v0.2","","-1","Y","elianto","#f73b6a7A","-1","-1","1","-10","","0","3","","","","","5555","183","2","4","lose","no-go","1"
"pit-trial","214","2573923","0.0-188.0","battery-v0.2","","-1","B","elianto","#3366ff99","-1","-1","1","+10","","0","3","","","","","5555","184","6","2","win","no-go","0"
"pit-trial","215","2579427","0.0-189.0","battery-v0.2","","-1","Z","elianto","#f73b6a7A","32","-1","0","-10","","0","3","","","","","5555","185","4","3","lose","go","0"
"pit-trial","216","2584932","0.0-190.0","battery-v0.2","","-1","C","elianto","#f73b6a7A","-1","-1","1","0","","0","3","","","","","5555","186","5","4","lose","no-go","0"
"pit-trial","217","2590435","0.0-191.0","battery-v0.2","","-1","B","elianto","#3366ff99","-1","-1","1","+10","","0","3","","","","","5555","187","6","2","win","no-go","0"
"pit-trial","218","2595938","0.0-192.0","battery-v0.2","","-1","Y","elianto","#f73b6a7A","-1","-1","1","0","","0","3","","","","","5555","188","2","4","lose","no-go","0"
"pit-trial","219","2601442","0.0-193.0","battery-v0.2","","-1","T","elianto","#3366ff99","32","-1","0","0","","0","3","","","","","5555","189","7","1","win","go","0"
"pit-trial","220","2606945","0.0-194.0","battery-v0.2","","-1","B","elianto","#3366ff99","-1","-1","1","0","","0","3","","","","","5555","190","6","2","win","no-go","1"
"pit-trial","221","2612447","0.0-195.0","battery-v0.2","","-1","C","elianto","#f73b6a7A","-1","-1","1","0","","0","3","","","","","5555","191","5","4","lose","no-go","0"
"pit-trial","222","2617949","0.0-196.0","battery-v0.2","","-1","Z","elianto","#f73b6a7A","32","-1","0","-10","","0","3","","","","","5555","192","4","3","lose","go","0"
"pit-trial","223","2623451","0.0-197.0","battery-v0.2","","-1","B","elianto","#3366ff99","-1","-1","1","+10","","0","3","","","","","5555","193","6","2","win","no-go","0"
"pit-trial","224","2628953","0.0-198.0","battery-v0.2","","-1","Z","elianto","#f73b6a7A","32","-1","0","-10","","0","3","","","","","5555","194","4","3","lose","go","0"
"pit-trial","225","2634455","0.0-199.0","battery-v0.2","","-1","T","elianto","#3366ff99","32","-1","0","0","","0","3","","","","","5555","195","7","1","win","go","0"
"pit-trial","226","2639957","0.0-200.0","battery-v0.2","","-1","C","elianto","#f73b6a7A","-1","-1","1","0","","0","3","","","","","5555","196","5","4","lose","no-go","0"
"pit-trial","227","2645459","0.0-201.0","battery-v0.2","","-1","T","elianto","#3366ff99","32","-1","0","+10","","0","3","","","","","5555","197","7","1","win","go","1"
"pit-trial","228","2650962","0.0-202.0","battery-v0.2","","-1","Z","elianto","#f73b6a7A","32","-1","0","-10","","0","3","","","","","5555","198","4","3","lose","go","0"
"pit-trial","229","2656465","0.0-203.0","battery-v0.2","","-1","C","elianto","#f73b6a7A","-1","-1","1","-10","","0","3","","","","","5555","199","5","4","lose","no-go","1"
"pit-trial","230","2661968","0.0-204.0","battery-v0.2","","-1","B","elianto","#3366ff99","-1","-1","1","0","","0","3","","","","","5555","200","6","2","win","no-go","1"
"pit-trial","231","2667471","0.0-205.0","battery-v0.2","","-1","T","elianto","#3366ff99","32","-1","0","0","","0","3","","","","","5555","201","7","1","win","go","0"
"pit-trial","232","2672974","0.0-206.0","battery-v0.2","","-1","Z","elianto","#f73b6a7A","32","-1","0","-10","","0","3","","","","","5555","202","4","3","lose","go","0"
"pit-trial","233","2678478","0.0-207.0","battery-v0.2","","-1","C","elianto","#f73b6a7A","-1","-1","1","0","","0","3","","","","","5555","203","5","4","lose","no-go","0"
"pit-trial","234","2683981","0.0-208.0","battery-v0.2","","-1","B","elianto","#3366ff99","-1","-1","1","0","","0","3","","","","","5555","204","6","2","win","no-go","1"
"pit-trial","235","2689486","0.0-209.0","battery-v0.2","","-1","C","elianto","#f73b6a7A","-1","-1","1","0","","0","3","","","","","5555","205","5","4","lose","no-go","0"
"pit-trial","236","2694990","0.0-210.0","battery-v0.2","","-1","T","elianto","#3366ff99","32","-1","0","0","","0","3","","","","","5555","206","7","1","win","go","0"
"pit-trial","237","2700494","0.0-211.0","battery-v0.2","","-1","B","elianto","#3366ff99","-1","-1","1","+10","","0","3","","","","","5555","207","6","2","win","no-go","0"
"pit-trial","238","2705997","0.0-212.0","battery-v0.2","","-1","Z","elianto","#f73b6a7A","32","-1","0","0","","0","3","","","","","5555","208","4","3","lose","go","1"
"pit-trial","239","2711502","0.0-213.0","battery-v0.2","","-1","T","elianto","#3366ff99","32","-1","0","0","","0","3","","","","","5555","209","7","1","win","go","0"
"pit-trial","240","2717006","0.0-214.0","battery-v0.2","","-1","B","elianto","#3366ff99","-1","-1","1","+10","","0","3","","","","","5555","210","6","2","win","no-go","0"
"pit-trial","241","2722510","0.0-215.0","battery-v0.2","","-1","C","elianto","#f73b6a7A","-1","-1","1","-10","","0","3","","","","","5555","211","5","4","lose","no-go","1"
"pit-trial","242","2728013","0.0-216.0","battery-v0.2","","-1","Z","elianto","#f73b6a7A","32","-1","0","-10","","0","3","","","","","5555","212","4","3","lose","go","0"
"pit-trial","243","2733517","0.0-217.0","battery-v0.2","","-1","T","elianto","#3366ff99","32","-1","0","0","","0","3","","","","","5555","213","7","1","win","go","0"
"pit-trial","244","2739020","0.0-218.0","battery-v0.2","","-1","B","elianto","#3366ff99","-1","-1","1","+10","","0","3","","","","","5555","214","6","2","win","no-go","0"
"pit-trial","245","2744523","0.0-219.0","battery-v0.2","","-1","Z","elianto","#f73b6a7A","32","-1","0","-10","","0","3","","","","","5555","215","4","3","lose","go","0"
"pit-trial","246","2750026","0.0-220.0","battery-v0.2","","-1","X","elianto","#3366ff99","32","-1","0","0","","0","3","","","","","5555","216","8","1","win","go","0"
"pit-trial","247","2755531","0.0-221.0","battery-v0.2","","-1","T","elianto","#3366ff99","32","-1","0","0","","0","3","","","","","5555","217","7","1","win","go","0"
"pit-trial","248","2761035","0.0-222.0","battery-v0.2","","-1","B","elianto","#3366ff99","-1","-1","1","+10","","0","3","","","","","5555","218","6","2","win","no-go","0"
"pit-trial","249","2766538","0.0-223.0","battery-v0.2","","-1","Z","elianto","#f73b6a7A","32","-1","0","-10","","0","3","","","","","5555","219","4","3","lose","go","0"
"pit-trial","250","2772042","0.0-224.0","battery-v0.2","","-1","X","elianto","#3366ff99","32","-1","0","+10","","0","3","","","","","5555","220","8","1","win","go","1"
"pit-trial","251","2777547","0.0-225.0","battery-v0.2","","-1","B","elianto","#3366ff99","-1","-1","1","+10","","0","3","","","","","5555","221","6","2","win","no-go","0"
"pit-trial","252","2783050","0.0-226.0","battery-v0.2","","-1","X","elianto","#3366ff99","32","-1","0","0","","0","3","","","","","5555","222","8","1","win","go","0"
"pit-trial","253","2788552","0.0-227.0","battery-v0.2","","-1","T","elianto","#3366ff99","32","-1","0","0","","0","3","","","","","5555","223","7","1","win","go","0"
"pit-trial","254","2794056","0.0-228.0","battery-v0.2","","-1","F","elianto","#3366ff99","-1","-1","1","+10","","0","3","","","","","5555","224","9","2","win","no-go","0"
"pit-trial","255","2799559","0.0-229.0","battery-v0.2","","-1","X","elianto","#3366ff99","32","-1","0","0","","0","3","","","","","5555","225","8","1","win","go","0"
"pit-trial","256","2805064","0.0-230.0","battery-v0.2","","-1","T","elianto","#3366ff99","32","-1","0","0","","0","3","","","","","5555","226","7","1","win","go","0"
"pit-trial","257","2810568","0.0-231.0","battery-v0.2","","-1","F","elianto","#3366ff99","-1","-1","1","+10","","0","3","","","","","5555","227","9","2","win","no-go","0"
"pit-trial","258","2816072","0.0-232.0","battery-v0.2","","-1","B","elianto","#3366ff99","-1","-1","1","+10","","0","3","","","","","5555","228","6","2","win","no-go","0"
"pit-trial","259","2821576","0.0-233.0","battery-v0.2","","-1","F","elianto","#3366ff99","-1","-1","1","0","","0","3","","","","","5555","229","9","2","win","no-go","1"
"pit-trial","260","2827079","0.0-234.0","battery-v0.2","","-1","X","elianto","#3366ff99","32","-1","0","+10","","0","3","","","","","5555","230","8","1","win","go","1"
"pit-trial","261","2832583","0.0-235.0","battery-v0.2","","-1","N","elianto","#f73b6a7A","32","-1","0","-10","","0","3","","","","","5555","231","10","3","lose","go","0"
"pit-trial","262","2838088","0.0-236.0","battery-v0.2","","-1","Q","elianto","#f73b6a7A","-1","-1","1","0","","0","3","","","","","5555","232","11","4","lose","no-go","0"
"pit-trial","263","2843590","0.0-237.0","battery-v0.2","","-1","X","elianto","#3366ff99","32","-1","0","0","","0","3","","","","","5555","233","8","1","win","go","0"
"pit-trial","264","2849092","0.0-238.0","battery-v0.2","","-1","Q","elianto","#f73b6a7A","-1","-1","1","0","","0","3","","","","","5555","234","11","4","lose","no-go","0"
"pit-trial","265","2854594","0.0-239.0","battery-v0.2","","-1","F","elianto","#3366ff99","-1","-1","1","0","","0","3","","","","","5555","235","9","2","win","no-go","1"
"pit-trial","266","2860097","0.0-240.0","battery-v0.2","","-1","N","elianto","#f73b6a7A","32","-1","0","-10","","0","3","","","","","5555","236","10","3","lose","go","0"
"pit-trial","267","2865599","0.0-241.0","battery-v0.2","","-1","F","elianto","#3366ff99","-1","-1","1","0","","0","3","","","","","5555","237","9","2","win","no-go","1"
"pit-trial","268","2871103","0.0-242.0","battery-v0.2","","-1","Q","elianto","#f73b6a7A","-1","-1","1","-10","","0","3","","","","","5555","238","11","4","lose","no-go","1"
"pit-trial","269","2876606","0.0-243.0","battery-v0.2","","-1","X","elianto","#3366ff99","32","-1","0","0","","0","3","","","","","5555","239","8","1","win","go","0"
"pit-trial","270","2882110","0.0-244.0","battery-v0.2","","-1","N","elianto","#f73b6a7A","32","-1","0","-10","","0","3","","","","","5555","240","10","3","lose","go","0"
"pit-trial","271","2887614","0.0-245.0","battery-v0.2","","-1","N","elianto","#f73b6a7A","32","-1","0","-10","","0","3","","","","","5555","241","10","3","lose","go","0"
"pit-trial","272","2893118","0.0-246.0","battery-v0.2","","-1","F","elianto","#3366ff99","-1","-1","1","+10","","0","3","","","","","5555","242","9","2","win","no-go","0"
"pit-trial","273","2898622","0.0-247.0","battery-v0.2","","-1","X","elianto","#3366ff99","32","-1","0","0","","0","3","","","","","5555","243","8","1","win","go","0"
"pit-trial","274","2904126","0.0-248.0","battery-v0.2","","-1","Q","elianto","#f73b6a7A","-1","-1","1","-10","","0","3","","","","","5555","244","11","4","lose","no-go","1"
"pit-trial","275","2909629","0.0-249.0","battery-v0.2","","-1","F","elianto","#3366ff99","-1","-1","1","0","","0","3","","","","","5555","245","9","2","win","no-go","1"
"pit-trial","276","2915134","0.0-250.0","battery-v0.2","","-1","X","elianto","#3366ff99","32","-1","0","0","","0","3","","","","","5555","246","8","1","win","go","0"
"pit-trial","277","2920638","0.0-251.0","battery-v0.2","","-1","N","elianto","#f73b6a7A","32","-1","0","-10","","0","3","","","","","5555","247","10","3","lose","go","0"
"pit-trial","278","2926142","0.0-252.0","battery-v0.2","","-1","Q","elianto","#f73b6a7A","-1","-1","1","0","","0","3","","","","","5555","248","11","4","lose","no-go","0"
"pit-trial","279","2931646","0.0-253.0","battery-v0.2","","-1","Q","elianto","#f73b6a7A","-1","-1","1","0","","0","3","","","","","5555","249","11","4","lose","no-go","0"
"pit-trial","280","2937150","0.0-254.0","battery-v0.2","","-1","F","elianto","#3366ff99","-1","-1","1","+10","","0","3","","","","","5555","250","9","2","win","no-go","0"
"pit-trial","281","2942653","0.0-255.0","battery-v0.2","","-1","N","elianto","#f73b6a7A","32","-1","0","0","","0","3","","","","","5555","251","10","3","lose","go","1"
"pit-trial","282","2948156","0.0-256.0","battery-v0.2","","-1","X","elianto","#3366ff99","32","-1","0","0","","0","3","","","","","5555","252","8","1","win","go","0"
"pit-trial","283","2953659","0.0-257.0","battery-v0.2","","-1","F","elianto","#3366ff99","-1","-1","1","0","","0","3","","","","","5555","253","9","2","win","no-go","1"
"pit-trial","284","2959162","0.0-258.0","battery-v0.2","","-1","N","elianto","#f73b6a7A","32","-1","0","0","","0","3","","","","","5555","254","10","3","lose","go","1"
"pit-trial","285","2964665","0.0-259.0","battery-v0.2","","-1","X","elianto","#3366ff99","32","-1","0","0","","0","3","","","","","5555","255","8","1","win","go","0"
"pit-trial","286","2970169","0.0-260.0","battery-v0.2","","-1","Q","elianto","#f73b6a7A","-1","-1","1","0","","0","3","","","","","5555","256","11","4","lose","no-go","0"
"pit-trial","287","2975672","0.0-261.0","battery-v0.2","","-1","X","elianto","#3366ff99","32","-1","0","0","","0","3","","","","","5555","257","8","1","win","go","0"
"pit-trial","288","2981175","0.0-262.0","battery-v0.2","","-1","F","elianto","#3366ff99","-1","-1","1","+10","","0","3","","","","","5555","258","9","2","win","no-go","0"
"pit-trial","289","2986679","0.0-263.0","battery-v0.2","","-1","Q","elianto","#f73b6a7A","-1","-1","1","0","","0","3","","","","","5555","259","11","4","lose","no-go","0"
"pit-trial","290","2992183","0.0-264.0","battery-v0.2","","-1","N","elianto","#f73b6a7A","32","-1","0","-10","","0","3","","","","","5555","260","10","3","lose","go","0"
