"trial_type","trial_index","time_elapsed","internal_node_id","task_version","subject_id","interactions","blur_events","focus_events","fullscreenenter_events","fullscreenexit_events","success","view_history","rt","responses","num_errors","age","subject","participantId","rune","rune_set","hex","correct","choice","accuracy","outcome","keys","total_keys","block","practice","value","sub","trial","stimulus","robot","valence","action","sham","browser_interactions"
"pavlovia","0","11","0.0-0.0","battery-v0.2","","""event"",""trial"",""time""
""focus"",""1"",""14""
""fullscreenenter"",""1"",""1908""
","
","""event"",""trial"",""time""
""focus"",""1"",""14""
","""event"",""trial"",""time""
""fullscreenenter"",""1"",""1908""
","
","","","","","","","","","","","","","","","","","","","","","","","","","","","",""
"fullscreen","1","2902","0.0-1.0","battery-v0.2","","""event"",""trial"",""time""
""focus"",""1"",""14""
""fullscreenenter"",""1"",""1908""
""fullscreenexit"",""2"",""3615""
","
","""event"",""trial"",""time""
""focus"",""1"",""14""
","""event"",""trial"",""time""
""fullscreenenter"",""1"",""1908""
","""event"",""trial"",""time""
""fullscreenexit"",""2"",""3615""
","true","","","","","","","","","","","","","","","","","","","","","","","","","","",""
"pit-instructions","2","6789","0.0-2.0-0.0","battery-v0.2","","""event"",""trial"",""time""
""focus"",""1"",""14""
""fullscreenenter"",""1"",""1908""
""fullscreenexit"",""2"",""3615""
","
","""event"",""trial"",""time""
""focus"",""1"",""14""
","""event"",""trial"",""time""
""fullscreenenter"",""1"",""1908""
","""event"",""trial"",""time""
""fullscreenexit"",""2"",""3615""
","","[{""page_index"":0,""viewing_time"":3884.5}]","3885","","","","","","","","","","","","","","","","","","","","","","","","",""
"pit-comprehension","3","15277","0.0-2.0-1.0-0.0","battery-v0.2","","""event"",""trial"",""time""
""focus"",""1"",""14""
""fullscreenenter"",""1"",""1908""
""fullscreenexit"",""2"",""3615""
","
","""event"",""trial"",""time""
""focus"",""1"",""14""
","""event"",""trial"",""time""
""fullscreenenter"",""1"",""1908""
","""event"",""trial"",""time""
""fullscreenexit"",""2"",""3615""
","","","8483.800000011921","[""tiger""]","1","11","1223","120","","","","","","","","","","","","","","","","","","","",""
"pit-instructions","4","16476","0.0-2.0-1.0-1.0","battery-v0.2","","""event"",""trial"",""time""
""focus"",""1"",""14""
""fullscreenenter"",""1"",""1908""
""fullscreenexit"",""2"",""3615""
","
","""event"",""trial"",""time""
""focus"",""1"",""14""
","""event"",""trial"",""time""
""fullscreenenter"",""1"",""1908""
","""event"",""trial"",""time""
""fullscreenexit"",""2"",""3615""
","","[{""page_index"":0,""viewing_time"":1189.5}]","1189.800000011921","","","","","","","","","","","","","","","","","","","","","","","","",""
"pit-instructions","5","17309","0.0-2.0-1.0-2.0-0.0","battery-v0.2","","""event"",""trial"",""time""
""focus"",""1"",""14""
""fullscreenenter"",""1"",""1908""
""fullscreenexit"",""2"",""3615""
","
","""event"",""trial"",""time""
""focus"",""1"",""14""
","""event"",""trial"",""time""
""fullscreenenter"",""1"",""1908""
","""event"",""trial"",""time""
""fullscreenexit"",""2"",""3615""
","","[{""page_index"":0,""viewing_time"":829.7000000178814}]","829.8000000119209","","","","","","","","","","","","","","","","","","","","","","","","",""
"pit-comprehension","6","19637","0.0-2.0-1.1-0.1","battery-v0.2","","""event"",""trial"",""time""
""focus"",""1"",""14""
""fullscreenenter"",""1"",""1908""
""fullscreenexit"",""2"",""3615""
","
","""event"",""trial"",""time""
""focus"",""1"",""14""
","""event"",""trial"",""time""
""fullscreenenter"",""1"",""1908""
","""event"",""trial"",""time""
""fullscreenexit"",""2"",""3615""
","","","2324.7000000178814","[""shark""]","0","11","1223","120","","","","","","","","","","","","","","","","","","","",""
"pit-instructions","7","20508","0.0-2.0-1.1-1.1","battery-v0.2","","""event"",""trial"",""time""
""focus"",""1"",""14""
""fullscreenenter"",""1"",""1908""
""fullscreenexit"",""2"",""3615""
","
","""event"",""trial"",""time""
""focus"",""1"",""14""
","""event"",""trial"",""time""
""fullscreenenter"",""1"",""1908""
","""event"",""trial"",""time""
""fullscreenexit"",""2"",""3615""
","","[{""page_index"":0,""viewing_time"":867.7999999821186}]","867.8999999761581","","","","","","","","","","","","","","","","","","","","","","","","",""
"pit-comprehension","8","22525","0.0-2.0-2.0-0.0","battery-v0.2","","""event"",""trial"",""time""
""focus"",""1"",""14""
""fullscreenenter"",""1"",""1908""
""fullscreenexit"",""2"",""3615""
","
","""event"",""trial"",""time""
""focus"",""1"",""14""
","""event"",""trial"",""time""
""fullscreenenter"",""1"",""1908""
","""event"",""trial"",""time""
""fullscreenexit"",""2"",""3615""
","","","2012.7999999821186","[""tiger""]","0","11","1223","120","","","","","","","","","","","","","","","","","","","",""
"pit-instructions","9","24133","0.0-2.0-2.0-1.0","battery-v0.2","","""event"",""trial"",""time""
""focus"",""1"",""14""
""fullscreenenter"",""1"",""1908""
""fullscreenexit"",""2"",""3615""
""blur"",""10"",""25534""
""focus"",""10"",""67111""
""blur"",""10"",""83519""
""focus"",""10"",""101326""
","""event"",""trial"",""time""
""blur"",""10"",""25534""
""blur"",""10"",""83519""
","""event"",""trial"",""time""
""focus"",""1"",""14""
""focus"",""10"",""67111""
""focus"",""10"",""101326""
","""event"",""trial"",""time""
""fullscreenenter"",""1"",""1908""
","""event"",""trial"",""time""
""fullscreenexit"",""2"",""3615""
","","[{""page_index"":0,""viewing_time"":1603.7000000178814}]","1603.9000000059605","","","","","","","","","","","","","","","","","","","","","","","","",""
"pit-instructions","10","231549","0.0-2.0-3.0","battery-v0.2","","""event"",""trial"",""time""
""focus"",""1"",""14""
""fullscreenenter"",""1"",""1908""
""fullscreenexit"",""2"",""3615""
""blur"",""10"",""25534""
""focus"",""10"",""67111""
""blur"",""10"",""83519""
""focus"",""10"",""101326""
","""event"",""trial"",""time""
""blur"",""10"",""25534""
""blur"",""10"",""83519""
","""event"",""trial"",""time""
""focus"",""1"",""14""
""focus"",""10"",""67111""
""focus"",""10"",""101326""
","""event"",""trial"",""time""
""fullscreenenter"",""1"",""1908""
","""event"",""trial"",""time""
""fullscreenexit"",""2"",""3615""
","","[{""page_index"":0,""viewing_time"":79188.5},{""page_index"":1,""viewing_time"":6048.200000017881},{""page_index"":2,""viewing_time"":8015.699999988079},{""page_index"":3,""viewing_time"":12088},{""page_index"":4,""viewing_time"":9016.300000011921},{""page_index"":5,""viewing_time"":7119.899999976158},{""page_index"":6,""viewing_time"":7247.800000011921},{""page_index"":7,""viewing_time"":7472.4000000059605},{""page_index"":8,""viewing_time"":36631.79999998212},{""page_index"":9,""viewing_time"":8591.90000000596},{""page_index"":10,""viewing_time"":7968},{""page_index"":11,""viewing_time"":5672},{""page_index"":12,""viewing_time"":7584},{""page_index"":13,""viewing_time"":4767.9000000059605}]","207412.80000001192","","","","","","","","","","","","","","","","","","","","","","","","",""
"pit-trial","11","234964","0.0-2.0-4.0-0.0","battery-v0.2","","""event"",""trial"",""time""
""focus"",""1"",""14""
""fullscreenenter"",""1"",""1908""
""fullscreenexit"",""2"",""3615""
""blur"",""10"",""25534""
""focus"",""10"",""67111""
""blur"",""10"",""83519""
""focus"",""10"",""101326""
","""event"",""trial"",""time""
""blur"",""10"",""25534""
""blur"",""10"",""83519""
","""event"",""trial"",""time""
""focus"",""1"",""14""
""focus"",""10"",""67111""
""focus"",""10"",""101326""
","""event"",""trial"",""time""
""fullscreenenter"",""1"",""1908""
","""event"",""trial"",""time""
""fullscreenexit"",""2"",""3615""
","","","546.8999999761581","","","11","1223","120","&#9784;","elianto","#FFFFF080"," "," ","1","&#10004","[1397.0999999940395]","1","0","0","","","","","","","","",""
"pit-trial","12","238410","0.0-2.0-4.1-0.1","battery-v0.2","","""event"",""trial"",""time""
""focus"",""1"",""14""
""fullscreenenter"",""1"",""1908""
""fullscreenexit"",""2"",""3615""
""blur"",""10"",""25534""
""focus"",""10"",""67111""
""blur"",""10"",""83519""
""focus"",""10"",""101326""
","""event"",""trial"",""time""
""blur"",""10"",""25534""
""blur"",""10"",""83519""
","""event"",""trial"",""time""
""focus"",""1"",""14""
""focus"",""10"",""67111""
""focus"",""10"",""101326""
","""event"",""trial"",""time""
""fullscreenenter"",""1"",""1908""
","""event"",""trial"",""time""
""fullscreenexit"",""2"",""3615""
","","","578.9000000059605","","","11","1223","120","&#9784;","elianto","#FFFFF080"," "," ","1","&#10004","[1430]","1","0","0","","","","","","","","",""
"pit-trial","13","241652","0.0-2.0-4.2-0.2","battery-v0.2","","""event"",""trial"",""time""
""focus"",""1"",""14""
""fullscreenenter"",""1"",""1908""
""fullscreenexit"",""2"",""3615""
""blur"",""10"",""25534""
""focus"",""10"",""67111""
""blur"",""10"",""83519""
""focus"",""10"",""101326""
","""event"",""trial"",""time""
""blur"",""10"",""25534""
""blur"",""10"",""83519""
","""event"",""trial"",""time""
""focus"",""1"",""14""
""focus"",""10"",""67111""
""focus"",""10"",""101326""
","""event"",""trial"",""time""
""fullscreenenter"",""1"",""1908""
","""event"",""trial"",""time""
""fullscreenexit"",""2"",""3615""
","","","373","","","11","1223","120","&#9784;","elianto","#FFFFF080"," "," ","1","&#10004","[1223.5999999940395]","1","0","0","","","","","","","","",""
"pit-trial","14","244854","0.0-2.0-4.3-0.3","battery-v0.2","","""event"",""trial"",""time""
""focus"",""1"",""14""
""fullscreenenter"",""1"",""1908""
""fullscreenexit"",""2"",""3615""
""blur"",""10"",""25534""
""focus"",""10"",""67111""
""blur"",""10"",""83519""
""focus"",""10"",""101326""
","""event"",""trial"",""time""
""blur"",""10"",""25534""
""blur"",""10"",""83519""
","""event"",""trial"",""time""
""focus"",""1"",""14""
""focus"",""10"",""67111""
""focus"",""10"",""101326""
","""event"",""trial"",""time""
""fullscreenenter"",""1"",""1908""
","""event"",""trial"",""time""
""fullscreenexit"",""2"",""3615""
","","","348.09999999403954","","","11","1223","120","&#9784;","elianto","#FFFFF080"," "," ","1","&#10004","[1198.7000000178814,3070.800000011921]","2","0","0","","","","","","","","",""
"pit-trial","15","248045","0.0-2.0-4.4-0.4","battery-v0.2","","""event"",""trial"",""time""
""focus"",""1"",""14""
""fullscreenenter"",""1"",""1908""
""fullscreenexit"",""2"",""3615""
""blur"",""10"",""25534""
""focus"",""10"",""67111""
""blur"",""10"",""83519""
""focus"",""10"",""101326""
","""event"",""trial"",""time""
""blur"",""10"",""25534""
""blur"",""10"",""83519""
","""event"",""trial"",""time""
""focus"",""1"",""14""
""focus"",""10"",""67111""
""focus"",""10"",""101326""
","""event"",""trial"",""time""
""fullscreenenter"",""1"",""1908""
","""event"",""trial"",""time""
""fullscreenexit"",""2"",""3615""
","","","321.19999998807907","","","11","1223","120","&#9784;","elianto","#FFFFF080"," "," ","1","&#10004","[1172.0999999940395]","1","0","0","","","","","","","","",""
"pit-instructions","16","272821","0.0-2.0-5.0","battery-v0.2","","""event"",""trial"",""time""
""focus"",""1"",""14""
""fullscreenenter"",""1"",""1908""
""fullscreenexit"",""2"",""3615""
""blur"",""10"",""25534""
""focus"",""10"",""67111""
""blur"",""10"",""83519""
""focus"",""10"",""101326""
","""event"",""trial"",""time""
""blur"",""10"",""25534""
""blur"",""10"",""83519""
","""event"",""trial"",""time""
""focus"",""1"",""14""
""focus"",""10"",""67111""
""focus"",""10"",""101326""
","""event"",""trial"",""time""
""fullscreenenter"",""1"",""1908""
","""event"",""trial"",""time""
""fullscreenexit"",""2"",""3615""
","","[{""page_index"":0,""viewing_time"":8957.199999988079},{""page_index"":1,""viewing_time"":5328.200000017881},{""page_index"":2,""viewing_time"":4343.799999982119},{""page_index"":3,""viewing_time"":6144.4000000059605}]","24773.90000000596","","","","","","","","","","","","","","","","","","","","","","","","",""
"pit-trial","17","277695","0.0-2.0-6.0-0.0","battery-v0.2","","""event"",""trial"",""time""
""focus"",""1"",""14""
""fullscreenenter"",""1"",""1908""
""fullscreenexit"",""2"",""3615""
""blur"",""10"",""25534""
""focus"",""10"",""67111""
""blur"",""10"",""83519""
""focus"",""10"",""101326""
","""event"",""trial"",""time""
""blur"",""10"",""25534""
""blur"",""10"",""83519""
","""event"",""trial"",""time""
""focus"",""1"",""14""
""focus"",""10"",""67111""
""focus"",""10"",""101326""
","""event"",""trial"",""time""
""fullscreenenter"",""1"",""1908""
","""event"",""trial"",""time""
""fullscreenexit"",""2"",""3615""
","","","-1","","","11","1223","120","&#9854;","elianto","#FFFFF080","-1","-1","1","&#10004","[]","0","0","1","","","","","","","","",""
"pit-trial","18","282566","0.0-2.0-6.1-0.1","battery-v0.2","","""event"",""trial"",""time""
""focus"",""1"",""14""
""fullscreenenter"",""1"",""1908""
""fullscreenexit"",""2"",""3615""
""blur"",""10"",""25534""
""focus"",""10"",""67111""
""blur"",""10"",""83519""
""focus"",""10"",""101326""
","""event"",""trial"",""time""
""blur"",""10"",""25534""
""blur"",""10"",""83519""
","""event"",""trial"",""time""
""focus"",""1"",""14""
""focus"",""10"",""67111""
""focus"",""10"",""101326""
","""event"",""trial"",""time""
""fullscreenenter"",""1"",""1908""
","""event"",""trial"",""time""
""fullscreenexit"",""2"",""3615""
","","","-1","","","11","1223","120","&#9854;","elianto","#FFFFF080","-1","-1","1","&#10004","[]","0","0","1","","","","","","","","",""
"pit-trial","19","287441","0.0-2.0-6.2-0.2","battery-v0.2","","""event"",""trial"",""time""
""focus"",""1"",""14""
""fullscreenenter"",""1"",""1908""
""fullscreenexit"",""2"",""3615""
""blur"",""10"",""25534""
""focus"",""10"",""67111""
""blur"",""10"",""83519""
""focus"",""10"",""101326""
","""event"",""trial"",""time""
""blur"",""10"",""25534""
""blur"",""10"",""83519""
","""event"",""trial"",""time""
""focus"",""1"",""14""
""focus"",""10"",""67111""
""focus"",""10"",""101326""
","""event"",""trial"",""time""
""fullscreenenter"",""1"",""1908""
","""event"",""trial"",""time""
""fullscreenexit"",""2"",""3615""
","","","-1","","","11","1223","120","&#9854;","elianto","#FFFFF080","-1","-1","1","&#10004","[]","0","0","1","","","","","","","","",""
"pit-trial","20","292312","0.0-2.0-6.3-0.3","battery-v0.2","","""event"",""trial"",""time""
""focus"",""1"",""14""
""fullscreenenter"",""1"",""1908""
""fullscreenexit"",""2"",""3615""
""blur"",""10"",""25534""
""focus"",""10"",""67111""
""blur"",""10"",""83519""
""focus"",""10"",""101326""
","""event"",""trial"",""time""
""blur"",""10"",""25534""
""blur"",""10"",""83519""
","""event"",""trial"",""time""
""focus"",""1"",""14""
""focus"",""10"",""67111""
""focus"",""10"",""101326""
","""event"",""trial"",""time""
""fullscreenenter"",""1"",""1908""
","""event"",""trial"",""time""
""fullscreenexit"",""2"",""3615""
","","","-1","","","11","1223","120","&#9854;","elianto","#FFFFF080","-1","-1","1","&#10004","[]","0","0","1","","","","","","","","",""
"pit-trial","21","297179","0.0-2.0-6.4-0.4","battery-v0.2","","""event"",""trial"",""time""
""focus"",""1"",""14""
""fullscreenenter"",""1"",""1908""
""fullscreenexit"",""2"",""3615""
""blur"",""10"",""25534""
""focus"",""10"",""67111""
""blur"",""10"",""83519""
""focus"",""10"",""101326""
""blur"",""22"",""352743""
""focus"",""22"",""352907""
""blur"",""22"",""353550""
""focus"",""22"",""354323""
""blur"",""22"",""358882""
""focus"",""22"",""364877""
""blur"",""22"",""365485""
""focus"",""22"",""375403""
","""event"",""trial"",""time""
""blur"",""10"",""25534""
""blur"",""10"",""83519""
""blur"",""22"",""352743""
""blur"",""22"",""353550""
""blur"",""22"",""358882""
""blur"",""22"",""365485""
","""event"",""trial"",""time""
""focus"",""1"",""14""
""focus"",""10"",""67111""
""focus"",""10"",""101326""
""focus"",""22"",""352907""
""focus"",""22"",""354323""
""focus"",""22"",""364877""
""focus"",""22"",""375403""
","""event"",""trial"",""time""
""fullscreenenter"",""1"",""1908""
","""event"",""trial"",""time""
""fullscreenexit"",""2"",""3615""
","","","-1","","","11","1223","120","&#9854;","elianto","#FFFFF080","-1","-1","1","&#10004","[]","0","0","1","","","","","","","","",""
"pit-instructions","22","430420","0.0-2.0-7.0","battery-v0.2","","""event"",""trial"",""time""
""focus"",""1"",""14""
""fullscreenenter"",""1"",""1908""
""fullscreenexit"",""2"",""3615""
""blur"",""10"",""25534""
""focus"",""10"",""67111""
""blur"",""10"",""83519""
""focus"",""10"",""101326""
""blur"",""22"",""352743""
""focus"",""22"",""352907""
""blur"",""22"",""353550""
""focus"",""22"",""354323""
""blur"",""22"",""358882""
""focus"",""22"",""364877""
""blur"",""22"",""365485""
""focus"",""22"",""375403""
","""event"",""trial"",""time""
""blur"",""10"",""25534""
""blur"",""10"",""83519""
""blur"",""22"",""352743""
""blur"",""22"",""353550""
""blur"",""22"",""358882""
""blur"",""22"",""365485""
","""event"",""trial"",""time""
""focus"",""1"",""14""
""focus"",""10"",""67111""
""focus"",""10"",""101326""
""focus"",""22"",""352907""
""focus"",""22"",""354323""
""focus"",""22"",""364877""
""focus"",""22"",""375403""
","""event"",""trial"",""time""
""fullscreenenter"",""1"",""1908""
","""event"",""trial"",""time""
""fullscreenexit"",""2"",""3615""
","","[{""page_index"":0,""viewing_time"":7630.0999999940395},{""page_index"":1,""viewing_time"":6024.199999988079},{""page_index"":2,""viewing_time"":9656},{""page_index"":3,""viewing_time"":6624.100000023842},{""page_index"":4,""viewing_time"":5687.5999999940395},{""page_index"":5,""viewing_time"":5600.0999999940395},{""page_index"":6,""viewing_time"":4432.300000011921},{""page_index"":7,""viewing_time"":7663.799999982119},{""page_index"":8,""viewing_time"":6591.9000000059605},{""page_index"":9,""viewing_time"":19407.90000000596},{""page_index"":10,""viewing_time"":6776.0999999940395},{""page_index"":11,""viewing_time"":5064.0999999940395},{""page_index"":12,""viewing_time"":6951.9000000059605},{""page_index"":13,""viewing_time"":6816.199999988079},{""page_index"":14,""viewing_time"":6943.800000011921},{""page_index"":15,""viewing_time"":7736},{""page_index"":16,""viewing_time"":6191.800000011921},{""page_index"":17,""viewing_time"":7440.199999988079}]","133238.29999998212","","","","","","","","","","","","","","","","","","","","","","","","",""
"pit-trial","23","433905","0.0-2.0-8.0-0.0","battery-v0.2","","""event"",""trial"",""time""
""focus"",""1"",""14""
""fullscreenenter"",""1"",""1908""
""fullscreenexit"",""2"",""3615""
""blur"",""10"",""25534""
""focus"",""10"",""67111""
""blur"",""10"",""83519""
""focus"",""10"",""101326""
""blur"",""22"",""352743""
""focus"",""22"",""352907""
""blur"",""22"",""353550""
""focus"",""22"",""354323""
""blur"",""22"",""358882""
""focus"",""22"",""364877""
""blur"",""22"",""365485""
""focus"",""22"",""375403""
","""event"",""trial"",""time""
""blur"",""10"",""25534""
""blur"",""10"",""83519""
""blur"",""22"",""352743""
""blur"",""22"",""353550""
""blur"",""22"",""358882""
""blur"",""22"",""365485""
","""event"",""trial"",""time""
""focus"",""1"",""14""
""focus"",""10"",""67111""
""focus"",""10"",""101326""
""focus"",""22"",""352907""
""focus"",""22"",""354323""
""focus"",""22"",""364877""
""focus"",""22"",""375403""
","""event"",""trial"",""time""
""fullscreenenter"",""1"",""1908""
","""event"",""trial"",""time""
""fullscreenexit"",""2"",""3615""
","","","618.5999999940395","","","11","1223","120","&#9776;","elianto","#3366ff99"," "," ","1","+10","[1469.4000000059605]","1","0","1","","","","","","","","",""
"pit-trial","24","437342","0.0-2.0-8.0-1.0","battery-v0.2","","""event"",""trial"",""time""
""focus"",""1"",""14""
""fullscreenenter"",""1"",""1908""
""fullscreenexit"",""2"",""3615""
""blur"",""10"",""25534""
""focus"",""10"",""67111""
""blur"",""10"",""83519""
""focus"",""10"",""101326""
""blur"",""22"",""352743""
""focus"",""22"",""352907""
""blur"",""22"",""353550""
""focus"",""22"",""354323""
""blur"",""22"",""358882""
""focus"",""22"",""364877""
""blur"",""22"",""365485""
""focus"",""22"",""375403""
","""event"",""trial"",""time""
""blur"",""10"",""25534""
""blur"",""10"",""83519""
""blur"",""22"",""352743""
""blur"",""22"",""353550""
""blur"",""22"",""358882""
""blur"",""22"",""365485""
","""event"",""trial"",""time""
""focus"",""1"",""14""
""focus"",""10"",""67111""
""focus"",""10"",""101326""
""focus"",""22"",""352907""
""focus"",""22"",""354323""
""focus"",""22"",""364877""
""focus"",""22"",""375403""
","""event"",""trial"",""time""
""fullscreenenter"",""1"",""1908""
","""event"",""trial"",""time""
""fullscreenexit"",""2"",""3615""
","","","582.3999999761581","","","11","1223","120","&#9776;","elianto","#3366ff99"," "," ","1","+10","[1432.5]","1","0","1","","","","","","","","",""
"pit-trial","25","440608","0.0-2.0-8.0-2.0","battery-v0.2","","""event"",""trial"",""time""
""focus"",""1"",""14""
""fullscreenenter"",""1"",""1908""
""fullscreenexit"",""2"",""3615""
""blur"",""10"",""25534""
""focus"",""10"",""67111""
""blur"",""10"",""83519""
""focus"",""10"",""101326""
""blur"",""22"",""352743""
""focus"",""22"",""352907""
""blur"",""22"",""353550""
""focus"",""22"",""354323""
""blur"",""22"",""358882""
""focus"",""22"",""364877""
""blur"",""22"",""365485""
""focus"",""22"",""375403""
","""event"",""trial"",""time""
""blur"",""10"",""25534""
""blur"",""10"",""83519""
""blur"",""22"",""352743""
""blur"",""22"",""353550""
""blur"",""22"",""358882""
""blur"",""22"",""365485""
","""event"",""trial"",""time""
""focus"",""1"",""14""
""focus"",""10"",""67111""
""focus"",""10"",""101326""
""focus"",""22"",""352907""
""focus"",""22"",""354323""
""focus"",""22"",""364877""
""focus"",""22"",""375403""
","""event"",""trial"",""time""
""fullscreenenter"",""1"",""1908""
","""event"",""trial"",""time""
""fullscreenexit"",""2"",""3615""
","","","401.59999999403954","","","11","1223","120","&#9776;","elianto","#3366ff99"," "," ","1","+10","[1251.8999999761581]","1","0","1","","","","","","","","",""
"pit-trial","26","443879","0.0-2.0-8.0-3.0","battery-v0.2","","""event"",""trial"",""time""
""focus"",""1"",""14""
""fullscreenenter"",""1"",""1908""
""fullscreenexit"",""2"",""3615""
""blur"",""10"",""25534""
""focus"",""10"",""67111""
""blur"",""10"",""83519""
""focus"",""10"",""101326""
""blur"",""22"",""352743""
""focus"",""22"",""352907""
""blur"",""22"",""353550""
""focus"",""22"",""354323""
""blur"",""22"",""358882""
""focus"",""22"",""364877""
""blur"",""22"",""365485""
""focus"",""22"",""375403""
","""event"",""trial"",""time""
""blur"",""10"",""25534""
""blur"",""10"",""83519""
""blur"",""22"",""352743""
""blur"",""22"",""353550""
""blur"",""22"",""358882""
""blur"",""22"",""365485""
","""event"",""trial"",""time""
""focus"",""1"",""14""
""focus"",""10"",""67111""
""focus"",""10"",""101326""
""focus"",""22"",""352907""
""focus"",""22"",""354323""
""focus"",""22"",""364877""
""focus"",""22"",""375403""
","""event"",""trial"",""time""
""fullscreenenter"",""1"",""1908""
","""event"",""trial"",""time""
""fullscreenexit"",""2"",""3615""
","","","414.80000001192093","","","11","1223","120","&#9776;","elianto","#3366ff99"," "," ","1","0","[1265.4000000059605]","1","0","1","","","","","","","","",""
"pit-trial","27","447214","0.0-2.0-8.0-4.0","battery-v0.2","","""event"",""trial"",""time""
""focus"",""1"",""14""
""fullscreenenter"",""1"",""1908""
""fullscreenexit"",""2"",""3615""
""blur"",""10"",""25534""
""focus"",""10"",""67111""
""blur"",""10"",""83519""
""focus"",""10"",""101326""
""blur"",""22"",""352743""
""focus"",""22"",""352907""
""blur"",""22"",""353550""
""focus"",""22"",""354323""
""blur"",""22"",""358882""
""focus"",""22"",""364877""
""blur"",""22"",""365485""
""focus"",""22"",""375403""
","""event"",""trial"",""time""
""blur"",""10"",""25534""
""blur"",""10"",""83519""
""blur"",""22"",""352743""
""blur"",""22"",""353550""
""blur"",""22"",""358882""
""blur"",""22"",""365485""
","""event"",""trial"",""time""
""focus"",""1"",""14""
""focus"",""10"",""67111""
""focus"",""10"",""101326""
""focus"",""22"",""352907""
""focus"",""22"",""354323""
""focus"",""22"",""364877""
""focus"",""22"",""375403""
","""event"",""trial"",""time""
""fullscreenenter"",""1"",""1908""
","""event"",""trial"",""time""
""fullscreenexit"",""2"",""3615""
","","","479.90000000596046","","","11","1223","120","&#9776;","elianto","#3366ff99"," "," ","1","+10","[1330.800000011921]","1","0","1","","","","","","","","",""
"call-function","28","447217","0.0-2.0-9.0","battery-v0.2","","""event"",""trial"",""time""
""focus"",""1"",""14""
""fullscreenenter"",""1"",""1908""
""fullscreenexit"",""2"",""3615""
""blur"",""10"",""25534""
""focus"",""10"",""67111""
""blur"",""10"",""83519""
""focus"",""10"",""101326""
""blur"",""22"",""352743""
""focus"",""22"",""352907""
""blur"",""22"",""353550""
""focus"",""22"",""354323""
""blur"",""22"",""358882""
""focus"",""22"",""364877""
""blur"",""22"",""365485""
""focus"",""22"",""375403""
""blur"",""29"",""460857""
""focus"",""29"",""463043""
""blur"",""29"",""464639""
""focus"",""29"",""473585""
""blur"",""29"",""474654""
""focus"",""29"",""490703""
","""event"",""trial"",""time""
""blur"",""10"",""25534""
""blur"",""10"",""83519""
""blur"",""22"",""352743""
""blur"",""22"",""353550""
""blur"",""22"",""358882""
""blur"",""22"",""365485""
""blur"",""29"",""460857""
""blur"",""29"",""464639""
""blur"",""29"",""474654""
","""event"",""trial"",""time""
""focus"",""1"",""14""
""focus"",""10"",""67111""
""focus"",""10"",""101326""
""focus"",""22"",""352907""
""focus"",""22"",""354323""
""focus"",""22"",""364877""
""focus"",""22"",""375403""
""focus"",""29"",""463043""
""focus"",""29"",""473585""
""focus"",""29"",""490703""
","""event"",""trial"",""time""
""fullscreenenter"",""1"",""1908""
","""event"",""trial"",""time""
""fullscreenexit"",""2"",""3615""
","","","","","","","","","","","","","","","","","","","","","","","","","","","",""
"pit-instructions","29","510436","0.0-2.0-10.0","battery-v0.2","","""event"",""trial"",""time""
""focus"",""1"",""14""
""fullscreenenter"",""1"",""1908""
""fullscreenexit"",""2"",""3615""
""blur"",""10"",""25534""
""focus"",""10"",""67111""
""blur"",""10"",""83519""
""focus"",""10"",""101326""
""blur"",""22"",""352743""
""focus"",""22"",""352907""
""blur"",""22"",""353550""
""focus"",""22"",""354323""
""blur"",""22"",""358882""
""focus"",""22"",""364877""
""blur"",""22"",""365485""
""focus"",""22"",""375403""
""blur"",""29"",""460857""
""focus"",""29"",""463043""
""blur"",""29"",""464639""
""focus"",""29"",""473585""
""blur"",""29"",""474654""
""focus"",""29"",""490703""
","""event"",""trial"",""time""
""blur"",""10"",""25534""
""blur"",""10"",""83519""
""blur"",""22"",""352743""
""blur"",""22"",""353550""
""blur"",""22"",""358882""
""blur"",""22"",""365485""
""blur"",""29"",""460857""
""blur"",""29"",""464639""
""blur"",""29"",""474654""
","""event"",""trial"",""time""
""focus"",""1"",""14""
""focus"",""10"",""67111""
""focus"",""10"",""101326""
""focus"",""22"",""352907""
""focus"",""22"",""354323""
""focus"",""22"",""364877""
""focus"",""22"",""375403""
""focus"",""29"",""463043""
""focus"",""29"",""473585""
""focus"",""29"",""490703""
","""event"",""trial"",""time""
""fullscreenenter"",""1"",""1908""
","""event"",""trial"",""time""
""fullscreenexit"",""2"",""3615""
","","[{""page_index"":0,""viewing_time"":8355.199999988079},{""page_index"":1,""viewing_time"":7999.800000011921},{""page_index"":2,""viewing_time"":28160.399999976158},{""page_index"":3,""viewing_time"":10071.90000000596},{""page_index"":4,""viewing_time"":8631.800000011921}]","63219.29999998212","","","","","","","","","","","","","","","","","","","","","","","","",""
"pit-trial","30","514499","0.0-2.0-11.0-0.0","battery-v0.2","","""event"",""trial"",""time""
""focus"",""1"",""14""
""fullscreenenter"",""1"",""1908""
""fullscreenexit"",""2"",""3615""
""blur"",""10"",""25534""
""focus"",""10"",""67111""
""blur"",""10"",""83519""
""focus"",""10"",""101326""
""blur"",""22"",""352743""
""focus"",""22"",""352907""
""blur"",""22"",""353550""
""focus"",""22"",""354323""
""blur"",""22"",""358882""
""focus"",""22"",""364877""
""blur"",""22"",""365485""
""focus"",""22"",""375403""
""blur"",""29"",""460857""
""focus"",""29"",""463043""
""blur"",""29"",""464639""
""focus"",""29"",""473585""
""blur"",""29"",""474654""
""focus"",""29"",""490703""
","""event"",""trial"",""time""
""blur"",""10"",""25534""
""blur"",""10"",""83519""
""blur"",""22"",""352743""
""blur"",""22"",""353550""
""blur"",""22"",""358882""
""blur"",""22"",""365485""
""blur"",""29"",""460857""
""blur"",""29"",""464639""
""blur"",""29"",""474654""
","""event"",""trial"",""time""
""focus"",""1"",""14""
""focus"",""10"",""67111""
""focus"",""10"",""101326""
""focus"",""22"",""352907""
""focus"",""22"",""354323""
""focus"",""22"",""364877""
""focus"",""22"",""375403""
""focus"",""29"",""463043""
""focus"",""29"",""473585""
""focus"",""29"",""490703""
","""event"",""trial"",""time""
""fullscreenenter"",""1"",""1908""
","""event"",""trial"",""time""
""fullscreenexit"",""2"",""3615""
","","","1194.9000000059605","","","11","1223","120","&#9761;","elianto","#3366ff99","-1"," ","0","0","[2045.5999999940395,3005.5]","2","0","2","","","","","","","","",""
"pit-trial","31","517786","0.0-2.0-11.0-1.0","battery-v0.2","","""event"",""trial"",""time""
""focus"",""1"",""14""
""fullscreenenter"",""1"",""1908""
""fullscreenexit"",""2"",""3615""
""blur"",""10"",""25534""
""focus"",""10"",""67111""
""blur"",""10"",""83519""
""focus"",""10"",""101326""
""blur"",""22"",""352743""
""focus"",""22"",""352907""
""blur"",""22"",""353550""
""focus"",""22"",""354323""
""blur"",""22"",""358882""
""focus"",""22"",""364877""
""blur"",""22"",""365485""
""focus"",""22"",""375403""
""blur"",""29"",""460857""
""focus"",""29"",""463043""
""blur"",""29"",""464639""
""focus"",""29"",""473585""
""blur"",""29"",""474654""
""focus"",""29"",""490703""
","""event"",""trial"",""time""
""blur"",""10"",""25534""
""blur"",""10"",""83519""
""blur"",""22"",""352743""
""blur"",""22"",""353550""
""blur"",""22"",""358882""
""blur"",""22"",""365485""
""blur"",""29"",""460857""
""blur"",""29"",""464639""
""blur"",""29"",""474654""
","""event"",""trial"",""time""
""focus"",""1"",""14""
""focus"",""10"",""67111""
""focus"",""10"",""101326""
""focus"",""22"",""352907""
""focus"",""22"",""354323""
""focus"",""22"",""364877""
""focus"",""22"",""375403""
""focus"",""29"",""463043""
""focus"",""29"",""473585""
""focus"",""29"",""490703""
","""event"",""trial"",""time""
""fullscreenenter"",""1"",""1908""
","""event"",""trial"",""time""
""fullscreenexit"",""2"",""3615""
","","","413.19999998807907","","","11","1223","120","&#9761;","elianto","#3366ff99","-1"," ","0","0","[1270.5999999940395]","1","0","2","","","","","","","","",""
"pit-trial","32","522648","0.0-2.0-11.0-2.0","battery-v0.2","","""event"",""trial"",""time""
""focus"",""1"",""14""
""fullscreenenter"",""1"",""1908""
""fullscreenexit"",""2"",""3615""
""blur"",""10"",""25534""
""focus"",""10"",""67111""
""blur"",""10"",""83519""
""focus"",""10"",""101326""
""blur"",""22"",""352743""
""focus"",""22"",""352907""
""blur"",""22"",""353550""
""focus"",""22"",""354323""
""blur"",""22"",""358882""
""focus"",""22"",""364877""
""blur"",""22"",""365485""
""focus"",""22"",""375403""
""blur"",""29"",""460857""
""focus"",""29"",""463043""
""blur"",""29"",""464639""
""focus"",""29"",""473585""
""blur"",""29"",""474654""
""focus"",""29"",""490703""
","""event"",""trial"",""time""
""blur"",""10"",""25534""
""blur"",""10"",""83519""
""blur"",""22"",""352743""
""blur"",""22"",""353550""
""blur"",""22"",""358882""
""blur"",""22"",""365485""
""blur"",""29"",""460857""
""blur"",""29"",""464639""
""blur"",""29"",""474654""
","""event"",""trial"",""time""
""focus"",""1"",""14""
""focus"",""10"",""67111""
""focus"",""10"",""101326""
""focus"",""22"",""352907""
""focus"",""22"",""354323""
""focus"",""22"",""364877""
""focus"",""22"",""375403""
""focus"",""29"",""463043""
""focus"",""29"",""473585""
""focus"",""29"",""490703""
","""event"",""trial"",""time""
""fullscreenenter"",""1"",""1908""
","""event"",""trial"",""time""
""fullscreenexit"",""2"",""3615""
","","","-1","","","11","1223","120","&#9761;","elianto","#3366ff99","-1","-1","1","+10","[]","0","0","2","","","","","","","","",""
"pit-trial","33","527522","0.0-2.0-11.0-3.0","battery-v0.2","","""event"",""trial"",""time""
""focus"",""1"",""14""
""fullscreenenter"",""1"",""1908""
""fullscreenexit"",""2"",""3615""
""blur"",""10"",""25534""
""focus"",""10"",""67111""
""blur"",""10"",""83519""
""focus"",""10"",""101326""
""blur"",""22"",""352743""
""focus"",""22"",""352907""
""blur"",""22"",""353550""
""focus"",""22"",""354323""
""blur"",""22"",""358882""
""focus"",""22"",""364877""
""blur"",""22"",""365485""
""focus"",""22"",""375403""
""blur"",""29"",""460857""
""focus"",""29"",""463043""
""blur"",""29"",""464639""
""focus"",""29"",""473585""
""blur"",""29"",""474654""
""focus"",""29"",""490703""
","""event"",""trial"",""time""
""blur"",""10"",""25534""
""blur"",""10"",""83519""
""blur"",""22"",""352743""
""blur"",""22"",""353550""
""blur"",""22"",""358882""
""blur"",""22"",""365485""
""blur"",""29"",""460857""
""blur"",""29"",""464639""
""blur"",""29"",""474654""
","""event"",""trial"",""time""
""focus"",""1"",""14""
""focus"",""10"",""67111""
""focus"",""10"",""101326""
""focus"",""22"",""352907""
""focus"",""22"",""354323""
""focus"",""22"",""364877""
""focus"",""22"",""375403""
""focus"",""29"",""463043""
""focus"",""29"",""473585""
""focus"",""29"",""490703""
","""event"",""trial"",""time""
""fullscreenenter"",""1"",""1908""
","""event"",""trial"",""time""
""fullscreenexit"",""2"",""3615""
","","","-1","","","11","1223","120","&#9761;","elianto","#3366ff99","-1","-1","1","0","[]","0","0","2","","","","","","","","",""
"pit-trial","34","532394","0.0-2.0-11.0-4.0","battery-v0.2","","""event"",""trial"",""time""
""focus"",""1"",""14""
""fullscreenenter"",""1"",""1908""
""fullscreenexit"",""2"",""3615""
""blur"",""10"",""25534""
""focus"",""10"",""67111""
""blur"",""10"",""83519""
""focus"",""10"",""101326""
""blur"",""22"",""352743""
""focus"",""22"",""352907""
""blur"",""22"",""353550""
""focus"",""22"",""354323""
""blur"",""22"",""358882""
""focus"",""22"",""364877""
""blur"",""22"",""365485""
""focus"",""22"",""375403""
""blur"",""29"",""460857""
""focus"",""29"",""463043""
""blur"",""29"",""464639""
""focus"",""29"",""473585""
""blur"",""29"",""474654""
""focus"",""29"",""490703""
","""event"",""trial"",""time""
""blur"",""10"",""25534""
""blur"",""10"",""83519""
""blur"",""22"",""352743""
""blur"",""22"",""353550""
""blur"",""22"",""358882""
""blur"",""22"",""365485""
""blur"",""29"",""460857""
""blur"",""29"",""464639""
""blur"",""29"",""474654""
","""event"",""trial"",""time""
""focus"",""1"",""14""
""focus"",""10"",""67111""
""focus"",""10"",""101326""
""focus"",""22"",""352907""
""focus"",""22"",""354323""
""focus"",""22"",""364877""
""focus"",""22"",""375403""
""focus"",""29"",""463043""
""focus"",""29"",""473585""
""focus"",""29"",""490703""
","""event"",""trial"",""time""
""fullscreenenter"",""1"",""1908""
","""event"",""trial"",""time""
""fullscreenexit"",""2"",""3615""
","","","-1","","","11","1223","120","&#9761;","elianto","#3366ff99","-1","-1","1","+10","[]","0","0","2","","","","","","","","",""
"pit-trial","35","537264","0.0-2.0-11.1-0.1","battery-v0.2","","""event"",""trial"",""time""
""focus"",""1"",""14""
""fullscreenenter"",""1"",""1908""
""fullscreenexit"",""2"",""3615""
""blur"",""10"",""25534""
""focus"",""10"",""67111""
""blur"",""10"",""83519""
""focus"",""10"",""101326""
""blur"",""22"",""352743""
""focus"",""22"",""352907""
""blur"",""22"",""353550""
""focus"",""22"",""354323""
""blur"",""22"",""358882""
""focus"",""22"",""364877""
""blur"",""22"",""365485""
""focus"",""22"",""375403""
""blur"",""29"",""460857""
""focus"",""29"",""463043""
""blur"",""29"",""464639""
""focus"",""29"",""473585""
""blur"",""29"",""474654""
""focus"",""29"",""490703""
","""event"",""trial"",""time""
""blur"",""10"",""25534""
""blur"",""10"",""83519""
""blur"",""22"",""352743""
""blur"",""22"",""353550""
""blur"",""22"",""358882""
""blur"",""22"",""365485""
""blur"",""29"",""460857""
""blur"",""29"",""464639""
""blur"",""29"",""474654""
","""event"",""trial"",""time""
""focus"",""1"",""14""
""focus"",""10"",""67111""
""focus"",""10"",""101326""
""focus"",""22"",""352907""
""focus"",""22"",""354323""
""focus"",""22"",""364877""
""focus"",""22"",""375403""
""focus"",""29"",""463043""
""focus"",""29"",""473585""
""focus"",""29"",""490703""
","""event"",""trial"",""time""
""fullscreenenter"",""1"",""1908""
","""event"",""trial"",""time""
""fullscreenexit"",""2"",""3615""
","","","-1","","","11","1223","120","&#9761;","elianto","#3366ff99","-1","-1","1","+10","[]","0","0","2","","","","","","","","",""
"pit-trial","36","542118","0.0-2.0-11.1-1.1","battery-v0.2","","""event"",""trial"",""time""
""focus"",""1"",""14""
""fullscreenenter"",""1"",""1908""
""fullscreenexit"",""2"",""3615""
""blur"",""10"",""25534""
""focus"",""10"",""67111""
""blur"",""10"",""83519""
""focus"",""10"",""101326""
""blur"",""22"",""352743""
""focus"",""22"",""352907""
""blur"",""22"",""353550""
""focus"",""22"",""354323""
""blur"",""22"",""358882""
""focus"",""22"",""364877""
""blur"",""22"",""365485""
""focus"",""22"",""375403""
""blur"",""29"",""460857""
""focus"",""29"",""463043""
""blur"",""29"",""464639""
""focus"",""29"",""473585""
""blur"",""29"",""474654""
""focus"",""29"",""490703""
","""event"",""trial"",""time""
""blur"",""10"",""25534""
""blur"",""10"",""83519""
""blur"",""22"",""352743""
""blur"",""22"",""353550""
""blur"",""22"",""358882""
""blur"",""22"",""365485""
""blur"",""29"",""460857""
""blur"",""29"",""464639""
""blur"",""29"",""474654""
","""event"",""trial"",""time""
""focus"",""1"",""14""
""focus"",""10"",""67111""
""focus"",""10"",""101326""
""focus"",""22"",""352907""
""focus"",""22"",""354323""
""focus"",""22"",""364877""
""focus"",""22"",""375403""
""focus"",""29"",""463043""
""focus"",""29"",""473585""
""focus"",""29"",""490703""
","""event"",""trial"",""time""
""fullscreenenter"",""1"",""1908""
","""event"",""trial"",""time""
""fullscreenexit"",""2"",""3615""
","","","-1","","","11","1223","120","&#9761;","elianto","#3366ff99","-1","-1","1","+10","[]","0","0","2","","","","","","","","",""
"pit-trial","37","546971","0.0-2.0-11.1-2.1","battery-v0.2","","""event"",""trial"",""time""
""focus"",""1"",""14""
""fullscreenenter"",""1"",""1908""
""fullscreenexit"",""2"",""3615""
""blur"",""10"",""25534""
""focus"",""10"",""67111""
""blur"",""10"",""83519""
""focus"",""10"",""101326""
""blur"",""22"",""352743""
""focus"",""22"",""352907""
""blur"",""22"",""353550""
""focus"",""22"",""354323""
""blur"",""22"",""358882""
""focus"",""22"",""364877""
""blur"",""22"",""365485""
""focus"",""22"",""375403""
""blur"",""29"",""460857""
""focus"",""29"",""463043""
""blur"",""29"",""464639""
""focus"",""29"",""473585""
""blur"",""29"",""474654""
""focus"",""29"",""490703""
","""event"",""trial"",""time""
""blur"",""10"",""25534""
""blur"",""10"",""83519""
""blur"",""22"",""352743""
""blur"",""22"",""353550""
""blur"",""22"",""358882""
""blur"",""22"",""365485""
""blur"",""29"",""460857""
""blur"",""29"",""464639""
""blur"",""29"",""474654""
","""event"",""trial"",""time""
""focus"",""1"",""14""
""focus"",""10"",""67111""
""focus"",""10"",""101326""
""focus"",""22"",""352907""
""focus"",""22"",""354323""
""focus"",""22"",""364877""
""focus"",""22"",""375403""
""focus"",""29"",""463043""
""focus"",""29"",""473585""
""focus"",""29"",""490703""
","""event"",""trial"",""time""
""fullscreenenter"",""1"",""1908""
","""event"",""trial"",""time""
""fullscreenexit"",""2"",""3615""
","","","-1","","","11","1223","120","&#9761;","elianto","#3366ff99","-1","-1","1","+10","[]","0","0","2","","","","","","","","",""
"pit-trial","38","551826","0.0-2.0-11.1-3.1","battery-v0.2","","""event"",""trial"",""time""
""focus"",""1"",""14""
""fullscreenenter"",""1"",""1908""
""fullscreenexit"",""2"",""3615""
""blur"",""10"",""25534""
""focus"",""10"",""67111""
""blur"",""10"",""83519""
""focus"",""10"",""101326""
""blur"",""22"",""352743""
""focus"",""22"",""352907""
""blur"",""22"",""353550""
""focus"",""22"",""354323""
""blur"",""22"",""358882""
""focus"",""22"",""364877""
""blur"",""22"",""365485""
""focus"",""22"",""375403""
""blur"",""29"",""460857""
""focus"",""29"",""463043""
""blur"",""29"",""464639""
""focus"",""29"",""473585""
""blur"",""29"",""474654""
""focus"",""29"",""490703""
","""event"",""trial"",""time""
""blur"",""10"",""25534""
""blur"",""10"",""83519""
""blur"",""22"",""352743""
""blur"",""22"",""353550""
""blur"",""22"",""358882""
""blur"",""22"",""365485""
""blur"",""29"",""460857""
""blur"",""29"",""464639""
""blur"",""29"",""474654""
","""event"",""trial"",""time""
""focus"",""1"",""14""
""focus"",""10"",""67111""
""focus"",""10"",""101326""
""focus"",""22"",""352907""
""focus"",""22"",""354323""
""focus"",""22"",""364877""
""focus"",""22"",""375403""
""focus"",""29"",""463043""
""focus"",""29"",""473585""
""focus"",""29"",""490703""
","""event"",""trial"",""time""
""fullscreenenter"",""1"",""1908""
","""event"",""trial"",""time""
""fullscreenexit"",""2"",""3615""
","","","-1","","","11","1223","120","&#9761;","elianto","#3366ff99","-1","-1","1","0","[]","0","0","2","","","","","","","","",""
"pit-trial","39","556681","0.0-2.0-11.1-4.1","battery-v0.2","","""event"",""trial"",""time""
""focus"",""1"",""14""
""fullscreenenter"",""1"",""1908""
""fullscreenexit"",""2"",""3615""
""blur"",""10"",""25534""
""focus"",""10"",""67111""
""blur"",""10"",""83519""
""focus"",""10"",""101326""
""blur"",""22"",""352743""
""focus"",""22"",""352907""
""blur"",""22"",""353550""
""focus"",""22"",""354323""
""blur"",""22"",""358882""
""focus"",""22"",""364877""
""blur"",""22"",""365485""
""focus"",""22"",""375403""
""blur"",""29"",""460857""
""focus"",""29"",""463043""
""blur"",""29"",""464639""
""focus"",""29"",""473585""
""blur"",""29"",""474654""
""focus"",""29"",""490703""
","""event"",""trial"",""time""
""blur"",""10"",""25534""
""blur"",""10"",""83519""
""blur"",""22"",""352743""
""blur"",""22"",""353550""
""blur"",""22"",""358882""
""blur"",""22"",""365485""
""blur"",""29"",""460857""
""blur"",""29"",""464639""
""blur"",""29"",""474654""
","""event"",""trial"",""time""
""focus"",""1"",""14""
""focus"",""10"",""67111""
""focus"",""10"",""101326""
""focus"",""22"",""352907""
""focus"",""22"",""354323""
""focus"",""22"",""364877""
""focus"",""22"",""375403""
""focus"",""29"",""463043""
""focus"",""29"",""473585""
""focus"",""29"",""490703""
","""event"",""trial"",""time""
""fullscreenenter"",""1"",""1908""
","""event"",""trial"",""time""
""fullscreenexit"",""2"",""3615""
","","","-1","","","11","1223","120","&#9761;","elianto","#3366ff99","-1","-1","1","+10","[]","0","0","2","","","","","","","","",""
"call-function","40","556683","0.0-2.0-12.0","battery-v0.2","","""event"",""trial"",""time""
""focus"",""1"",""14""
""fullscreenenter"",""1"",""1908""
""fullscreenexit"",""2"",""3615""
""blur"",""10"",""25534""
""focus"",""10"",""67111""
""blur"",""10"",""83519""
""focus"",""10"",""101326""
""blur"",""22"",""352743""
""focus"",""22"",""352907""
""blur"",""22"",""353550""
""focus"",""22"",""354323""
""blur"",""22"",""358882""
""focus"",""22"",""364877""
""blur"",""22"",""365485""
""focus"",""22"",""375403""
""blur"",""29"",""460857""
""focus"",""29"",""463043""
""blur"",""29"",""464639""
""focus"",""29"",""473585""
""blur"",""29"",""474654""
""focus"",""29"",""490703""
","""event"",""trial"",""time""
""blur"",""10"",""25534""
""blur"",""10"",""83519""
""blur"",""22"",""352743""
""blur"",""22"",""353550""
""blur"",""22"",""358882""
""blur"",""22"",""365485""
""blur"",""29"",""460857""
""blur"",""29"",""464639""
""blur"",""29"",""474654""
","""event"",""trial"",""time""
""focus"",""1"",""14""
""focus"",""10"",""67111""
""focus"",""10"",""101326""
""focus"",""22"",""352907""
""focus"",""22"",""354323""
""focus"",""22"",""364877""
""focus"",""22"",""375403""
""focus"",""29"",""463043""
""focus"",""29"",""473585""
""focus"",""29"",""490703""
","""event"",""trial"",""time""
""fullscreenenter"",""1"",""1908""
","""event"",""trial"",""time""
""fullscreenexit"",""2"",""3615""
","","","","","","","","","","","","","","","","","","","","","","","","","","","",""
"pit-instructions","41","606485","0.0-2.0-13.0","battery-v0.2","","""event"",""trial"",""time""
""focus"",""1"",""14""
""fullscreenenter"",""1"",""1908""
""fullscreenexit"",""2"",""3615""
""blur"",""10"",""25534""
""focus"",""10"",""67111""
""blur"",""10"",""83519""
""focus"",""10"",""101326""
""blur"",""22"",""352743""
""focus"",""22"",""352907""
""blur"",""22"",""353550""
""focus"",""22"",""354323""
""blur"",""22"",""358882""
""focus"",""22"",""364877""
""blur"",""22"",""365485""
""focus"",""22"",""375403""
""blur"",""29"",""460857""
""focus"",""29"",""463043""
""blur"",""29"",""464639""
""focus"",""29"",""473585""
""blur"",""29"",""474654""
""focus"",""29"",""490703""
","""event"",""trial"",""time""
""blur"",""10"",""25534""
""blur"",""10"",""83519""
""blur"",""22"",""352743""
""blur"",""22"",""353550""
""blur"",""22"",""358882""
""blur"",""22"",""365485""
""blur"",""29"",""460857""
""blur"",""29"",""464639""
""blur"",""29"",""474654""
","""event"",""trial"",""time""
""focus"",""1"",""14""
""focus"",""10"",""67111""
""focus"",""10"",""101326""
""focus"",""22"",""352907""
""focus"",""22"",""354323""
""focus"",""22"",""364877""
""focus"",""22"",""375403""
""focus"",""29"",""463043""
""focus"",""29"",""473585""
""focus"",""29"",""490703""
","""event"",""trial"",""time""
""fullscreenenter"",""1"",""1908""
","""event"",""trial"",""time""
""fullscreenexit"",""2"",""3615""
","","[{""page_index"":0,""viewing_time"":4848.700000017881},{""page_index"":1,""viewing_time"":7424},{""page_index"":2,""viewing_time"":3792},{""page_index"":3,""viewing_time"":20984},{""page_index"":4,""viewing_time"":12751.90000000596}]","49800.90000000596","","","","","","","","","","","","","","","","","","","","","","","","",""
"pit-trial","42","610365","0.0-2.0-14.0-0.0","battery-v0.2","","""event"",""trial"",""time""
""focus"",""1"",""14""
""fullscreenenter"",""1"",""1908""
""fullscreenexit"",""2"",""3615""
""blur"",""10"",""25534""
""focus"",""10"",""67111""
""blur"",""10"",""83519""
""focus"",""10"",""101326""
""blur"",""22"",""352743""
""focus"",""22"",""352907""
""blur"",""22"",""353550""
""focus"",""22"",""354323""
""blur"",""22"",""358882""
""focus"",""22"",""364877""
""blur"",""22"",""365485""
""focus"",""22"",""375403""
""blur"",""29"",""460857""
""focus"",""29"",""463043""
""blur"",""29"",""464639""
""focus"",""29"",""473585""
""blur"",""29"",""474654""
""focus"",""29"",""490703""
","""event"",""trial"",""time""
""blur"",""10"",""25534""
""blur"",""10"",""83519""
""blur"",""22"",""352743""
""blur"",""22"",""353550""
""blur"",""22"",""358882""
""blur"",""22"",""365485""
""blur"",""29"",""460857""
""blur"",""29"",""464639""
""blur"",""29"",""474654""
","""event"",""trial"",""time""
""focus"",""1"",""14""
""focus"",""10"",""67111""
""focus"",""10"",""101326""
""focus"",""22"",""352907""
""focus"",""22"",""354323""
""focus"",""22"",""364877""
""focus"",""22"",""375403""
""focus"",""29"",""463043""
""focus"",""29"",""473585""
""focus"",""29"",""490703""
","""event"",""trial"",""time""
""fullscreenenter"",""1"",""1908""
","""event"",""trial"",""time""
""fullscreenexit"",""2"",""3615""
","","","1010.5","","","11","1223","120","&#9826;","elianto","#f73b6a7A","-1"," ","0","-10","[1861.4000000059605]","1","0","3","","","","","","","","",""
"pit-trial","43","615236","0.0-2.0-14.0-1.0","battery-v0.2","","""event"",""trial"",""time""
""focus"",""1"",""14""
""fullscreenenter"",""1"",""1908""
""fullscreenexit"",""2"",""3615""
""blur"",""10"",""25534""
""focus"",""10"",""67111""
""blur"",""10"",""83519""
""focus"",""10"",""101326""
""blur"",""22"",""352743""
""focus"",""22"",""352907""
""blur"",""22"",""353550""
""focus"",""22"",""354323""
""blur"",""22"",""358882""
""focus"",""22"",""364877""
""blur"",""22"",""365485""
""focus"",""22"",""375403""
""blur"",""29"",""460857""
""focus"",""29"",""463043""
""blur"",""29"",""464639""
""focus"",""29"",""473585""
""blur"",""29"",""474654""
""focus"",""29"",""490703""
","""event"",""trial"",""time""
""blur"",""10"",""25534""
""blur"",""10"",""83519""
""blur"",""22"",""352743""
""blur"",""22"",""353550""
""blur"",""22"",""358882""
""blur"",""22"",""365485""
""blur"",""29"",""460857""
""blur"",""29"",""464639""
""blur"",""29"",""474654""
","""event"",""trial"",""time""
""focus"",""1"",""14""
""focus"",""10"",""67111""
""focus"",""10"",""101326""
""focus"",""22"",""352907""
""focus"",""22"",""354323""
""focus"",""22"",""364877""
""focus"",""22"",""375403""
""focus"",""29"",""463043""
""focus"",""29"",""473585""
""focus"",""29"",""490703""
","""event"",""trial"",""time""
""fullscreenenter"",""1"",""1908""
","""event"",""trial"",""time""
""fullscreenexit"",""2"",""3615""
","","","-1","","","11","1223","120","&#9826;","elianto","#f73b6a7A","-1","-1","1","0","[]","0","0","3","","","","","","","","",""
"pit-trial","44","620107","0.0-2.0-14.0-2.0","battery-v0.2","","""event"",""trial"",""time""
""focus"",""1"",""14""
""fullscreenenter"",""1"",""1908""
""fullscreenexit"",""2"",""3615""
""blur"",""10"",""25534""
""focus"",""10"",""67111""
""blur"",""10"",""83519""
""focus"",""10"",""101326""
""blur"",""22"",""352743""
""focus"",""22"",""352907""
""blur"",""22"",""353550""
""focus"",""22"",""354323""
""blur"",""22"",""358882""
""focus"",""22"",""364877""
""blur"",""22"",""365485""
""focus"",""22"",""375403""
""blur"",""29"",""460857""
""focus"",""29"",""463043""
""blur"",""29"",""464639""
""focus"",""29"",""473585""
""blur"",""29"",""474654""
""focus"",""29"",""490703""
","""event"",""trial"",""time""
""blur"",""10"",""25534""
""blur"",""10"",""83519""
""blur"",""22"",""352743""
""blur"",""22"",""353550""
""blur"",""22"",""358882""
""blur"",""22"",""365485""
""blur"",""29"",""460857""
""blur"",""29"",""464639""
""blur"",""29"",""474654""
","""event"",""trial"",""time""
""focus"",""1"",""14""
""focus"",""10"",""67111""
""focus"",""10"",""101326""
""focus"",""22"",""352907""
""focus"",""22"",""354323""
""focus"",""22"",""364877""
""focus"",""22"",""375403""
""focus"",""29"",""463043""
""focus"",""29"",""473585""
""focus"",""29"",""490703""
","""event"",""trial"",""time""
""fullscreenenter"",""1"",""1908""
","""event"",""trial"",""time""
""fullscreenexit"",""2"",""3615""
","","","-1","","","11","1223","120","&#9826;","elianto","#f73b6a7A","-1","-1","1","0","[]","0","0","3","","","","","","","","",""
"pit-trial","45","624967","0.0-2.0-14.0-3.0","battery-v0.2","","""event"",""trial"",""time""
""focus"",""1"",""14""
""fullscreenenter"",""1"",""1908""
""fullscreenexit"",""2"",""3615""
""blur"",""10"",""25534""
""focus"",""10"",""67111""
""blur"",""10"",""83519""
""focus"",""10"",""101326""
""blur"",""22"",""352743""
""focus"",""22"",""352907""
""blur"",""22"",""353550""
""focus"",""22"",""354323""
""blur"",""22"",""358882""
""focus"",""22"",""364877""
""blur"",""22"",""365485""
""focus"",""22"",""375403""
""blur"",""29"",""460857""
""focus"",""29"",""463043""
""blur"",""29"",""464639""
""focus"",""29"",""473585""
""blur"",""29"",""474654""
""focus"",""29"",""490703""
","""event"",""trial"",""time""
""blur"",""10"",""25534""
""blur"",""10"",""83519""
""blur"",""22"",""352743""
""blur"",""22"",""353550""
""blur"",""22"",""358882""
""blur"",""22"",""365485""
""blur"",""29"",""460857""
""blur"",""29"",""464639""
""blur"",""29"",""474654""
","""event"",""trial"",""time""
""focus"",""1"",""14""
""focus"",""10"",""67111""
""focus"",""10"",""101326""
""focus"",""22"",""352907""
""focus"",""22"",""354323""
""focus"",""22"",""364877""
""focus"",""22"",""375403""
""focus"",""29"",""463043""
""focus"",""29"",""473585""
""focus"",""29"",""490703""
","""event"",""trial"",""time""
""fullscreenenter"",""1"",""1908""
","""event"",""trial"",""time""
""fullscreenexit"",""2"",""3615""
","","","-1","","","11","1223","120","&#9826;","elianto","#f73b6a7A","-1","-1","1","-10","[]","0","0","3","","","","","","","","",""
"pit-trial","46","629822","0.0-2.0-14.0-4.0","battery-v0.2","","""event"",""trial"",""time""
""focus"",""1"",""14""
""fullscreenenter"",""1"",""1908""
""fullscreenexit"",""2"",""3615""
""blur"",""10"",""25534""
""focus"",""10"",""67111""
""blur"",""10"",""83519""
""focus"",""10"",""101326""
""blur"",""22"",""352743""
""focus"",""22"",""352907""
""blur"",""22"",""353550""
""focus"",""22"",""354323""
""blur"",""22"",""358882""
""focus"",""22"",""364877""
""blur"",""22"",""365485""
""focus"",""22"",""375403""
""blur"",""29"",""460857""
""focus"",""29"",""463043""
""blur"",""29"",""464639""
""focus"",""29"",""473585""
""blur"",""29"",""474654""
""focus"",""29"",""490703""
","""event"",""trial"",""time""
""blur"",""10"",""25534""
""blur"",""10"",""83519""
""blur"",""22"",""352743""
""blur"",""22"",""353550""
""blur"",""22"",""358882""
""blur"",""22"",""365485""
""blur"",""29"",""460857""
""blur"",""29"",""464639""
""blur"",""29"",""474654""
","""event"",""trial"",""time""
""focus"",""1"",""14""
""focus"",""10"",""67111""
""focus"",""10"",""101326""
""focus"",""22"",""352907""
""focus"",""22"",""354323""
""focus"",""22"",""364877""
""focus"",""22"",""375403""
""focus"",""29"",""463043""
""focus"",""29"",""473585""
""focus"",""29"",""490703""
","""event"",""trial"",""time""
""fullscreenenter"",""1"",""1908""
","""event"",""trial"",""time""
""fullscreenexit"",""2"",""3615""
","","","-1","","","11","1223","120","&#9826;","elianto","#f73b6a7A","-1","-1","1","0","[]","0","0","3","","","","","","","","",""
"call-function","47","629825","0.0-2.0-15.0","battery-v0.2","","""event"",""trial"",""time""
""focus"",""1"",""14""
""fullscreenenter"",""1"",""1908""
""fullscreenexit"",""2"",""3615""
""blur"",""10"",""25534""
""focus"",""10"",""67111""
""blur"",""10"",""83519""
""focus"",""10"",""101326""
""blur"",""22"",""352743""
""focus"",""22"",""352907""
""blur"",""22"",""353550""
""focus"",""22"",""354323""
""blur"",""22"",""358882""
""focus"",""22"",""364877""
""blur"",""22"",""365485""
""focus"",""22"",""375403""
""blur"",""29"",""460857""
""focus"",""29"",""463043""
""blur"",""29"",""464639""
""focus"",""29"",""473585""
""blur"",""29"",""474654""
""focus"",""29"",""490703""
","""event"",""trial"",""time""
""blur"",""10"",""25534""
""blur"",""10"",""83519""
""blur"",""22"",""352743""
""blur"",""22"",""353550""
""blur"",""22"",""358882""
""blur"",""22"",""365485""
""blur"",""29"",""460857""
""blur"",""29"",""464639""
""blur"",""29"",""474654""
","""event"",""trial"",""time""
""focus"",""1"",""14""
""focus"",""10"",""67111""
""focus"",""10"",""101326""
""focus"",""22"",""352907""
""focus"",""22"",""354323""
""focus"",""22"",""364877""
""focus"",""22"",""375403""
""focus"",""29"",""463043""
""focus"",""29"",""473585""
""focus"",""29"",""490703""
","""event"",""trial"",""time""
""fullscreenenter"",""1"",""1908""
","""event"",""trial"",""time""
""fullscreenexit"",""2"",""3615""
","","","","","","","","","","","","","","","","","","","","","","","","","","","",""
"pit-instructions","48","662293","0.0-2.0-16.0","battery-v0.2","","""event"",""trial"",""time""
""focus"",""1"",""14""
""fullscreenenter"",""1"",""1908""
""fullscreenexit"",""2"",""3615""
""blur"",""10"",""25534""
""focus"",""10"",""67111""
""blur"",""10"",""83519""
""focus"",""10"",""101326""
""blur"",""22"",""352743""
""focus"",""22"",""352907""
""blur"",""22"",""353550""
""focus"",""22"",""354323""
""blur"",""22"",""358882""
""focus"",""22"",""364877""
""blur"",""22"",""365485""
""focus"",""22"",""375403""
""blur"",""29"",""460857""
""focus"",""29"",""463043""
""blur"",""29"",""464639""
""focus"",""29"",""473585""
""blur"",""29"",""474654""
""focus"",""29"",""490703""
","""event"",""trial"",""time""
""blur"",""10"",""25534""
""blur"",""10"",""83519""
""blur"",""22"",""352743""
""blur"",""22"",""353550""
""blur"",""22"",""358882""
""blur"",""22"",""365485""
""blur"",""29"",""460857""
""blur"",""29"",""464639""
""blur"",""29"",""474654""
","""event"",""trial"",""time""
""focus"",""1"",""14""
""focus"",""10"",""67111""
""focus"",""10"",""101326""
""focus"",""22"",""352907""
""focus"",""22"",""354323""
""focus"",""22"",""364877""
""focus"",""22"",""375403""
""focus"",""29"",""463043""
""focus"",""29"",""473585""
""focus"",""29"",""490703""
","""event"",""trial"",""time""
""fullscreenenter"",""1"",""1908""
","""event"",""trial"",""time""
""fullscreenexit"",""2"",""3615""
","","[{""page_index"":0,""viewing_time"":8699.800000011921},{""page_index"":1,""viewing_time"":12575.799999982119},{""page_index"":2,""viewing_time"":7000},{""page_index"":3,""viewing_time"":4192.100000023842}]","32467.80000001192","","","","","","","","","","","","","","","","","","","","","","","","",""
"pit-trial","49","665680","0.0-2.0-17.0-0.0","battery-v0.2","","""event"",""trial"",""time""
""focus"",""1"",""14""
""fullscreenenter"",""1"",""1908""
""fullscreenexit"",""2"",""3615""
""blur"",""10"",""25534""
""focus"",""10"",""67111""
""blur"",""10"",""83519""
""focus"",""10"",""101326""
""blur"",""22"",""352743""
""focus"",""22"",""352907""
""blur"",""22"",""353550""
""focus"",""22"",""354323""
""blur"",""22"",""358882""
""focus"",""22"",""364877""
""blur"",""22"",""365485""
""focus"",""22"",""375403""
""blur"",""29"",""460857""
""focus"",""29"",""463043""
""blur"",""29"",""464639""
""focus"",""29"",""473585""
""blur"",""29"",""474654""
""focus"",""29"",""490703""
","""event"",""trial"",""time""
""blur"",""10"",""25534""
""blur"",""10"",""83519""
""blur"",""22"",""352743""
""blur"",""22"",""353550""
""blur"",""22"",""358882""
""blur"",""22"",""365485""
""blur"",""29"",""460857""
""blur"",""29"",""464639""
""blur"",""29"",""474654""
","""event"",""trial"",""time""
""focus"",""1"",""14""
""focus"",""10"",""67111""
""focus"",""10"",""101326""
""focus"",""22"",""352907""
""focus"",""22"",""354323""
""focus"",""22"",""364877""
""focus"",""22"",""375403""
""focus"",""29"",""463043""
""focus"",""29"",""473585""
""focus"",""29"",""490703""
","""event"",""trial"",""time""
""fullscreenenter"",""1"",""1908""
","""event"",""trial"",""time""
""fullscreenexit"",""2"",""3615""
","","","523.4000000059605","","","11","1223","120","&#9789;","elianto","#f73b6a7A"," "," ","1","0","[1373.7000000178814]","1","0","4","","","","","","","","",""
"pit-trial","50","668971","0.0-2.0-17.0-1.0","battery-v0.2","","""event"",""trial"",""time""
""focus"",""1"",""14""
""fullscreenenter"",""1"",""1908""
""fullscreenexit"",""2"",""3615""
""blur"",""10"",""25534""
""focus"",""10"",""67111""
""blur"",""10"",""83519""
""focus"",""10"",""101326""
""blur"",""22"",""352743""
""focus"",""22"",""352907""
""blur"",""22"",""353550""
""focus"",""22"",""354323""
""blur"",""22"",""358882""
""focus"",""22"",""364877""
""blur"",""22"",""365485""
""focus"",""22"",""375403""
""blur"",""29"",""460857""
""focus"",""29"",""463043""
""blur"",""29"",""464639""
""focus"",""29"",""473585""
""blur"",""29"",""474654""
""focus"",""29"",""490703""
","""event"",""trial"",""time""
""blur"",""10"",""25534""
""blur"",""10"",""83519""
""blur"",""22"",""352743""
""blur"",""22"",""353550""
""blur"",""22"",""358882""
""blur"",""22"",""365485""
""blur"",""29"",""460857""
""blur"",""29"",""464639""
""blur"",""29"",""474654""
","""event"",""trial"",""time""
""focus"",""1"",""14""
""focus"",""10"",""67111""
""focus"",""10"",""101326""
""focus"",""22"",""352907""
""focus"",""22"",""354323""
""focus"",""22"",""364877""
""focus"",""22"",""375403""
""focus"",""29"",""463043""
""focus"",""29"",""473585""
""focus"",""29"",""490703""
","""event"",""trial"",""time""
""fullscreenenter"",""1"",""1908""
","""event"",""trial"",""time""
""fullscreenexit"",""2"",""3615""
","","","431.40000000596046","","","11","1223","120","&#9789;","elianto","#f73b6a7A"," "," ","1","0","[1281.5,2377.5,2633.399999976158,2889.399999976158,3121.5999999940395]","5","0","4","","","","","","","","",""
"pit-trial","51","672033","0.0-2.0-17.0-2.0","battery-v0.2","","""event"",""trial"",""time""
""focus"",""1"",""14""
""fullscreenenter"",""1"",""1908""
""fullscreenexit"",""2"",""3615""
""blur"",""10"",""25534""
""focus"",""10"",""67111""
""blur"",""10"",""83519""
""focus"",""10"",""101326""
""blur"",""22"",""352743""
""focus"",""22"",""352907""
""blur"",""22"",""353550""
""focus"",""22"",""354323""
""blur"",""22"",""358882""
""focus"",""22"",""364877""
""blur"",""22"",""365485""
""focus"",""22"",""375403""
""blur"",""29"",""460857""
""focus"",""29"",""463043""
""blur"",""29"",""464639""
""focus"",""29"",""473585""
""blur"",""29"",""474654""
""focus"",""29"",""490703""
","""event"",""trial"",""time""
""blur"",""10"",""25534""
""blur"",""10"",""83519""
""blur"",""22"",""352743""
""blur"",""22"",""353550""
""blur"",""22"",""358882""
""blur"",""22"",""365485""
""blur"",""29"",""460857""
""blur"",""29"",""464639""
""blur"",""29"",""474654""
","""event"",""trial"",""time""
""focus"",""1"",""14""
""focus"",""10"",""67111""
""focus"",""10"",""101326""
""focus"",""22"",""352907""
""focus"",""22"",""354323""
""focus"",""22"",""364877""
""focus"",""22"",""375403""
""focus"",""29"",""463043""
""focus"",""29"",""473585""
""focus"",""29"",""490703""
","""event"",""trial"",""time""
""fullscreenenter"",""1"",""1908""
","""event"",""trial"",""time""
""fullscreenexit"",""2"",""3615""
","","","204.60000002384186","","","11","1223","120","&#9789;","elianto","#f73b6a7A"," "," ","1","0","[1054.9000000059605]","1","0","4","","","","","","","","",""
"pit-trial","52","674988","0.0-2.0-17.0-3.0","battery-v0.2","","""event"",""trial"",""time""
""focus"",""1"",""14""
""fullscreenenter"",""1"",""1908""
""fullscreenexit"",""2"",""3615""
""blur"",""10"",""25534""
""focus"",""10"",""67111""
""blur"",""10"",""83519""
""focus"",""10"",""101326""
""blur"",""22"",""352743""
""focus"",""22"",""352907""
""blur"",""22"",""353550""
""focus"",""22"",""354323""
""blur"",""22"",""358882""
""focus"",""22"",""364877""
""blur"",""22"",""365485""
""focus"",""22"",""375403""
""blur"",""29"",""460857""
""focus"",""29"",""463043""
""blur"",""29"",""464639""
""focus"",""29"",""473585""
""blur"",""29"",""474654""
""focus"",""29"",""490703""
","""event"",""trial"",""time""
""blur"",""10"",""25534""
""blur"",""10"",""83519""
""blur"",""22"",""352743""
""blur"",""22"",""353550""
""blur"",""22"",""358882""
""blur"",""22"",""365485""
""blur"",""29"",""460857""
""blur"",""29"",""464639""
""blur"",""29"",""474654""
","""event"",""trial"",""time""
""focus"",""1"",""14""
""focus"",""10"",""67111""
""focus"",""10"",""101326""
""focus"",""22"",""352907""
""focus"",""22"",""354323""
""focus"",""22"",""364877""
""focus"",""22"",""375403""
""focus"",""29"",""463043""
""focus"",""29"",""473585""
""focus"",""29"",""490703""
","""event"",""trial"",""time""
""fullscreenenter"",""1"",""1908""
","""event"",""trial"",""time""
""fullscreenexit"",""2"",""3615""
","","","87","","","11","1223","120","&#9789;","elianto","#f73b6a7A"," "," ","1","-10","[937.2000000178814]","1","0","4","","","","","","","","",""
"pit-trial","53","678116","0.0-2.0-17.0-4.0","battery-v0.2","","""event"",""trial"",""time""
""focus"",""1"",""14""
""fullscreenenter"",""1"",""1908""
""fullscreenexit"",""2"",""3615""
""blur"",""10"",""25534""
""focus"",""10"",""67111""
""blur"",""10"",""83519""
""focus"",""10"",""101326""
""blur"",""22"",""352743""
""focus"",""22"",""352907""
""blur"",""22"",""353550""
""focus"",""22"",""354323""
""blur"",""22"",""358882""
""focus"",""22"",""364877""
""blur"",""22"",""365485""
""focus"",""22"",""375403""
""blur"",""29"",""460857""
""focus"",""29"",""463043""
""blur"",""29"",""464639""
""focus"",""29"",""473585""
""blur"",""29"",""474654""
""focus"",""29"",""490703""
","""event"",""trial"",""time""
""blur"",""10"",""25534""
""blur"",""10"",""83519""
""blur"",""22"",""352743""
""blur"",""22"",""353550""
""blur"",""22"",""358882""
""blur"",""22"",""365485""
""blur"",""29"",""460857""
""blur"",""29"",""464639""
""blur"",""29"",""474654""
","""event"",""trial"",""time""
""focus"",""1"",""14""
""focus"",""10"",""67111""
""focus"",""10"",""101326""
""focus"",""22"",""352907""
""focus"",""22"",""354323""
""focus"",""22"",""364877""
""focus"",""22"",""375403""
""focus"",""29"",""463043""
""focus"",""29"",""473585""
""focus"",""29"",""490703""
","""event"",""trial"",""time""
""fullscreenenter"",""1"",""1908""
","""event"",""trial"",""time""
""fullscreenexit"",""2"",""3615""
","","","259.5","","","11","1223","120","&#9789;","elianto","#f73b6a7A"," "," ","1","0","[1110.300000011921]","1","0","4","","","","","","","","",""
"call-function","54","678118","0.0-2.0-18.0","battery-v0.2","","""event"",""trial"",""time""
""focus"",""1"",""14""
""fullscreenenter"",""1"",""1908""
""fullscreenexit"",""2"",""3615""
""blur"",""10"",""25534""
""focus"",""10"",""67111""
""blur"",""10"",""83519""
""focus"",""10"",""101326""
""blur"",""22"",""352743""
""focus"",""22"",""352907""
""blur"",""22"",""353550""
""focus"",""22"",""354323""
""blur"",""22"",""358882""
""focus"",""22"",""364877""
""blur"",""22"",""365485""
""focus"",""22"",""375403""
""blur"",""29"",""460857""
""focus"",""29"",""463043""
""blur"",""29"",""464639""
""focus"",""29"",""473585""
""blur"",""29"",""474654""
""focus"",""29"",""490703""
""blur"",""55"",""745374""
""focus"",""55"",""753303""
""blur"",""55"",""754501""
""focus"",""55"",""757167""
","""event"",""trial"",""time""
""blur"",""10"",""25534""
""blur"",""10"",""83519""
""blur"",""22"",""352743""
""blur"",""22"",""353550""
""blur"",""22"",""358882""
""blur"",""22"",""365485""
""blur"",""29"",""460857""
""blur"",""29"",""464639""
""blur"",""29"",""474654""
""blur"",""55"",""745374""
""blur"",""55"",""754501""
","""event"",""trial"",""time""
""focus"",""1"",""14""
""focus"",""10"",""67111""
""focus"",""10"",""101326""
""focus"",""22"",""352907""
""focus"",""22"",""354323""
""focus"",""22"",""364877""
""focus"",""22"",""375403""
""focus"",""29"",""463043""
""focus"",""29"",""473585""
""focus"",""29"",""490703""
""focus"",""55"",""753303""
""focus"",""55"",""757167""
","""event"",""trial"",""time""
""fullscreenenter"",""1"",""1908""
","""event"",""trial"",""time""
""fullscreenexit"",""2"",""3615""
","","","","","","","","","","","","","","","","","","","","","","","","","","","",""
"pit-instructions","55","757413","0.0-2.0-19.0","battery-v0.2","","""event"",""trial"",""time""
""focus"",""1"",""14""
""fullscreenenter"",""1"",""1908""
""fullscreenexit"",""2"",""3615""
""blur"",""10"",""25534""
""focus"",""10"",""67111""
""blur"",""10"",""83519""
""focus"",""10"",""101326""
""blur"",""22"",""352743""
""focus"",""22"",""352907""
""blur"",""22"",""353550""
""focus"",""22"",""354323""
""blur"",""22"",""358882""
""focus"",""22"",""364877""
""blur"",""22"",""365485""
""focus"",""22"",""375403""
""blur"",""29"",""460857""
""focus"",""29"",""463043""
""blur"",""29"",""464639""
""focus"",""29"",""473585""
""blur"",""29"",""474654""
""focus"",""29"",""490703""
""blur"",""55"",""745374""
""focus"",""55"",""753303""
""blur"",""55"",""754501""
""focus"",""55"",""757167""
","""event"",""trial"",""time""
""blur"",""10"",""25534""
""blur"",""10"",""83519""
""blur"",""22"",""352743""
""blur"",""22"",""353550""
""blur"",""22"",""358882""
""blur"",""22"",""365485""
""blur"",""29"",""460857""
""blur"",""29"",""464639""
""blur"",""29"",""474654""
""blur"",""55"",""745374""
""blur"",""55"",""754501""
","""event"",""trial"",""time""
""focus"",""1"",""14""
""focus"",""10"",""67111""
""focus"",""10"",""101326""
""focus"",""22"",""352907""
""focus"",""22"",""354323""
""focus"",""22"",""364877""
""focus"",""22"",""375403""
""focus"",""29"",""463043""
""focus"",""29"",""473585""
""focus"",""29"",""490703""
""focus"",""55"",""753303""
""focus"",""55"",""757167""
","""event"",""trial"",""time""
""fullscreenenter"",""1"",""1908""
","""event"",""trial"",""time""
""fullscreenexit"",""2"",""3615""
","","[{""page_index"":0,""viewing_time"":12758.100000023842},{""page_index"":1,""viewing_time"":6704},{""page_index"":2,""viewing_time"":12879.899999976158},{""page_index"":3,""viewing_time"":6696},{""page_index"":4,""viewing_time"":8592.100000023842},{""page_index"":5,""viewing_time"":8048.399999976158},{""page_index"":6,""viewing_time"":9535.5},{""page_index"":7,""viewing_time"":10007.90000000596},{""page_index"":8,""viewing_time"":4072.0999999940395}]","79294.30000001192","","","","","","","","","","","","","","","","","","","","","","","","",""
"pit-comprehension","56","761957","0.0-2.0-20.0-0.0","battery-v0.2","","""event"",""trial"",""time""
""focus"",""1"",""14""
""fullscreenenter"",""1"",""1908""
""fullscreenexit"",""2"",""3615""
""blur"",""10"",""25534""
""focus"",""10"",""67111""
""blur"",""10"",""83519""
""focus"",""10"",""101326""
""blur"",""22"",""352743""
""focus"",""22"",""352907""
""blur"",""22"",""353550""
""focus"",""22"",""354323""
""blur"",""22"",""358882""
""focus"",""22"",""364877""
""blur"",""22"",""365485""
""focus"",""22"",""375403""
""blur"",""29"",""460857""
""focus"",""29"",""463043""
""blur"",""29"",""464639""
""focus"",""29"",""473585""
""blur"",""29"",""474654""
""focus"",""29"",""490703""
""blur"",""55"",""745374""
""focus"",""55"",""753303""
""blur"",""55"",""754501""
""focus"",""55"",""757167""
","""event"",""trial"",""time""
""blur"",""10"",""25534""
""blur"",""10"",""83519""
""blur"",""22"",""352743""
""blur"",""22"",""353550""
""blur"",""22"",""358882""
""blur"",""22"",""365485""
""blur"",""29"",""460857""
""blur"",""29"",""464639""
""blur"",""29"",""474654""
""blur"",""55"",""745374""
""blur"",""55"",""754501""
","""event"",""trial"",""time""
""focus"",""1"",""14""
""focus"",""10"",""67111""
""focus"",""10"",""101326""
""focus"",""22"",""352907""
""focus"",""22"",""354323""
""focus"",""22"",""364877""
""focus"",""22"",""375403""
""focus"",""29"",""463043""
""focus"",""29"",""473585""
""focus"",""29"",""490703""
""focus"",""55"",""753303""
""focus"",""55"",""757167""
","""event"",""trial"",""time""
""fullscreenenter"",""1"",""1908""
","""event"",""trial"",""time""
""fullscreenexit"",""2"",""3615""
","","","4540.800000011921","[""SPACE""]","0","11","1223","120","","","","","","","","","","","","","","","","","","","",""
"pit-instructions","57","764557","0.0-2.0-20.0-1.0","battery-v0.2","","""event"",""trial"",""time""
""focus"",""1"",""14""
""fullscreenenter"",""1"",""1908""
""fullscreenexit"",""2"",""3615""
""blur"",""10"",""25534""
""focus"",""10"",""67111""
""blur"",""10"",""83519""
""focus"",""10"",""101326""
""blur"",""22"",""352743""
""focus"",""22"",""352907""
""blur"",""22"",""353550""
""focus"",""22"",""354323""
""blur"",""22"",""358882""
""focus"",""22"",""364877""
""blur"",""22"",""365485""
""focus"",""22"",""375403""
""blur"",""29"",""460857""
""focus"",""29"",""463043""
""blur"",""29"",""464639""
""focus"",""29"",""473585""
""blur"",""29"",""474654""
""focus"",""29"",""490703""
""blur"",""55"",""745374""
""focus"",""55"",""753303""
""blur"",""55"",""754501""
""focus"",""55"",""757167""
","""event"",""trial"",""time""
""blur"",""10"",""25534""
""blur"",""10"",""83519""
""blur"",""22"",""352743""
""blur"",""22"",""353550""
""blur"",""22"",""358882""
""blur"",""22"",""365485""
""blur"",""29"",""460857""
""blur"",""29"",""464639""
""blur"",""29"",""474654""
""blur"",""55"",""745374""
""blur"",""55"",""754501""
","""event"",""trial"",""time""
""focus"",""1"",""14""
""focus"",""10"",""67111""
""focus"",""10"",""101326""
""focus"",""22"",""352907""
""focus"",""22"",""354323""
""focus"",""22"",""364877""
""focus"",""22"",""375403""
""focus"",""29"",""463043""
""focus"",""29"",""473585""
""focus"",""29"",""490703""
""focus"",""55"",""753303""
""focus"",""55"",""757167""
","""event"",""trial"",""time""
""fullscreenenter"",""1"",""1908""
","""event"",""trial"",""time""
""fullscreenexit"",""2"",""3615""
","","[{""page_index"":0,""viewing_time"":2576.0999999940395}]","2576.4000000059605","","","","","","","","","","","","","","","","","","","","","","","","",""
"pit-comprehension","58","769277","0.0-2.0-21.0-0.0","battery-v0.2","","""event"",""trial"",""time""
""focus"",""1"",""14""
""fullscreenenter"",""1"",""1908""
""fullscreenexit"",""2"",""3615""
""blur"",""10"",""25534""
""focus"",""10"",""67111""
""blur"",""10"",""83519""
""focus"",""10"",""101326""
""blur"",""22"",""352743""
""focus"",""22"",""352907""
""blur"",""22"",""353550""
""focus"",""22"",""354323""
""blur"",""22"",""358882""
""focus"",""22"",""364877""
""blur"",""22"",""365485""
""focus"",""22"",""375403""
""blur"",""29"",""460857""
""focus"",""29"",""463043""
""blur"",""29"",""464639""
""focus"",""29"",""473585""
""blur"",""29"",""474654""
""focus"",""29"",""490703""
""blur"",""55"",""745374""
""focus"",""55"",""753303""
""blur"",""55"",""754501""
""focus"",""55"",""757167""
","""event"",""trial"",""time""
""blur"",""10"",""25534""
""blur"",""10"",""83519""
""blur"",""22"",""352743""
""blur"",""22"",""353550""
""blur"",""22"",""358882""
""blur"",""22"",""365485""
""blur"",""29"",""460857""
""blur"",""29"",""464639""
""blur"",""29"",""474654""
""blur"",""55"",""745374""
""blur"",""55"",""754501""
","""event"",""trial"",""time""
""focus"",""1"",""14""
""focus"",""10"",""67111""
""focus"",""10"",""101326""
""focus"",""22"",""352907""
""focus"",""22"",""354323""
""focus"",""22"",""364877""
""focus"",""22"",""375403""
""focus"",""29"",""463043""
""focus"",""29"",""473585""
""focus"",""29"",""490703""
""focus"",""55"",""753303""
""focus"",""55"",""757167""
","""event"",""trial"",""time""
""fullscreenenter"",""1"",""1908""
","""event"",""trial"",""time""
""fullscreenexit"",""2"",""3615""
","","","4716.700000017881","[""10""]","0","11","1223","120","","","","","","","","","","","","","","","","","","","",""
"pit-instructions","59","770917","0.0-2.0-21.0-1.0","battery-v0.2","","""event"",""trial"",""time""
""focus"",""1"",""14""
""fullscreenenter"",""1"",""1908""
""fullscreenexit"",""2"",""3615""
""blur"",""10"",""25534""
""focus"",""10"",""67111""
""blur"",""10"",""83519""
""focus"",""10"",""101326""
""blur"",""22"",""352743""
""focus"",""22"",""352907""
""blur"",""22"",""353550""
""focus"",""22"",""354323""
""blur"",""22"",""358882""
""focus"",""22"",""364877""
""blur"",""22"",""365485""
""focus"",""22"",""375403""
""blur"",""29"",""460857""
""focus"",""29"",""463043""
""blur"",""29"",""464639""
""focus"",""29"",""473585""
""blur"",""29"",""474654""
""focus"",""29"",""490703""
""blur"",""55"",""745374""
""focus"",""55"",""753303""
""blur"",""55"",""754501""
""focus"",""55"",""757167""
","""event"",""trial"",""time""
""blur"",""10"",""25534""
""blur"",""10"",""83519""
""blur"",""22"",""352743""
""blur"",""22"",""353550""
""blur"",""22"",""358882""
""blur"",""22"",""365485""
""blur"",""29"",""460857""
""blur"",""29"",""464639""
""blur"",""29"",""474654""
""blur"",""55"",""745374""
""blur"",""55"",""754501""
","""event"",""trial"",""time""
""focus"",""1"",""14""
""focus"",""10"",""67111""
""focus"",""10"",""101326""
""focus"",""22"",""352907""
""focus"",""22"",""354323""
""focus"",""22"",""364877""
""focus"",""22"",""375403""
""focus"",""29"",""463043""
""focus"",""29"",""473585""
""focus"",""29"",""490703""
""focus"",""55"",""753303""
""focus"",""55"",""757167""
","""event"",""trial"",""time""
""fullscreenenter"",""1"",""1908""
","""event"",""trial"",""time""
""fullscreenexit"",""2"",""3615""
","","[{""page_index"":0,""viewing_time"":1616.699999988079}]","1616.800000011921","","","","","","","","","","","","","","","","","","","","","","","","",""
"pit-comprehension","60","777493","0.0-2.0-22.0-0.0","battery-v0.2","","""event"",""trial"",""time""
""focus"",""1"",""14""
""fullscreenenter"",""1"",""1908""
""fullscreenexit"",""2"",""3615""
""blur"",""10"",""25534""
""focus"",""10"",""67111""
""blur"",""10"",""83519""
""focus"",""10"",""101326""
""blur"",""22"",""352743""
""focus"",""22"",""352907""
""blur"",""22"",""353550""
""focus"",""22"",""354323""
""blur"",""22"",""358882""
""focus"",""22"",""364877""
""blur"",""22"",""365485""
""focus"",""22"",""375403""
""blur"",""29"",""460857""
""focus"",""29"",""463043""
""blur"",""29"",""464639""
""focus"",""29"",""473585""
""blur"",""29"",""474654""
""focus"",""29"",""490703""
""blur"",""55"",""745374""
""focus"",""55"",""753303""
""blur"",""55"",""754501""
""focus"",""55"",""757167""
","""event"",""trial"",""time""
""blur"",""10"",""25534""
""blur"",""10"",""83519""
""blur"",""22"",""352743""
""blur"",""22"",""353550""
""blur"",""22"",""358882""
""blur"",""22"",""365485""
""blur"",""29"",""460857""
""blur"",""29"",""464639""
""blur"",""29"",""474654""
""blur"",""55"",""745374""
""blur"",""55"",""754501""
","""event"",""trial"",""time""
""focus"",""1"",""14""
""focus"",""10"",""67111""
""focus"",""10"",""101326""
""focus"",""22"",""352907""
""focus"",""22"",""354323""
""focus"",""22"",""364877""
""focus"",""22"",""375403""
""focus"",""29"",""463043""
""focus"",""29"",""473585""
""focus"",""29"",""490703""
""focus"",""55"",""753303""
""focus"",""55"",""757167""
","""event"",""trial"",""time""
""fullscreenenter"",""1"",""1908""
","""event"",""trial"",""time""
""fullscreenexit"",""2"",""3615""
","","","6573","[""0""]","0","11","1223","120","","","","","","","","","","","","","","","","","","","",""
"pit-instructions","61","779476","0.0-2.0-22.0-1.0","battery-v0.2","","""event"",""trial"",""time""
""focus"",""1"",""14""
""fullscreenenter"",""1"",""1908""
""fullscreenexit"",""2"",""3615""
""blur"",""10"",""25534""
""focus"",""10"",""67111""
""blur"",""10"",""83519""
""focus"",""10"",""101326""
""blur"",""22"",""352743""
""focus"",""22"",""352907""
""blur"",""22"",""353550""
""focus"",""22"",""354323""
""blur"",""22"",""358882""
""focus"",""22"",""364877""
""blur"",""22"",""365485""
""focus"",""22"",""375403""
""blur"",""29"",""460857""
""focus"",""29"",""463043""
""blur"",""29"",""464639""
""focus"",""29"",""473585""
""blur"",""29"",""474654""
""focus"",""29"",""490703""
""blur"",""55"",""745374""
""focus"",""55"",""753303""
""blur"",""55"",""754501""
""focus"",""55"",""757167""
","""event"",""trial"",""time""
""blur"",""10"",""25534""
""blur"",""10"",""83519""
""blur"",""22"",""352743""
""blur"",""22"",""353550""
""blur"",""22"",""358882""
""blur"",""22"",""365485""
""blur"",""29"",""460857""
""blur"",""29"",""464639""
""blur"",""29"",""474654""
""blur"",""55"",""745374""
""blur"",""55"",""754501""
","""event"",""trial"",""time""
""focus"",""1"",""14""
""focus"",""10"",""67111""
""focus"",""10"",""101326""
""focus"",""22"",""352907""
""focus"",""22"",""354323""
""focus"",""22"",""364877""
""focus"",""22"",""375403""
""focus"",""29"",""463043""
""focus"",""29"",""473585""
""focus"",""29"",""490703""
""focus"",""55"",""753303""
""focus"",""55"",""757167""
","""event"",""trial"",""time""
""fullscreenenter"",""1"",""1908""
","""event"",""trial"",""time""
""fullscreenexit"",""2"",""3615""
","","[{""page_index"":0,""viewing_time"":1960.2999999821186}]","1960.5","","","","","","","","","","","","","","","","","","","","","","","","",""
"pit-comprehension","62","788221","0.0-2.0-23.0-0.0","battery-v0.2","","""event"",""trial"",""time""
""focus"",""1"",""14""
""fullscreenenter"",""1"",""1908""
""fullscreenexit"",""2"",""3615""
""blur"",""10"",""25534""
""focus"",""10"",""67111""
""blur"",""10"",""83519""
""focus"",""10"",""101326""
""blur"",""22"",""352743""
""focus"",""22"",""352907""
""blur"",""22"",""353550""
""focus"",""22"",""354323""
""blur"",""22"",""358882""
""focus"",""22"",""364877""
""blur"",""22"",""365485""
""focus"",""22"",""375403""
""blur"",""29"",""460857""
""focus"",""29"",""463043""
""blur"",""29"",""464639""
""focus"",""29"",""473585""
""blur"",""29"",""474654""
""focus"",""29"",""490703""
""blur"",""55"",""745374""
""focus"",""55"",""753303""
""blur"",""55"",""754501""
""focus"",""55"",""757167""
","""event"",""trial"",""time""
""blur"",""10"",""25534""
""blur"",""10"",""83519""
""blur"",""22"",""352743""
""blur"",""22"",""353550""
""blur"",""22"",""358882""
""blur"",""22"",""365485""
""blur"",""29"",""460857""
""blur"",""29"",""464639""
""blur"",""29"",""474654""
""blur"",""55"",""745374""
""blur"",""55"",""754501""
","""event"",""trial"",""time""
""focus"",""1"",""14""
""focus"",""10"",""67111""
""focus"",""10"",""101326""
""focus"",""22"",""352907""
""focus"",""22"",""354323""
""focus"",""22"",""364877""
""focus"",""22"",""375403""
""focus"",""29"",""463043""
""focus"",""29"",""473585""
""focus"",""29"",""490703""
""focus"",""55"",""753303""
""focus"",""55"",""757167""
","""event"",""trial"",""time""
""fullscreenenter"",""1"",""1908""
","""event"",""trial"",""time""
""fullscreenexit"",""2"",""3615""
","","","8741.199999988079","[""True""]","0","11","1223","120","","","","","","","","","","","","","","","","","","","",""
"pit-instructions","63","789668","0.0-2.0-23.0-1.0","battery-v0.2","","""event"",""trial"",""time""
""focus"",""1"",""14""
""fullscreenenter"",""1"",""1908""
""fullscreenexit"",""2"",""3615""
""blur"",""10"",""25534""
""focus"",""10"",""67111""
""blur"",""10"",""83519""
""focus"",""10"",""101326""
""blur"",""22"",""352743""
""focus"",""22"",""352907""
""blur"",""22"",""353550""
""focus"",""22"",""354323""
""blur"",""22"",""358882""
""focus"",""22"",""364877""
""blur"",""22"",""365485""
""focus"",""22"",""375403""
""blur"",""29"",""460857""
""focus"",""29"",""463043""
""blur"",""29"",""464639""
""focus"",""29"",""473585""
""blur"",""29"",""474654""
""focus"",""29"",""490703""
""blur"",""55"",""745374""
""focus"",""55"",""753303""
""blur"",""55"",""754501""
""focus"",""55"",""757167""
","""event"",""trial"",""time""
""blur"",""10"",""25534""
""blur"",""10"",""83519""
""blur"",""22"",""352743""
""blur"",""22"",""353550""
""blur"",""22"",""358882""
""blur"",""22"",""365485""
""blur"",""29"",""460857""
""blur"",""29"",""464639""
""blur"",""29"",""474654""
""blur"",""55"",""745374""
""blur"",""55"",""754501""
","""event"",""trial"",""time""
""focus"",""1"",""14""
""focus"",""10"",""67111""
""focus"",""10"",""101326""
""focus"",""22"",""352907""
""focus"",""22"",""354323""
""focus"",""22"",""364877""
""focus"",""22"",""375403""
""focus"",""29"",""463043""
""focus"",""29"",""473585""
""focus"",""29"",""490703""
""focus"",""55"",""753303""
""focus"",""55"",""757167""
","""event"",""trial"",""time""
""fullscreenenter"",""1"",""1908""
","""event"",""trial"",""time""
""fullscreenexit"",""2"",""3615""
","","[{""page_index"":0,""viewing_time"":1423.199999988079}]","1423.3999999761581","","","","","","","","","","","","","","","","","","","","","","","","",""
"pit-comprehension","64","796981","0.0-2.0-24.0-0.0","battery-v0.2","","""event"",""trial"",""time""
""focus"",""1"",""14""
""fullscreenenter"",""1"",""1908""
""fullscreenexit"",""2"",""3615""
""blur"",""10"",""25534""
""focus"",""10"",""67111""
""blur"",""10"",""83519""
""focus"",""10"",""101326""
""blur"",""22"",""352743""
""focus"",""22"",""352907""
""blur"",""22"",""353550""
""focus"",""22"",""354323""
""blur"",""22"",""358882""
""focus"",""22"",""364877""
""blur"",""22"",""365485""
""focus"",""22"",""375403""
""blur"",""29"",""460857""
""focus"",""29"",""463043""
""blur"",""29"",""464639""
""focus"",""29"",""473585""
""blur"",""29"",""474654""
""focus"",""29"",""490703""
""blur"",""55"",""745374""
""focus"",""55"",""753303""
""blur"",""55"",""754501""
""focus"",""55"",""757167""
""blur"",""65"",""798045""
""focus"",""65"",""802241""
","""event"",""trial"",""time""
""blur"",""10"",""25534""
""blur"",""10"",""83519""
""blur"",""22"",""352743""
""blur"",""22"",""353550""
""blur"",""22"",""358882""
""blur"",""22"",""365485""
""blur"",""29"",""460857""
""blur"",""29"",""464639""
""blur"",""29"",""474654""
""blur"",""55"",""745374""
""blur"",""55"",""754501""
""blur"",""65"",""798045""
","""event"",""trial"",""time""
""focus"",""1"",""14""
""focus"",""10"",""67111""
""focus"",""10"",""101326""
""focus"",""22"",""352907""
""focus"",""22"",""354323""
""focus"",""22"",""364877""
""focus"",""22"",""375403""
""focus"",""29"",""463043""
""focus"",""29"",""473585""
""focus"",""29"",""490703""
""focus"",""55"",""753303""
""focus"",""55"",""757167""
""focus"",""65"",""802241""
","""event"",""trial"",""time""
""fullscreenenter"",""1"",""1908""
","""event"",""trial"",""time""
""fullscreenexit"",""2"",""3615""
","","","7309.4000000059605","[""True""]","0","11","1223","120","","","","","","","","","","","","","","","","","","","",""
"pit-instructions","65","802869","0.0-2.0-24.0-1.0","battery-v0.2","","""event"",""trial"",""time""
""focus"",""1"",""14""
""fullscreenenter"",""1"",""1908""
""fullscreenexit"",""2"",""3615""
""blur"",""10"",""25534""
""focus"",""10"",""67111""
""blur"",""10"",""83519""
""focus"",""10"",""101326""
""blur"",""22"",""352743""
""focus"",""22"",""352907""
""blur"",""22"",""353550""
""focus"",""22"",""354323""
""blur"",""22"",""358882""
""focus"",""22"",""364877""
""blur"",""22"",""365485""
""focus"",""22"",""375403""
""blur"",""29"",""460857""
""focus"",""29"",""463043""
""blur"",""29"",""464639""
""focus"",""29"",""473585""
""blur"",""29"",""474654""
""focus"",""29"",""490703""
""blur"",""55"",""745374""
""focus"",""55"",""753303""
""blur"",""55"",""754501""
""focus"",""55"",""757167""
""blur"",""65"",""798045""
""focus"",""65"",""802241""
","""event"",""trial"",""time""
""blur"",""10"",""25534""
""blur"",""10"",""83519""
""blur"",""22"",""352743""
""blur"",""22"",""353550""
""blur"",""22"",""358882""
""blur"",""22"",""365485""
""blur"",""29"",""460857""
""blur"",""29"",""464639""
""blur"",""29"",""474654""
""blur"",""55"",""745374""
""blur"",""55"",""754501""
""blur"",""65"",""798045""
","""event"",""trial"",""time""
""focus"",""1"",""14""
""focus"",""10"",""67111""
""focus"",""10"",""101326""
""focus"",""22"",""352907""
""focus"",""22"",""354323""
""focus"",""22"",""364877""
""focus"",""22"",""375403""
""focus"",""29"",""463043""
""focus"",""29"",""473585""
""focus"",""29"",""490703""
""focus"",""55"",""753303""
""focus"",""55"",""757167""
""focus"",""65"",""802241""
","""event"",""trial"",""time""
""fullscreenenter"",""1"",""1908""
","""event"",""trial"",""time""
""fullscreenexit"",""2"",""3615""
","","[{""page_index"":0,""viewing_time"":5862.5999999940395}]","5862.800000011921","","","","","","","","","","","","","","","","","","","","","","","","",""
"pit-comprehension","66","809101","0.0-2.0-25.0-0.0","battery-v0.2","","""event"",""trial"",""time""
""focus"",""1"",""14""
""fullscreenenter"",""1"",""1908""
""fullscreenexit"",""2"",""3615""
""blur"",""10"",""25534""
""focus"",""10"",""67111""
""blur"",""10"",""83519""
""focus"",""10"",""101326""
""blur"",""22"",""352743""
""focus"",""22"",""352907""
""blur"",""22"",""353550""
""focus"",""22"",""354323""
""blur"",""22"",""358882""
""focus"",""22"",""364877""
""blur"",""22"",""365485""
""focus"",""22"",""375403""
""blur"",""29"",""460857""
""focus"",""29"",""463043""
""blur"",""29"",""464639""
""focus"",""29"",""473585""
""blur"",""29"",""474654""
""focus"",""29"",""490703""
""blur"",""55"",""745374""
""focus"",""55"",""753303""
""blur"",""55"",""754501""
""focus"",""55"",""757167""
""blur"",""65"",""798045""
""focus"",""65"",""802241""
","""event"",""trial"",""time""
""blur"",""10"",""25534""
""blur"",""10"",""83519""
""blur"",""22"",""352743""
""blur"",""22"",""353550""
""blur"",""22"",""358882""
""blur"",""22"",""365485""
""blur"",""29"",""460857""
""blur"",""29"",""464639""
""blur"",""29"",""474654""
""blur"",""55"",""745374""
""blur"",""55"",""754501""
""blur"",""65"",""798045""
","""event"",""trial"",""time""
""focus"",""1"",""14""
""focus"",""10"",""67111""
""focus"",""10"",""101326""
""focus"",""22"",""352907""
""focus"",""22"",""354323""
""focus"",""22"",""364877""
""focus"",""22"",""375403""
""focus"",""29"",""463043""
""focus"",""29"",""473585""
""focus"",""29"",""490703""
""focus"",""55"",""753303""
""focus"",""55"",""757167""
""focus"",""65"",""802241""
","""event"",""trial"",""time""
""fullscreenenter"",""1"",""1908""
","""event"",""trial"",""time""
""fullscreenexit"",""2"",""3615""
","","","6229.200000017881","[""True""]","0","11","1223","120","","","","","","","","","","","","","","","","","","","",""
"pit-instructions","67","810845","0.0-2.0-25.0-1.0","battery-v0.2","","""event"",""trial"",""time""
""focus"",""1"",""14""
""fullscreenenter"",""1"",""1908""
""fullscreenexit"",""2"",""3615""
""blur"",""10"",""25534""
""focus"",""10"",""67111""
""blur"",""10"",""83519""
""focus"",""10"",""101326""
""blur"",""22"",""352743""
""focus"",""22"",""352907""
""blur"",""22"",""353550""
""focus"",""22"",""354323""
""blur"",""22"",""358882""
""focus"",""22"",""364877""
""blur"",""22"",""365485""
""focus"",""22"",""375403""
""blur"",""29"",""460857""
""focus"",""29"",""463043""
""blur"",""29"",""464639""
""focus"",""29"",""473585""
""blur"",""29"",""474654""
""focus"",""29"",""490703""
""blur"",""55"",""745374""
""focus"",""55"",""753303""
""blur"",""55"",""754501""
""focus"",""55"",""757167""
""blur"",""65"",""798045""
""focus"",""65"",""802241""
","""event"",""trial"",""time""
""blur"",""10"",""25534""
""blur"",""10"",""83519""
""blur"",""22"",""352743""
""blur"",""22"",""353550""
""blur"",""22"",""358882""
""blur"",""22"",""365485""
""blur"",""29"",""460857""
""blur"",""29"",""464639""
""blur"",""29"",""474654""
""blur"",""55"",""745374""
""blur"",""55"",""754501""
""blur"",""65"",""798045""
","""event"",""trial"",""time""
""focus"",""1"",""14""
""focus"",""10"",""67111""
""focus"",""10"",""101326""
""focus"",""22"",""352907""
""focus"",""22"",""354323""
""focus"",""22"",""364877""
""focus"",""22"",""375403""
""focus"",""29"",""463043""
""focus"",""29"",""473585""
""focus"",""29"",""490703""
""focus"",""55"",""753303""
""focus"",""55"",""757167""
""focus"",""65"",""802241""
","""event"",""trial"",""time""
""fullscreenenter"",""1"",""1908""
","""event"",""trial"",""time""
""fullscreenexit"",""2"",""3615""
","","[{""page_index"":0,""viewing_time"":1717.8999999761581}]","1718.199999988079","","","","","","","","","","","","","","","","","","","","","","","","",""
"pit-comprehension","68","815724","0.0-2.0-26.0-0.0","battery-v0.2","","""event"",""trial"",""time""
""focus"",""1"",""14""
""fullscreenenter"",""1"",""1908""
""fullscreenexit"",""2"",""3615""
""blur"",""10"",""25534""
""focus"",""10"",""67111""
""blur"",""10"",""83519""
""focus"",""10"",""101326""
""blur"",""22"",""352743""
""focus"",""22"",""352907""
""blur"",""22"",""353550""
""focus"",""22"",""354323""
""blur"",""22"",""358882""
""focus"",""22"",""364877""
""blur"",""22"",""365485""
""focus"",""22"",""375403""
""blur"",""29"",""460857""
""focus"",""29"",""463043""
""blur"",""29"",""464639""
""focus"",""29"",""473585""
""blur"",""29"",""474654""
""focus"",""29"",""490703""
""blur"",""55"",""745374""
""focus"",""55"",""753303""
""blur"",""55"",""754501""
""focus"",""55"",""757167""
""blur"",""65"",""798045""
""focus"",""65"",""802241""
","""event"",""trial"",""time""
""blur"",""10"",""25534""
""blur"",""10"",""83519""
""blur"",""22"",""352743""
""blur"",""22"",""353550""
""blur"",""22"",""358882""
""blur"",""22"",""365485""
""blur"",""29"",""460857""
""blur"",""29"",""464639""
""blur"",""29"",""474654""
""blur"",""55"",""745374""
""blur"",""55"",""754501""
""blur"",""65"",""798045""
","""event"",""trial"",""time""
""focus"",""1"",""14""
""focus"",""10"",""67111""
""focus"",""10"",""101326""
""focus"",""22"",""352907""
""focus"",""22"",""354323""
""focus"",""22"",""364877""
""focus"",""22"",""375403""
""focus"",""29"",""463043""
""focus"",""29"",""473585""
""focus"",""29"",""490703""
""focus"",""55"",""753303""
""focus"",""55"",""757167""
""focus"",""65"",""802241""
","""event"",""trial"",""time""
""fullscreenenter"",""1"",""1908""
","""event"",""trial"",""time""
""fullscreenexit"",""2"",""3615""
","","","4876.699999988079","[""False""]","0","11","1223","120","","","","","","","","","","","","","","","","","","","",""
"pit-instructions","69","817500","0.0-2.0-26.0-1.0","battery-v0.2","","""event"",""trial"",""time""
""focus"",""1"",""14""
""fullscreenenter"",""1"",""1908""
""fullscreenexit"",""2"",""3615""
""blur"",""10"",""25534""
""focus"",""10"",""67111""
""blur"",""10"",""83519""
""focus"",""10"",""101326""
""blur"",""22"",""352743""
""focus"",""22"",""352907""
""blur"",""22"",""353550""
""focus"",""22"",""354323""
""blur"",""22"",""358882""
""focus"",""22"",""364877""
""blur"",""22"",""365485""
""focus"",""22"",""375403""
""blur"",""29"",""460857""
""focus"",""29"",""463043""
""blur"",""29"",""464639""
""focus"",""29"",""473585""
""blur"",""29"",""474654""
""focus"",""29"",""490703""
""blur"",""55"",""745374""
""focus"",""55"",""753303""
""blur"",""55"",""754501""
""focus"",""55"",""757167""
""blur"",""65"",""798045""
""focus"",""65"",""802241""
""blur"",""70"",""819461""
""focus"",""70"",""821695""
""blur"",""70"",""823413""
""focus"",""70"",""829022""
","""event"",""trial"",""time""
""blur"",""10"",""25534""
""blur"",""10"",""83519""
""blur"",""22"",""352743""
""blur"",""22"",""353550""
""blur"",""22"",""358882""
""blur"",""22"",""365485""
""blur"",""29"",""460857""
""blur"",""29"",""464639""
""blur"",""29"",""474654""
""blur"",""55"",""745374""
""blur"",""55"",""754501""
""blur"",""65"",""798045""
""blur"",""70"",""819461""
""blur"",""70"",""823413""
","""event"",""trial"",""time""
""focus"",""1"",""14""
""focus"",""10"",""67111""
""focus"",""10"",""101326""
""focus"",""22"",""352907""
""focus"",""22"",""354323""
""focus"",""22"",""364877""
""focus"",""22"",""375403""
""focus"",""29"",""463043""
""focus"",""29"",""473585""
""focus"",""29"",""490703""
""focus"",""55"",""753303""
""focus"",""55"",""757167""
""focus"",""65"",""802241""
""focus"",""70"",""821695""
""focus"",""70"",""829022""
","""event"",""trial"",""time""
""fullscreenenter"",""1"",""1908""
","""event"",""trial"",""time""
""fullscreenexit"",""2"",""3615""
","","[{""page_index"":0,""viewing_time"":1748.7999999821186}]","1748.8999999761581","","","","","","","","","","","","","","","","","","","","","","","","",""
"pit-instructions","70","836684","0.0-3.0","battery-v0.2","","""event"",""trial"",""time""
""focus"",""1"",""14""
""fullscreenenter"",""1"",""1908""
""fullscreenexit"",""2"",""3615""
""blur"",""10"",""25534""
""focus"",""10"",""67111""
""blur"",""10"",""83519""
""focus"",""10"",""101326""
""blur"",""22"",""352743""
""focus"",""22"",""352907""
""blur"",""22"",""353550""
""focus"",""22"",""354323""
""blur"",""22"",""358882""
""focus"",""22"",""364877""
""blur"",""22"",""365485""
""focus"",""22"",""375403""
""blur"",""29"",""460857""
""focus"",""29"",""463043""
""blur"",""29"",""464639""
""focus"",""29"",""473585""
""blur"",""29"",""474654""
""focus"",""29"",""490703""
""blur"",""55"",""745374""
""focus"",""55"",""753303""
""blur"",""55"",""754501""
""focus"",""55"",""757167""
""blur"",""65"",""798045""
""focus"",""65"",""802241""
""blur"",""70"",""819461""
""focus"",""70"",""821695""
""blur"",""70"",""823413""
""focus"",""70"",""829022""
","""event"",""trial"",""time""
""blur"",""10"",""25534""
""blur"",""10"",""83519""
""blur"",""22"",""352743""
""blur"",""22"",""353550""
""blur"",""22"",""358882""
""blur"",""22"",""365485""
""blur"",""29"",""460857""
""blur"",""29"",""464639""
""blur"",""29"",""474654""
""blur"",""55"",""745374""
""blur"",""55"",""754501""
""blur"",""65"",""798045""
""blur"",""70"",""819461""
""blur"",""70"",""823413""
","""event"",""trial"",""time""
""focus"",""1"",""14""
""focus"",""10"",""67111""
""focus"",""10"",""101326""
""focus"",""22"",""352907""
""focus"",""22"",""354323""
""focus"",""22"",""364877""
""focus"",""22"",""375403""
""focus"",""29"",""463043""
""focus"",""29"",""473585""
""focus"",""29"",""490703""
""focus"",""55"",""753303""
""focus"",""55"",""757167""
""focus"",""65"",""802241""
""focus"",""70"",""821695""
""focus"",""70"",""829022""
","""event"",""trial"",""time""
""fullscreenenter"",""1"",""1908""
","""event"",""trial"",""time""
""fullscreenexit"",""2"",""3615""
","","[{""page_index"":0,""viewing_time"":4253.5},{""page_index"":1,""viewing_time"":7624.0999999940395},{""page_index"":2,""viewing_time"":7304.100000023842}]","19181.90000000596","","","","","","","","","","","","","","","","","","","","","","","","",""
"pit-trial","71","840753","0.0-4.0","battery-v0.2","","""event"",""trial"",""time""
""focus"",""1"",""14""
""fullscreenenter"",""1"",""1908""
""fullscreenexit"",""2"",""3615""
""blur"",""10"",""25534""
""focus"",""10"",""67111""
""blur"",""10"",""83519""
""focus"",""10"",""101326""
""blur"",""22"",""352743""
""focus"",""22"",""352907""
""blur"",""22"",""353550""
""focus"",""22"",""354323""
""blur"",""22"",""358882""
""focus"",""22"",""364877""
""blur"",""22"",""365485""
""focus"",""22"",""375403""
""blur"",""29"",""460857""
""focus"",""29"",""463043""
""blur"",""29"",""464639""
""focus"",""29"",""473585""
""blur"",""29"",""474654""
""focus"",""29"",""490703""
""blur"",""55"",""745374""
""focus"",""55"",""753303""
""blur"",""55"",""754501""
""focus"",""55"",""757167""
""blur"",""65"",""798045""
""focus"",""65"",""802241""
""blur"",""70"",""819461""
