"trial_type","trial_index","time_elapsed","internal_node_id","task_version","view_history","rt","rune","rune_set","hex","correct","choice","accuracy","outcome","keys","total_keys","block","practice","age","subject","participantId","value"
"pavlovia","0","7","0.0-0.0","battery-v0.2","","","","","","","","","","","","","","","","",""
"pit-instructions","1","5901","0.0-1.0-0.0","battery-v0.2","[{""page_index"":0,""viewing_time"":3508.2000000476837},{""page_index"":1,""viewing_time"":166.79999995231628},{""page_index"":2,""viewing_time"":182.80000007152557},{""page_index"":3,""viewing_time"":183.79999995231628},{""page_index"":4,""viewing_time"":183.20000004768372},{""page_index"":5,""viewing_time"":166.60000002384186},{""page_index"":6,""viewing_time"":200},{""page_index"":7,""viewing_time"":200.39999997615814},{""page_index"":8,""viewing_time"":416.2999999523163},{""page_index"":9,""viewing_time"":216.70000004768372},{""page_index"":10,""viewing_time"":200},{""page_index"":11,""viewing_time"":266.60000002384186}]","5891.800000071526","","","","","","","","","","","","","","",""
"pit-trial","2","9392","0.0-1.0-1.0-0.0","battery-v0.2","","983.5","&#9776;","elianto","#3366ff99","32","32","1","+10","1483.7999999523163","1","0","1","9999","3&age=9999&participant_ID=5&order=1","5",""
"pit-trial","3","12659","0.0-1.0-1.0-1.0","battery-v0.2","","763.7000000476837","&#9776;","elianto","#3366ff99","32","32","1","+10","1265.7000000476837","1","0","1","9999","3&age=9999&participant_ID=5&order=1","5",""
"pit-trial","4","15858","0.0-1.0-1.0-2.0","battery-v0.2","","692.8999999761581","&#9776;","elianto","#3366ff99","32","32","1","+10","1193.6000000238419","1","0","1","9999","3&age=9999&participant_ID=5&order=1","5",""
"pit-trial","5","20367","0.0-1.0-1.0-3.0","battery-v0.2","","-1","&#9776;","elianto","#3366ff99","32","-1","0","+10","","0","0","1","9999","3&age=9999&participant_ID=5&order=1","5",""
"pit-trial","6","24873","0.0-1.0-1.0-4.0","battery-v0.2","","-1","&#9776;","elianto","#3366ff99","32","-1","0","0","","0","0","1","9999","3&age=9999&participant_ID=5&order=1","5",""
"pit-trial","7","29378","0.0-1.0-1.1-0.1","battery-v0.2","","-1","&#9776;","elianto","#3366ff99","32","-1","0","0","","0","0","1","9999","3&age=9999&participant_ID=5&order=1","5",""
"pit-trial","8","33887","0.0-1.0-1.1-1.1","battery-v0.2","","-1","&#9776;","elianto","#3366ff99","32","-1","0","0","","0","0","1","9999","3&age=9999&participant_ID=5&order=1","5",""
"pit-trial","9","38395","0.0-1.0-1.1-2.1","battery-v0.2","","-1","&#9776;","elianto","#3366ff99","32","-1","0","0","","0","0","1","9999","3&age=9999&participant_ID=5&order=1","5",""
"pit-trial","10","42897","0.0-1.0-1.1-3.1","battery-v0.2","","-1","&#9776;","elianto","#3366ff99","32","-1","0","+10","","0","0","1","9999","3&age=9999&participant_ID=5&order=1","5",""
"pit-trial","11","47404","0.0-1.0-1.1-4.1","battery-v0.2","","-1","&#9776;","elianto","#3366ff99","32","-1","0","0","","0","0","1","9999","3&age=9999&participant_ID=5&order=1","5",""
"pit-trial","12","51914","0.0-1.0-1.2-0.2","battery-v0.2","","-1","&#9776;","elianto","#3366ff99","32","-1","0","0","","0","0","1","9999","3&age=9999&participant_ID=5&order=1","5",""
"pit-trial","13","56418","0.0-1.0-1.2-1.2","battery-v0.2","","-1","&#9776;","elianto","#3366ff99","32","-1","0","0","","0","0","1","9999","3&age=9999&participant_ID=5&order=1","5",""
"pit-trial","14","60920","0.0-1.0-1.2-2.2","battery-v0.2","","-1","&#9776;","elianto","#3366ff99","32","-1","0","0","","0","0","1","9999","3&age=9999&participant_ID=5&order=1","5",""
"pit-trial","15","65427","0.0-1.0-1.2-3.2","battery-v0.2","","-1","&#9776;","elianto","#3366ff99","32","-1","0","+10","","0","0","1","9999","3&age=9999&participant_ID=5&order=1","5",""
"pit-trial","16","69934","0.0-1.0-1.2-4.2","battery-v0.2","","-1","&#9776;","elianto","#3366ff99","32","-1","0","0","","0","0","1","9999","3&age=9999&participant_ID=5&order=1","5",""
"pit-trial","17","74439","0.0-1.0-1.3-0.3","battery-v0.2","","-1","&#9776;","elianto","#3366ff99","32","-1","0","0","","0","0","1","9999","3&age=9999&participant_ID=5&order=1","5",""
"pit-trial","18","78943","0.0-1.0-1.3-1.3","battery-v0.2","","-1","&#9776;","elianto","#3366ff99","32","-1","0","0","","0","0","1","9999","3&age=9999&participant_ID=5&order=1","5",""
"pit-trial","19","83453","0.0-1.0-1.3-2.3","battery-v0.2","","-1","&#9776;","elianto","#3366ff99","32","-1","0","0","","0","0","1","9999","3&age=9999&participant_ID=5&order=1","5",""
"pit-trial","20","87958","0.0-1.0-1.3-3.3","battery-v0.2","","-1","&#9776;","elianto","#3366ff99","32","-1","0","+10","","0","0","1","9999","3&age=9999&participant_ID=5&order=1","5",""
"pit-trial","21","92461","0.0-1.0-1.3-4.3","battery-v0.2","","-1","&#9776;","elianto","#3366ff99","32","-1","0","0","","0","0","1","9999","3&age=9999&participant_ID=5&order=1","5",""
"pit-trial","22","96971","0.0-1.0-1.4-0.4","battery-v0.2","","-1","&#9776;","elianto","#3366ff99","32","-1","0","0","","0","0","1","9999","3&age=9999&participant_ID=5&order=1","5",""
"pit-trial","23","101476","0.0-1.0-1.4-1.4","battery-v0.2","","-1","&#9776;","elianto","#3366ff99","32","-1","0","0","","0","0","1","9999","3&age=9999&participant_ID=5&order=1","5",""
"pit-trial","24","105979","0.0-1.0-1.4-2.4","battery-v0.2","","-1","&#9776;","elianto","#3366ff99","32","-1","0","0","","0","0","1","9999","3&age=9999&participant_ID=5&order=1","5",""
"pit-trial","25","110486","0.0-1.0-1.4-3.4","battery-v0.2","","-1","&#9776;","elianto","#3366ff99","32","-1","0","+10","","0","0","1","9999","3&age=9999&participant_ID=5&order=1","5",""
"pit-trial","26","114991","0.0-1.0-1.4-4.4","battery-v0.2","","-1","&#9776;","elianto","#3366ff99","32","-1","0","0","","0","0","1","9999","3&age=9999&participant_ID=5&order=1","5",""
"pit-trial","27","119500","0.0-1.0-1.5-0.5","battery-v0.2","","-1","&#9776;","elianto","#3366ff99","32","-1","0","0","","0","0","1","9999","3&age=9999&participant_ID=5&order=1","5",""
"pit-trial","28","124005","0.0-1.0-1.5-1.5","battery-v0.2","","-1","&#9776;","elianto","#3366ff99","32","-1","0","0","","0","0","1","9999","3&age=9999&participant_ID=5&order=1","5",""
"pit-trial","29","128509","0.0-1.0-1.5-2.5","battery-v0.2","","-1","&#9776;","elianto","#3366ff99","32","-1","0","0","","0","0","1","9999","3&age=9999&participant_ID=5&order=1","5",""
"pit-trial","30","133017","0.0-1.0-1.5-3.5","battery-v0.2","","-1","&#9776;","elianto","#3366ff99","32","-1","0","+10","","0","0","1","9999","3&age=9999&participant_ID=5&order=1","5",""
"pit-trial","31","137522","0.0-1.0-1.5-4.5","battery-v0.2","","-1","&#9776;","elianto","#3366ff99","32","-1","0","0","","0","0","1","9999","3&age=9999&participant_ID=5&order=1","5",""
"pit-trial","32","142027","0.0-1.0-1.6-0.6","battery-v0.2","","-1","&#9776;","elianto","#3366ff99","32","-1","0","0","","0","0","1","9999","3&age=9999&participant_ID=5&order=1","5",""
"pit-trial","33","146536","0.0-1.0-1.6-1.6","battery-v0.2","","-1","&#9776;","elianto","#3366ff99","32","-1","0","0","","0","0","1","9999","3&age=9999&participant_ID=5&order=1","5",""
"pit-trial","34","151042","0.0-1.0-1.6-2.6","battery-v0.2","","-1","&#9776;","elianto","#3366ff99","32","-1","0","0","","0","0","1","9999","3&age=9999&participant_ID=5&order=1","5",""
"pit-trial","35","155549","0.0-1.0-1.6-3.6","battery-v0.2","","-1","&#9776;","elianto","#3366ff99","32","-1","0","+10","","0","0","1","9999","3&age=9999&participant_ID=5&order=1","5",""
"pit-trial","36","160057","0.0-1.0-1.6-4.6","battery-v0.2","","-1","&#9776;","elianto","#3366ff99","32","-1","0","0","","0","0","1","9999","3&age=9999&participant_ID=5&order=1","5",""
"pit-trial","37","164562","0.0-1.0-1.7-0.7","battery-v0.2","","-1","&#9776;","elianto","#3366ff99","32","-1","0","0","","0","0","1","9999","3&age=9999&participant_ID=5&order=1","5",""
"pit-trial","38","169070","0.0-1.0-1.7-1.7","battery-v0.2","","-1","&#9776;","elianto","#3366ff99","32","-1","0","0","","0","0","1","9999","3&age=9999&participant_ID=5&order=1","5",""
"pit-trial","39","173575","0.0-1.0-1.7-2.7","battery-v0.2","","-1","&#9776;","elianto","#3366ff99","32","-1","0","0","","0","0","1","9999","3&age=9999&participant_ID=5&order=1","5",""
"pit-trial","40","178082","0.0-1.0-1.7-3.7","battery-v0.2","","-1","&#9776;","elianto","#3366ff99","32","-1","0","+10","","0","0","1","9999","3&age=9999&participant_ID=5&order=1","5",""
"pit-trial","41","182589","0.0-1.0-1.7-4.7","battery-v0.2","","-1","&#9776;","elianto","#3366ff99","32","-1","0","0","","0","0","1","9999","3&age=9999&participant_ID=5&order=1","5",""
"pit-trial","42","187096","0.0-1.0-1.8-0.8","battery-v0.2","","-1","&#9776;","elianto","#3366ff99","32","-1","0","0","","0","0","1","9999","3&age=9999&participant_ID=5&order=1","5",""
"pit-trial","43","191602","0.0-1.0-1.8-1.8","battery-v0.2","","-1","&#9776;","elianto","#3366ff99","32","-1","0","0","","0","0","1","9999","3&age=9999&participant_ID=5&order=1","5",""
"pit-trial","44","196108","0.0-1.0-1.8-2.8","battery-v0.2","","-1","&#9776;","elianto","#3366ff99","32","-1","0","0","","0","0","1","9999","3&age=9999&participant_ID=5&order=1","5",""
"pit-trial","45","200613","0.0-1.0-1.8-3.8","battery-v0.2","","-1","&#9776;","elianto","#3366ff99","32","-1","0","+10","","0","0","1","9999","3&age=9999&participant_ID=5&order=1","5",""
"pit-trial","46","205125","0.0-1.0-1.8-4.8","battery-v0.2","","-1","&#9776;","elianto","#3366ff99","32","-1","0","0","","0","0","1","9999","3&age=9999&participant_ID=5&order=1","5",""
"pit-trial","47","209636","0.0-1.0-1.9-0.9","battery-v0.2","","-1","&#9776;","elianto","#3366ff99","32","-1","0","0","","0","0","1","9999","3&age=9999&participant_ID=5&order=1","5",""
"pit-trial","48","214139","0.0-1.0-1.9-1.9","battery-v0.2","","-1","&#9776;","elianto","#3366ff99","32","-1","0","0","","0","0","1","9999","3&age=9999&participant_ID=5&order=1","5",""
"pit-trial","49","218642","0.0-1.0-1.9-2.9","battery-v0.2","","-1","&#9776;","elianto","#3366ff99","32","-1","0","0","","0","0","1","9999","3&age=9999&participant_ID=5&order=1","5",""
"pit-trial","50","223149","0.0-1.0-1.9-3.9","battery-v0.2","","-1","&#9776;","elianto","#3366ff99","32","-1","0","+10","","0","0","1","9999","3&age=9999&participant_ID=5&order=1","5",""
"pit-trial","51","227654","0.0-1.0-1.9-4.9","battery-v0.2","","-1","&#9776;","elianto","#3366ff99","32","-1","0","0","","0","0","1","9999","3&age=9999&participant_ID=5&order=1","5",""
"pit-trial","52","232162","0.0-1.0-1.10-0.10","battery-v0.2","","-1","&#9776;","elianto","#3366ff99","32","-1","0","0","","0","0","1","9999","3&age=9999&participant_ID=5&order=1","5",""
"pit-trial","53","236664","0.0-1.0-1.10-1.10","battery-v0.2","","-1","&#9776;","elianto","#3366ff99","32","-1","0","0","","0","0","1","9999","3&age=9999&participant_ID=5&order=1","5",""
"pit-trial","54","241170","0.0-1.0-1.10-2.10","battery-v0.2","","-1","&#9776;","elianto","#3366ff99","32","-1","0","0","","0","0","1","9999","3&age=9999&participant_ID=5&order=1","5",""
"pit-trial","55","245679","0.0-1.0-1.10-3.10","battery-v0.2","","-1","&#9776;","elianto","#3366ff99","32","-1","0","+10","","0","0","1","9999","3&age=9999&participant_ID=5&order=1","5",""
"pit-trial","56","250184","0.0-1.0-1.10-4.10","battery-v0.2","","-1","&#9776;","elianto","#3366ff99","32","-1","0","0","","0","0","1","9999","3&age=9999&participant_ID=5&order=1","5",""
"pit-trial","57","254689","0.0-1.0-1.11-0.11","battery-v0.2","","-1","&#9776;","elianto","#3366ff99","32","-1","0","0","","0","0","1","9999","3&age=9999&participant_ID=5&order=1","5",""
"pit-trial","58","259195","0.0-1.0-1.11-1.11","battery-v0.2","","-1","&#9776;","elianto","#3366ff99","32","-1","0","0","","0","0","1","9999","3&age=9999&participant_ID=5&order=1","5",""
"pit-trial","59","263702","0.0-1.0-1.11-2.11","battery-v0.2","","-1","&#9776;","elianto","#3366ff99","32","-1","0","0","","0","0","1","9999","3&age=9999&participant_ID=5&order=1","5",""
"pit-trial","60","268213","0.0-1.0-1.11-3.11","battery-v0.2","","-1","&#9776;","elianto","#3366ff99","32","-1","0","+10","","0","0","1","9999","3&age=9999&participant_ID=5&order=1","5",""
"pit-trial","61","272715","0.0-1.0-1.11-4.11","battery-v0.2","","-1","&#9776;","elianto","#3366ff99","32","-1","0","0","","0","0","1","9999","3&age=9999&participant_ID=5&order=1","5",""
"pit-trial","62","277223","0.0-1.0-1.12-0.12","battery-v0.2","","-1","&#9776;","elianto","#3366ff99","32","-1","0","0","","0","0","1","9999","3&age=9999&participant_ID=5&order=1","5",""
"pit-trial","63","281728","0.0-1.0-1.12-1.12","battery-v0.2","","-1","&#9776;","elianto","#3366ff99","32","-1","0","0","","0","0","1","9999","3&age=9999&participant_ID=5&order=1","5",""
"pit-trial","64","286232","0.0-1.0-1.12-2.12","battery-v0.2","","-1","&#9776;","elianto","#3366ff99","32","-1","0","0","","0","0","1","9999","3&age=9999&participant_ID=5&order=1","5",""
"pit-trial","65","290736","0.0-1.0-1.12-3.12","battery-v0.2","","-1","&#9776;","elianto","#3366ff99","32","-1","0","+10","","0","0","1","9999","3&age=9999&participant_ID=5&order=1","5",""
"pit-trial","66","295240","0.0-1.0-1.12-4.12","battery-v0.2","","-1","&#9776;","elianto","#3366ff99","32","-1","0","0","","0","0","1","9999","3&age=9999&participant_ID=5&order=1","5",""
"pit-trial","67","299746","0.0-1.0-1.13-0.13","battery-v0.2","","-1","&#9776;","elianto","#3366ff99","32","-1","0","0","","0","0","1","9999","3&age=9999&participant_ID=5&order=1","5",""
"pit-trial","68","304249","0.0-1.0-1.13-1.13","battery-v0.2","","-1","&#9776;","elianto","#3366ff99","32","-1","0","0","","0","0","1","9999","3&age=9999&participant_ID=5&order=1","5",""
"pit-trial","69","308756","0.0-1.0-1.13-2.13","battery-v0.2","","-1","&#9776;","elianto","#3366ff99","32","-1","0","0","","0","0","1","9999","3&age=9999&participant_ID=5&order=1","5",""
"pit-trial","70","313267","0.0-1.0-1.13-3.13","battery-v0.2","","-1","&#9776;","elianto","#3366ff99","32","-1","0","+10","","0","0","1","9999","3&age=9999&participant_ID=5&order=1","5",""
"pit-trial","71","317773","0.0-1.0-1.13-4.13","battery-v0.2","","-1","&#9776;","elianto","#3366ff99","32","-1","0","0","","0","0","1","9999","3&age=9999&participant_ID=5&order=1","5",""
"pit-trial","72","322281","0.0-1.0-1.14-0.14","battery-v0.2","","-1","&#9776;","elianto","#3366ff99","32","-1","0","0","","0","0","1","9999","3&age=9999&participant_ID=5&order=1","5",""
"pit-trial","73","326784","0.0-1.0-1.14-1.14","battery-v0.2","","-1","&#9776;","elianto","#3366ff99","32","-1","0","0","","0","0","1","9999","3&age=9999&participant_ID=5&order=1","5",""
"pit-trial","74","331288","0.0-1.0-1.14-2.14","battery-v0.2","","-1","&#9776;","elianto","#3366ff99","32","-1","0","0","","0","0","1","9999","3&age=9999&participant_ID=5&order=1","5",""
"pit-trial","75","335794","0.0-1.0-1.14-3.14","battery-v0.2","","-1","&#9776;","elianto","#3366ff99","32","-1","0","+10","","0","0","1","9999","3&age=9999&participant_ID=5&order=1","5",""
"pit-trial","76","340297","0.0-1.0-1.14-4.14","battery-v0.2","","-1","&#9776;","elianto","#3366ff99","32","-1","0","0","","0","0","1","9999","3&age=9999&participant_ID=5&order=1","5",""
"pit-trial","77","344801","0.0-1.0-1.15-0.15","battery-v0.2","","-1","&#9776;","elianto","#3366ff99","32","-1","0","0","","0","0","1","9999","3&age=9999&participant_ID=5&order=1","5",""
"pit-trial","78","349307","0.0-1.0-1.15-1.15","battery-v0.2","","-1","&#9776;","elianto","#3366ff99","32","-1","0","0","","0","0","1","9999","3&age=9999&participant_ID=5&order=1","5",""
"pit-trial","79","353811","0.0-1.0-1.15-2.15","battery-v0.2","","-1","&#9776;","elianto","#3366ff99","32","-1","0","0","","0","0","1","9999","3&age=9999&participant_ID=5&order=1","5",""
"pit-trial","80","358320","0.0-1.0-1.15-3.15","battery-v0.2","","-1","&#9776;","elianto","#3366ff99","32","-1","0","+10","","0","0","1","9999","3&age=9999&participant_ID=5&order=1","5",""
"pit-trial","81","362822","0.0-1.0-1.15-4.15","battery-v0.2","","-1","&#9776;","elianto","#3366ff99","32","-1","0","0","","0","0","1","9999","3&age=9999&participant_ID=5&order=1","5",""
"pit-trial","82","367328","0.0-1.0-1.16-0.16","battery-v0.2","","-1","&#9776;","elianto","#3366ff99","32","-1","0","0","","0","0","1","9999","3&age=9999&participant_ID=5&order=1","5",""
"pit-trial","83","371831","0.0-1.0-1.16-1.16","battery-v0.2","","-1","&#9776;","elianto","#3366ff99","32","-1","0","0","","0","0","1","9999","3&age=9999&participant_ID=5&order=1","5",""
"pit-trial","84","376338","0.0-1.0-1.16-2.16","battery-v0.2","","-1","&#9776;","elianto","#3366ff99","32","-1","0","0","","0","0","1","9999","3&age=9999&participant_ID=5&order=1","5",""
"pit-trial","85","380841","0.0-1.0-1.16-3.16","battery-v0.2","","-1","&#9776;","elianto","#3366ff99","32","-1","0","+10","","0","0","1","9999","3&age=9999&participant_ID=5&order=1","5",""
"pit-trial","86","385348","0.0-1.0-1.16-4.16","battery-v0.2","","-1","&#9776;","elianto","#3366ff99","32","-1","0","0","","0","0","1","9999","3&age=9999&participant_ID=5&order=1","5",""
"pit-trial","87","389852","0.0-1.0-1.17-0.17","battery-v0.2","","-1","&#9776;","elianto","#3366ff99","32","-1","0","0","","0","0","1","9999","3&age=9999&participant_ID=5&order=1","5",""
"pit-trial","88","394357","0.0-1.0-1.17-1.17","battery-v0.2","","-1","&#9776;","elianto","#3366ff99","32","-1","0","0","","0","0","1","9999","3&age=9999&participant_ID=5&order=1","5",""
"pit-trial","89","398865","0.0-1.0-1.17-2.17","battery-v0.2","","-1","&#9776;","elianto","#3366ff99","32","-1","0","0","","0","0","1","9999","3&age=9999&participant_ID=5&order=1","5",""
"pit-trial","90","403372","0.0-1.0-1.17-3.17","battery-v0.2","","-1","&#9776;","elianto","#3366ff99","32","-1","0","+10","","0","0","1","9999","3&age=9999&participant_ID=5&order=1","5",""
"pit-trial","91","407877","0.0-1.0-1.17-4.17","battery-v0.2","","-1","&#9776;","elianto","#3366ff99","32","-1","0","0","","0","0","1","9999","3&age=9999&participant_ID=5&order=1","5",""
"pit-trial","92","412380","0.0-1.0-1.18-0.18","battery-v0.2","","-1","&#9776;","elianto","#3366ff99","32","-1","0","0","","0","0","1","9999","3&age=9999&participant_ID=5&order=1","5",""
"pit-trial","93","416889","0.0-1.0-1.18-1.18","battery-v0.2","","-1","&#9776;","elianto","#3366ff99","32","-1","0","0","","0","0","1","9999","3&age=9999&participant_ID=5&order=1","5",""
"pit-trial","94","421397","0.0-1.0-1.18-2.18","battery-v0.2","","-1","&#9776;","elianto","#3366ff99","32","-1","0","0","","0","0","1","9999","3&age=9999&participant_ID=5&order=1","5",""
"pit-trial","95","425904","0.0-1.0-1.18-3.18","battery-v0.2","","-1","&#9776;","elianto","#3366ff99","32","-1","0","+10","","0","0","1","9999","3&age=9999&participant_ID=5&order=1","5",""
"pit-trial","96","430409","0.0-1.0-1.18-4.18","battery-v0.2","","-1","&#9776;","elianto","#3366ff99","32","-1","0","0","","0","0","1","9999","3&age=9999&participant_ID=5&order=1","5",""
"pit-trial","97","434915","0.0-1.0-1.19-0.19","battery-v0.2","","-1","&#9776;","elianto","#3366ff99","32","-1","0","0","","0","0","1","9999","3&age=9999&participant_ID=5&order=1","5",""
"pit-trial","98","439421","0.0-1.0-1.19-1.19","battery-v0.2","","-1","&#9776;","elianto","#3366ff99","32","-1","0","0","","0","0","1","9999","3&age=9999&participant_ID=5&order=1","5",""
"pit-trial","99","443925","0.0-1.0-1.19-2.19","battery-v0.2","","-1","&#9776;","elianto","#3366ff99","32","-1","0","0","","0","0","1","9999","3&age=9999&participant_ID=5&order=1","5",""
"pit-trial","100","448434","0.0-1.0-1.19-3.19","battery-v0.2","","-1","&#9776;","elianto","#3366ff99","32","-1","0","+10","","0","0","1","9999","3&age=9999&participant_ID=5&order=1","5",""
"pit-trial","101","452941","0.0-1.0-1.19-4.19","battery-v0.2","","-1","&#9776;","elianto","#3366ff99","32","-1","0","0","","0","0","1","9999","3&age=9999&participant_ID=5&order=1","5",""
"pit-trial","102","457452","0.0-1.0-1.20-0.20","battery-v0.2","","-1","&#9776;","elianto","#3366ff99","32","-1","0","0","","0","0","1","9999","3&age=9999&participant_ID=5&order=1","5",""
"pit-trial","103","461954","0.0-1.0-1.20-1.20","battery-v0.2","","-1","&#9776;","elianto","#3366ff99","32","-1","0","0","","0","0","1","9999","3&age=9999&participant_ID=5&order=1","5",""
"pit-trial","104","466458","0.0-1.0-1.20-2.20","battery-v0.2","","-1","&#9776;","elianto","#3366ff99","32","-1","0","0","","0","0","1","9999","3&age=9999&participant_ID=5&order=1","5",""
"pit-trial","105","470966","0.0-1.0-1.20-3.20","battery-v0.2","","-1","&#9776;","elianto","#3366ff99","32","-1","0","+10","","0","0","1","9999","3&age=9999&participant_ID=5&order=1","5",""
"pit-trial","106","475474","0.0-1.0-1.20-4.20","battery-v0.2","","-1","&#9776;","elianto","#3366ff99","32","-1","0","0","","0","0","1","9999","3&age=9999&participant_ID=5&order=1","5",""
"pit-trial","107","479975","0.0-1.0-1.21-0.21","battery-v0.2","","-1","&#9776;","elianto","#3366ff99","32","-1","0","0","","0","0","1","9999","3&age=9999&participant_ID=5&order=1","5",""
"pit-trial","108","484482","0.0-1.0-1.21-1.21","battery-v0.2","","-1","&#9776;","elianto","#3366ff99","32","-1","0","0","","0","0","1","9999","3&age=9999&participant_ID=5&order=1","5",""
"pit-trial","109","488989","0.0-1.0-1.21-2.21","battery-v0.2","","-1","&#9776;","elianto","#3366ff99","32","-1","0","0","","0","0","1","9999","3&age=9999&participant_ID=5&order=1","5",""
"pit-trial","110","493495","0.0-1.0-1.21-3.21","battery-v0.2","","-1","&#9776;","elianto","#3366ff99","32","-1","0","+10","","0","0","1","9999","3&age=9999&participant_ID=5&order=1","5",""
"pit-trial","111","497999","0.0-1.0-1.21-4.21","battery-v0.2","","-1","&#9776;","elianto","#3366ff99","32","-1","0","0","","0","0","1","9999","3&age=9999&participant_ID=5&order=1","5",""
"pit-trial","112","502506","0.0-1.0-1.22-0.22","battery-v0.2","","-1","&#9776;","elianto","#3366ff99","32","-1","0","0","","0","0","1","9999","3&age=9999&participant_ID=5&order=1","5",""
"pit-trial","113","507014","0.0-1.0-1.22-1.22","battery-v0.2","","-1","&#9776;","elianto","#3366ff99","32","-1","0","0","","0","0","1","9999","3&age=9999&participant_ID=5&order=1","5",""
"pit-trial","114","511521","0.0-1.0-1.22-2.22","battery-v0.2","","-1","&#9776;","elianto","#3366ff99","32","-1","0","0","","0","0","1","9999","3&age=9999&participant_ID=5&order=1","5",""
"pit-trial","115","516027","0.0-1.0-1.22-3.22","battery-v0.2","","-1","&#9776;","elianto","#3366ff99","32","-1","0","+10","","0","0","1","9999","3&age=9999&participant_ID=5&order=1","5",""
"pit-trial","116","520532","0.0-1.0-1.22-4.22","battery-v0.2","","-1","&#9776;","elianto","#3366ff99","32","-1","0","0","","0","0","1","9999","3&age=9999&participant_ID=5&order=1","5",""
"pit-trial","117","525038","0.0-1.0-1.23-0.23","battery-v0.2","","-1","&#9776;","elianto","#3366ff99","32","-1","0","0","","0","0","1","9999","3&age=9999&participant_ID=5&order=1","5",""
"pit-trial","118","529543","0.0-1.0-1.23-1.23","battery-v0.2","","-1","&#9776;","elianto","#3366ff99","32","-1","0","0","","0","0","1","9999","3&age=9999&participant_ID=5&order=1","5",""
"pit-trial","119","534045","0.0-1.0-1.23-2.23","battery-v0.2","","-1","&#9776;","elianto","#3366ff99","32","-1","0","0","","0","0","1","9999","3&age=9999&participant_ID=5&order=1","5",""
"pit-trial","120","538553","0.0-1.0-1.23-3.23","battery-v0.2","","-1","&#9776;","elianto","#3366ff99","32","-1","0","+10","","0","0","1","9999","3&age=9999&participant_ID=5&order=1","5",""
"pit-trial","121","543060","0.0-1.0-1.23-4.23","battery-v0.2","","-1","&#9776;","elianto","#3366ff99","32","-1","0","0","","0","0","1","9999","3&age=9999&participant_ID=5&order=1","5",""
"pit-trial","122","547569","0.0-1.0-1.24-0.24","battery-v0.2","","-1","&#9776;","elianto","#3366ff99","32","-1","0","0","","0","0","1","9999","3&age=9999&participant_ID=5&order=1","5",""
"pit-trial","123","552075","0.0-1.0-1.24-1.24","battery-v0.2","","-1","&#9776;","elianto","#3366ff99","32","-1","0","0","","0","0","1","9999","3&age=9999&participant_ID=5&order=1","5",""
"pit-trial","124","556578","0.0-1.0-1.24-2.24","battery-v0.2","","-1","&#9776;","elianto","#3366ff99","32","-1","0","0","","0","0","1","9999","3&age=9999&participant_ID=5&order=1","5",""
"pit-trial","125","561085","0.0-1.0-1.24-3.24","battery-v0.2","","-1","&#9776;","elianto","#3366ff99","32","-1","0","+10","","0","0","1","9999","3&age=9999&participant_ID=5&order=1","5",""
"pit-trial","126","565592","0.0-1.0-1.24-4.24","battery-v0.2","","-1","&#9776;","elianto","#3366ff99","32","-1","0","0","","0","0","1","9999","3&age=9999&participant_ID=5&order=1","5",""
"pit-trial","127","570096","0.0-1.0-1.25-0.25","battery-v0.2","","-1","&#9776;","elianto","#3366ff99","32","-1","0","0","","0","0","1","9999","3&age=9999&participant_ID=5&order=1","5",""
"pit-trial","128","574599","0.0-1.0-1.25-1.25","battery-v0.2","","-1","&#9776;","elianto","#3366ff99","32","-1","0","0","","0","0","1","9999","3&age=9999&participant_ID=5&order=1","5",""
"pit-trial","129","579101","0.0-1.0-1.25-2.25","battery-v0.2","","-1","&#9776;","elianto","#3366ff99","32","-1","0","0","","0","0","1","9999","3&age=9999&participant_ID=5&order=1","5",""
"pit-trial","130","583607","0.0-1.0-1.25-3.25","battery-v0.2","","-1","&#9776;","elianto","#3366ff99","32","-1","0","+10","","0","0","1","9999","3&age=9999&participant_ID=5&order=1","5",""
"pit-trial","131","588108","0.0-1.0-1.25-4.25","battery-v0.2","","-1","&#9776;","elianto","#3366ff99","32","-1","0","0","","0","0","1","9999","3&age=9999&participant_ID=5&order=1","5",""
"pit-trial","132","592614","0.0-1.0-1.26-0.26","battery-v0.2","","-1","&#9776;","elianto","#3366ff99","32","-1","0","0","","0","0","1","9999","3&age=9999&participant_ID=5&order=1","5",""
"pit-trial","133","597120","0.0-1.0-1.26-1.26","battery-v0.2","","-1","&#9776;","elianto","#3366ff99","32","-1","0","0","","0","0","1","9999","3&age=9999&participant_ID=5&order=1","5",""
"pit-trial","134","601622","0.0-1.0-1.26-2.26","battery-v0.2","","-1","&#9776;","elianto","#3366ff99","32","-1","0","0","","0","0","1","9999","3&age=9999&participant_ID=5&order=1","5",""
"pit-trial","135","606124","0.0-1.0-1.26-3.26","battery-v0.2","","-1","&#9776;","elianto","#3366ff99","32","-1","0","+10","","0","0","1","9999","3&age=9999&participant_ID=5&order=1","5",""
"pit-trial","136","610626","0.0-1.0-1.26-4.26","battery-v0.2","","-1","&#9776;","elianto","#3366ff99","32","-1","0","0","","0","0","1","9999","3&age=9999&participant_ID=5&order=1","5",""
"pit-trial","137","615132","0.0-1.0-1.27-0.27","battery-v0.2","","-1","&#9776;","elianto","#3366ff99","32","-1","0","0","","0","0","1","9999","3&age=9999&participant_ID=5&order=1","5",""
"pit-trial","138","619644","0.0-1.0-1.27-1.27","battery-v0.2","","-1","&#9776;","elianto","#3366ff99","32","-1","0","0","","0","0","1","9999","3&age=9999&participant_ID=5&order=1","5",""
"pit-trial","139","624151","0.0-1.0-1.27-2.27","battery-v0.2","","-1","&#9776;","elianto","#3366ff99","32","-1","0","0","","0","0","1","9999","3&age=9999&participant_ID=5&order=1","5",""
"pit-trial","140","628658","0.0-1.0-1.27-3.27","battery-v0.2","","-1","&#9776;","elianto","#3366ff99","32","-1","0","+10","","0","0","1","9999","3&age=9999&participant_ID=5&order=1","5",""
"pit-trial","141","633173","0.0-1.0-1.27-4.27","battery-v0.2","","-1","&#9776;","elianto","#3366ff99","32","-1","0","0","","0","0","1","9999","3&age=9999&participant_ID=5&order=1","5",""
"pit-trial","142","637685","0.0-1.0-1.28-0.28","battery-v0.2","","-1","&#9776;","elianto","#3366ff99","32","-1","0","0","","0","0","1","9999","3&age=9999&participant_ID=5&order=1","5",""
"pit-trial","143","642186","0.0-1.0-1.28-1.28","battery-v0.2","","-1","&#9776;","elianto","#3366ff99","32","-1","0","0","","0","0","1","9999","3&age=9999&participant_ID=5&order=1","5",""
"pit-trial","144","646698","0.0-1.0-1.28-2.28","battery-v0.2","","-1","&#9776;","elianto","#3366ff99","32","-1","0","0","","0","0","1","9999","3&age=9999&participant_ID=5&order=1","5",""
"pit-trial","145","651215","0.0-1.0-1.28-3.28","battery-v0.2","","-1","&#9776;","elianto","#3366ff99","32","-1","0","+10","","0","0","1","9999","3&age=9999&participant_ID=5&order=1","5",""
"pit-trial","146","655725","0.0-1.0-1.28-4.28","battery-v0.2","","-1","&#9776;","elianto","#3366ff99","32","-1","0","0","","0","0","1","9999","3&age=9999&participant_ID=5&order=1","5",""
"pit-trial","147","660240","0.0-1.0-1.29-0.29","battery-v0.2","","-1","&#9776;","elianto","#3366ff99","32","-1","0","0","","0","0","1","9999","3&age=9999&participant_ID=5&order=1","5",""
"pit-trial","148","664750","0.0-1.0-1.29-1.29","battery-v0.2","","-1","&#9776;","elianto","#3366ff99","32","-1","0","0","","0","0","1","9999","3&age=9999&participant_ID=5&order=1","5",""
"pit-trial","149","669264","0.0-1.0-1.29-2.29","battery-v0.2","","-1","&#9776;","elianto","#3366ff99","32","-1","0","0","","0","0","1","9999","3&age=9999&participant_ID=5&order=1","5",""
"pit-trial","150","673781","0.0-1.0-1.29-3.29","battery-v0.2","","-1","&#9776;","elianto","#3366ff99","32","-1","0","+10","","0","0","1","9999","3&age=9999&participant_ID=5&order=1","5",""
"pit-trial","151","678294","0.0-1.0-1.29-4.29","battery-v0.2","","-1","&#9776;","elianto","#3366ff99","32","-1","0","0","","0","0","1","9999","3&age=9999&participant_ID=5&order=1","5",""
"pit-trial","152","682799","0.0-1.0-1.30-0.30","battery-v0.2","","-1","&#9776;","elianto","#3366ff99","32","-1","0","0","","0","0","1","9999","3&age=9999&participant_ID=5&order=1","5",""
"pit-trial","153","687305","0.0-1.0-1.30-1.30","battery-v0.2","","-1","&#9776;","elianto","#3366ff99","32","-1","0","0","","0","0","1","9999","3&age=9999&participant_ID=5&order=1","5",""
"pit-trial","154","691816","0.0-1.0-1.30-2.30","battery-v0.2","","-1","&#9776;","elianto","#3366ff99","32","-1","0","0","","0","0","1","9999","3&age=9999&participant_ID=5&order=1","5",""
"pit-trial","155","696330","0.0-1.0-1.30-3.30","battery-v0.2","","-1","&#9776;","elianto","#3366ff99","32","-1","0","+10","","0","0","1","9999","3&age=9999&participant_ID=5&order=1","5",""
"pit-trial","156","700842","0.0-1.0-1.30-4.30","battery-v0.2","","-1","&#9776;","elianto","#3366ff99","32","-1","0","0","","0","0","1","9999","3&age=9999&participant_ID=5&order=1","5",""
"pit-trial","157","705364","0.0-1.0-1.31-0.31","battery-v0.2","","-1","&#9776;","elianto","#3366ff99","32","-1","0","0","","0","0","1","9999","3&age=9999&participant_ID=5&order=1","5",""
"pit-trial","158","709876","0.0-1.0-1.31-1.31","battery-v0.2","","-1","&#9776;","elianto","#3366ff99","32","-1","0","0","","0","0","1","9999","3&age=9999&participant_ID=5&order=1","5",""
"pit-trial","159","714391","0.0-1.0-1.31-2.31","battery-v0.2","","-1","&#9776;","elianto","#3366ff99","32","-1","0","0","","0","0","1","9999","3&age=9999&participant_ID=5&order=1","5",""
"pit-trial","160","718904","0.0-1.0-1.31-3.31","battery-v0.2","","-1","&#9776;","elianto","#3366ff99","32","-1","0","+10","","0","0","1","9999","3&age=9999&participant_ID=5&order=1","5",""
"pit-trial","161","723418","0.0-1.0-1.31-4.31","battery-v0.2","","-1","&#9776;","elianto","#3366ff99","32","-1","0","0","","0","0","1","9999","3&age=9999&participant_ID=5&order=1","5",""
"pit-trial","162","727927","0.0-1.0-1.32-0.32","battery-v0.2","","-1","&#9776;","elianto","#3366ff99","32","-1","0","0","","0","0","1","9999","3&age=9999&participant_ID=5&order=1","5",""
"pit-trial","163","732439","0.0-1.0-1.32-1.32","battery-v0.2","","-1","&#9776;","elianto","#3366ff99","32","-1","0","0","","0","0","1","9999","3&age=9999&participant_ID=5&order=1","5",""
"pit-trial","164","736941","0.0-1.0-1.32-2.32","battery-v0.2","","-1","&#9776;","elianto","#3366ff99","32","-1","0","0","","0","0","1","9999","3&age=9999&participant_ID=5&order=1","5",""
"pit-trial","165","741451","0.0-1.0-1.32-3.32","battery-v0.2","","-1","&#9776;","elianto","#3366ff99","32","-1","0","+10","","0","0","1","9999","3&age=9999&participant_ID=5&order=1","5",""
"pit-trial","166","745959","0.0-1.0-1.32-4.32","battery-v0.2","","-1","&#9776;","elianto","#3366ff99","32","-1","0","0","","0","0","1","9999","3&age=9999&participant_ID=5&order=1","5",""
"pit-trial","167","750471","0.0-1.0-1.33-0.33","battery-v0.2","","-1","&#9776;","elianto","#3366ff99","32","-1","0","0","","0","0","1","9999","3&age=9999&participant_ID=5&order=1","5",""
"pit-trial","168","754981","0.0-1.0-1.33-1.33","battery-v0.2","","-1","&#9776;","elianto","#3366ff99","32","-1","0","0","","0","0","1","9999","3&age=9999&participant_ID=5&order=1","5",""
"pit-trial","169","759492","0.0-1.0-1.33-2.33","battery-v0.2","","-1","&#9776;","elianto","#3366ff99","32","-1","0","0","","0","0","1","9999","3&age=9999&participant_ID=5&order=1","5",""
"pit-trial","170","763997","0.0-1.0-1.33-3.33","battery-v0.2","","-1","&#9776;","elianto","#3366ff99","32","-1","0","+10","","0","0","1","9999","3&age=9999&participant_ID=5&order=1","5",""
"pit-trial","171","768508","0.0-1.0-1.33-4.33","battery-v0.2","","-1","&#9776;","elianto","#3366ff99","32","-1","0","0","","0","0","1","9999","3&age=9999&participant_ID=5&order=1","5",""
"pit-trial","172","773016","0.0-1.0-1.34-0.34","battery-v0.2","","-1","&#9776;","elianto","#3366ff99","32","-1","0","0","","0","0","1","9999","3&age=9999&participant_ID=5&order=1","5",""
"pit-trial","173","777528","0.0-1.0-1.34-1.34","battery-v0.2","","-1","&#9776;","elianto","#3366ff99","32","-1","0","0","","0","0","1","9999","3&age=9999&participant_ID=5&order=1","5",""
"pit-trial","174","782035","0.0-1.0-1.34-2.34","battery-v0.2","","-1","&#9776;","elianto","#3366ff99","32","-1","0","0","","0","0","1","9999","3&age=9999&participant_ID=5&order=1","5",""
"pit-trial","175","786537","0.0-1.0-1.34-3.34","battery-v0.2","","-1","&#9776;","elianto","#3366ff99","32","-1","0","+10","","0","0","1","9999","3&age=9999&participant_ID=5&order=1","5",""
"pit-trial","176","791049","0.0-1.0-1.34-4.34","battery-v0.2","","-1","&#9776;","elianto","#3366ff99","32","-1","0","0","","0","0","1","9999","3&age=9999&participant_ID=5&order=1","5",""
"pit-trial","177","795560","0.0-1.0-1.35-0.35","battery-v0.2","","-1","&#9776;","elianto","#3366ff99","32","-1","0","0","","0","0","1","9999","3&age=9999&participant_ID=5&order=1","5",""
"pit-trial","178","800078","0.0-1.0-1.35-1.35","battery-v0.2","","-1","&#9776;","elianto","#3366ff99","32","-1","0","0","","0","0","1","9999","3&age=9999&participant_ID=5&order=1","5",""
"pit-trial","179","804591","0.0-1.0-1.35-2.35","battery-v0.2","","-1","&#9776;","elianto","#3366ff99","32","-1","0","0","","0","0","1","9999","3&age=9999&participant_ID=5&order=1","5",""
"pit-trial","180","809093","0.0-1.0-1.35-3.35","battery-v0.2","","-1","&#9776;","elianto","#3366ff99","32","-1","0","+10","","0","0","1","9999","3&age=9999&participant_ID=5&order=1","5",""
"pit-trial","181","813601","0.0-1.0-1.35-4.35","battery-v0.2","","-1","&#9776;","elianto","#3366ff99","32","-1","0","0","","0","0","1","9999","3&age=9999&participant_ID=5&order=1","5",""
"pit-trial","182","818105","0.0-1.0-1.36-0.36","battery-v0.2","","-1","&#9776;","elianto","#3366ff99","32","-1","0","0","","0","0","1","9999","3&age=9999&participant_ID=5&order=1","5",""
"pit-trial","183","822609","0.0-1.0-1.36-1.36","battery-v0.2","","-1","&#9776;","elianto","#3366ff99","32","-1","0","0","","0","0","1","9999","3&age=9999&participant_ID=5&order=1","5",""
"pit-trial","184","827118","0.0-1.0-1.36-2.36","battery-v0.2","","-1","&#9776;","elianto","#3366ff99","32","-1","0","0","","0","0","1","9999","3&age=9999&participant_ID=5&order=1","5",""
"pit-trial","185","831631","0.0-1.0-1.36-3.36","battery-v0.2","","-1","&#9776;","elianto","#3366ff99","32","-1","0","+10","","0","0","1","9999","3&age=9999&participant_ID=5&order=1","5",""
"pit-trial","186","836144","0.0-1.0-1.36-4.36","battery-v0.2","","-1","&#9776;","elianto","#3366ff99","32","-1","0","0","","0","0","1","9999","3&age=9999&participant_ID=5&order=1","5",""
"pit-trial","187","840650","0.0-1.0-1.37-0.37","battery-v0.2","","-1","&#9776;","elianto","#3366ff99","32","-1","0","0","","0","0","1","9999","3&age=9999&participant_ID=5&order=1","5",""
"pit-trial","188","845158","0.0-1.0-1.37-1.37","battery-v0.2","","-1","&#9776;","elianto","#3366ff99","32","-1","0","0","","0","0","1","9999","3&age=9999&participant_ID=5&order=1","5",""
"pit-trial","189","849669","0.0-1.0-1.37-2.37","battery-v0.2","","-1","&#9776;","elianto","#3366ff99","32","-1","0","0","","0","0","1","9999","3&age=9999&participant_ID=5&order=1","5",""
"pit-trial","190","854171","0.0-1.0-1.37-3.37","battery-v0.2","","-1","&#9776;","elianto","#3366ff99","32","-1","0","+10","","0","0","1","9999","3&age=9999&participant_ID=5&order=1","5",""
"pit-trial","191","858688","0.0-1.0-1.37-4.37","battery-v0.2","","-1","&#9776;","elianto","#3366ff99","32","-1","0","0","","0","0","1","9999","3&age=9999&participant_ID=5&order=1","5",""
"pit-trial","192","863201","0.0-1.0-1.38-0.38","battery-v0.2","","-1","&#9776;","elianto","#3366ff99","32","-1","0","0","","0","0","1","9999","3&age=9999&participant_ID=5&order=1","5",""
"pit-trial","193","867703","0.0-1.0-1.38-1.38","battery-v0.2","","-1","&#9776;","elianto","#3366ff99","32","-1","0","0","","0","0","1","9999","3&age=9999&participant_ID=5&order=1","5",""
"pit-trial","194","872214","0.0-1.0-1.38-2.38","battery-v0.2","","-1","&#9776;","elianto","#3366ff99","32","-1","0","0","","0","0","1","9999","3&age=9999&participant_ID=5&order=1","5",""
"pit-trial","195","876719","0.0-1.0-1.38-3.38","battery-v0.2","","-1","&#9776;","elianto","#3366ff99","32","-1","0","+10","","0","0","1","9999","3&age=9999&participant_ID=5&order=1","5",""
"pit-trial","196","881228","0.0-1.0-1.38-4.38","battery-v0.2","","-1","&#9776;","elianto","#3366ff99","32","-1","0","0","","0","0","1","9999","3&age=9999&participant_ID=5&order=1","5",""
"pit-trial","197","885735","0.0-1.0-1.39-0.39","battery-v0.2","","-1","&#9776;","elianto","#3366ff99","32","-1","0","0","","0","0","1","9999","3&age=9999&participant_ID=5&order=1","5",""
"pit-trial","198","890243","0.0-1.0-1.39-1.39","battery-v0.2","","-1","&#9776;","elianto","#3366ff99","32","-1","0","0","","0","0","1","9999","3&age=9999&participant_ID=5&order=1","5",""
"pit-trial","199","894747","0.0-1.0-1.39-2.39","battery-v0.2","","-1","&#9776;","elianto","#3366ff99","32","-1","0","0","","0","0","1","9999","3&age=9999&participant_ID=5&order=1","5",""
"pit-trial","200","899265","0.0-1.0-1.39-3.39","battery-v0.2","","-1","&#9776;","elianto","#3366ff99","32","-1","0","+10","","0","0","1","9999","3&age=9999&participant_ID=5&order=1","5",""
"pit-trial","201","903775","0.0-1.0-1.39-4.39","battery-v0.2","","-1","&#9776;","elianto","#3366ff99","32","-1","0","0","","0","0","1","9999","3&age=9999&participant_ID=5&order=1","5",""
"pit-trial","202","908279","0.0-1.0-1.40-0.40","battery-v0.2","","-1","&#9776;","elianto","#3366ff99","32","-1","0","0","","0","0","1","9999","3&age=9999&participant_ID=5&order=1","5",""
"pit-trial","203","912784","0.0-1.0-1.40-1.40","battery-v0.2","","-1","&#9776;","elianto","#3366ff99","32","-1","0","0","","0","0","1","9999","3&age=9999&participant_ID=5&order=1","5",""
"pit-trial","204","917295","0.0-1.0-1.40-2.40","battery-v0.2","","-1","&#9776;","elianto","#3366ff99","32","-1","0","0","","0","0","1","9999","3&age=9999&participant_ID=5&order=1","5",""
"pit-trial","205","921803","0.0-1.0-1.40-3.40","battery-v0.2","","-1","&#9776;","elianto","#3366ff99","32","-1","0","+10","","0","0","1","9999","3&age=9999&participant_ID=5&order=1","5",""
"pit-trial","206","926310","0.0-1.0-1.40-4.40","battery-v0.2","","-1","&#9776;","elianto","#3366ff99","32","-1","0","0","","0","0","1","9999","3&age=9999&participant_ID=5&order=1","5",""
"pit-trial","207","930816","0.0-1.0-1.41-0.41","battery-v0.2","","-1","&#9776;","elianto","#3366ff99","32","-1","0","0","","0","0","1","9999","3&age=9999&participant_ID=5&order=1","5",""
"pit-trial","208","935324","0.0-1.0-1.41-1.41","battery-v0.2","","-1","&#9776;","elianto","#3366ff99","32","-1","0","0","","0","0","1","9999","3&age=9999&participant_ID=5&order=1","5",""
"pit-trial","209","939833","0.0-1.0-1.41-2.41","battery-v0.2","","-1","&#9776;","elianto","#3366ff99","32","-1","0","0","","0","0","1","9999","3&age=9999&participant_ID=5&order=1","5",""
"pit-trial","210","944343","0.0-1.0-1.41-3.41","battery-v0.2","","-1","&#9776;","elianto","#3366ff99","32","-1","0","+10","","0","0","1","9999","3&age=9999&participant_ID=5&order=1","5",""
"pit-trial","211","951542","0.0-1.0-1.41-4.41","battery-v0.2","","-1","&#9776;","elianto","#3366ff99","32","-1","0","0","","0","0","1","9999","3&age=9999&participant_ID=5&order=1","5",""
"pit-trial","212","958659","0.0-1.0-1.42-0.42","battery-v0.2","","-1","&#9776;","elianto","#3366ff99","32","-1","0","0","","0","0","1","9999","3&age=9999&participant_ID=5&order=1","5",""
"pit-trial","213","965510","0.0-1.0-1.42-1.42","battery-v0.2","","-1","&#9776;","elianto","#3366ff99","32","-1","0","0","","0","0","1","9999","3&age=9999&participant_ID=5&order=1","5",""
"pit-trial","214","972664","0.0-1.0-1.42-2.42","battery-v0.2","","-1","&#9776;","elianto","#3366ff99","32","-1","0","0","","0","0","1","9999","3&age=9999&participant_ID=5&order=1","5",""
"pit-trial","215","979511","0.0-1.0-1.42-3.42","battery-v0.2","","-1","&#9776;","elianto","#3366ff99","32","-1","0","+10","","0","0","1","9999","3&age=9999&participant_ID=5&order=1","5",""
"pit-trial","216","986684","0.0-1.0-1.42-4.42","battery-v0.2","","-1","&#9776;","elianto","#3366ff99","32","-1","0","0","","0","0","1","9999","3&age=9999&participant_ID=5&order=1","5",""
"pit-trial","217","993464","0.0-1.0-1.43-0.43","battery-v0.2","","-1","&#9776;","elianto","#3366ff99","32","-1","0","0","","0","0","1","9999","3&age=9999&participant_ID=5&order=1","5",""
"pit-trial","218","1000575","0.0-1.0-1.43-1.43","battery-v0.2","","-1","&#9776;","elianto","#3366ff99","32","-1","0","0","","0","0","1","9999","3&age=9999&participant_ID=5&order=1","5",""
"pit-trial","219","1007644","0.0-1.0-1.43-2.43","battery-v0.2","","-1","&#9776;","elianto","#3366ff99","32","-1","0","0","","0","0","1","9999","3&age=9999&participant_ID=5&order=1","5",""
"pit-trial","220","1014542","0.0-1.0-1.43-3.43","battery-v0.2","","-1","&#9776;","elianto","#3366ff99","32","-1","0","+10","","0","0","1","9999","3&age=9999&participant_ID=5&order=1","5",""
"pit-trial","221","1021710","0.0-1.0-1.43-4.43","battery-v0.2","","-1","&#9776;","elianto","#3366ff99","32","-1","0","0","","0","0","1","9999","3&age=9999&participant_ID=5&order=1","5",""
"pit-trial","222","1028442","0.0-1.0-1.44-0.44","battery-v0.2","","-1","&#9776;","elianto","#3366ff99","32","-1","0","0","","0","0","1","9999","3&age=9999&participant_ID=5&order=1","5",""
"pit-trial","223","1035502","0.0-1.0-1.44-1.44","battery-v0.2","","-1","&#9776;","elianto","#3366ff99","32","-1","0","0","","0","0","1","9999","3&age=9999&participant_ID=5&order=1","5",""
"pit-trial","224","1042656","0.0-1.0-1.44-2.44","battery-v0.2","","-1","&#9776;","elianto","#3366ff99","32","-1","0","0","","0","0","1","9999","3&age=9999&participant_ID=5&order=1","5",""
"pit-trial","225","1049568","0.0-1.0-1.44-3.44","battery-v0.2","","-1","&#9776;","elianto","#3366ff99","32","-1","0","+10","","0","0","1","9999","3&age=9999&participant_ID=5&order=1","5",""
"pit-trial","226","1056651","0.0-1.0-1.44-4.44","battery-v0.2","","-1","&#9776;","elianto","#3366ff99","32","-1","0","0","","0","0","1","9999","3&age=9999&participant_ID=5&order=1","5",""
"pit-trial","227","1063533","0.0-1.0-1.45-0.45","battery-v0.2","","-1","&#9776;","elianto","#3366ff99","32","-1","0","0","","0","0","1","9999","3&age=9999&participant_ID=5&order=1","5",""
"pit-trial","228","1070686","0.0-1.0-1.45-1.45","battery-v0.2","","-1","&#9776;","elianto","#3366ff99","32","-1","0","0","","0","0","1","9999","3&age=9999&participant_ID=5&order=1","5",""
"pit-trial","229","1077466","0.0-1.0-1.45-2.45","battery-v0.2","","-1","&#9776;","elianto","#3366ff99","32","-1","0","0","","0","0","1","9999","3&age=9999&participant_ID=5&order=1","5",""
"pit-trial","230","1084582","0.0-1.0-1.45-3.45","battery-v0.2","","-1","&#9776;","elianto","#3366ff99","32","-1","0","+10","","0","0","1","9999","3&age=9999&participant_ID=5&order=1","5",""
"pit-trial","231","1091683","0.0-1.0-1.45-4.45","battery-v0.2","","-1","&#9776;","elianto","#3366ff99","32","-1","0","0","","0","0","1","9999","3&age=9999&participant_ID=5&order=1","5",""
"pit-trial","232","1098497","0.0-1.0-1.46-0.46","battery-v0.2","","-1","&#9776;","elianto","#3366ff99","32","-1","0","0","","0","0","1","9999","3&age=9999&participant_ID=5&order=1","5",""
"pit-trial","233","1105687","0.0-1.0-1.46-1.46","battery-v0.2","","-1","&#9776;","elianto","#3366ff99","32","-1","0","0","","0","0","1","9999","3&age=9999&participant_ID=5&order=1","5",""
"pit-trial","234","1112492","0.0-1.0-1.46-2.46","battery-v0.2","","-1","&#9776;","elianto","#3366ff99","32","-1","0","0","","0","0","1","9999","3&age=9999&participant_ID=5&order=1","5",""
"pit-trial","235","1119660","0.0-1.0-1.46-3.46","battery-v0.2","","-1","&#9776;","elianto","#3366ff99","32","-1","0","+10","","0","0","1","9999","3&age=9999&participant_ID=5&order=1","5",""
"pit-trial","236","1126504","0.0-1.0-1.46-4.46","battery-v0.2","","-1","&#9776;","elianto","#3366ff99","32","-1","0","0","","0","0","1","9999","3&age=9999&participant_ID=5&order=1","5",""
"pit-trial","237","1133662","0.0-1.0-1.47-0.47","battery-v0.2","","-1","&#9776;","elianto","#3366ff99","32","-1","0","0","","0","0","1","9999","3&age=9999&participant_ID=5&order=1","5",""
"pit-trial","238","1140489","0.0-1.0-1.47-1.47","battery-v0.2","","-1","&#9776;","elianto","#3366ff99","32","-1","0","0","","0","0","1","9999","3&age=9999&participant_ID=5&order=1","5",""
"pit-trial","239","1147590","0.0-1.0-1.47-2.47","battery-v0.2","","-1","&#9776;","elianto","#3366ff99","32","-1","0","0","","0","0","1","9999","3&age=9999&participant_ID=5&order=1","5",""
"pit-trial","240","1154651","0.0-1.0-1.47-3.47","battery-v0.2","","-1","&#9776;","elianto","#3366ff99","32","-1","0","+10","","0","0","1","9999","3&age=9999&participant_ID=5&order=1","5",""
"pit-trial","241","1161536","0.0-1.0-1.47-4.47","battery-v0.2","","-1","&#9776;","elianto","#3366ff99","32","-1","0","0","","0","0","1","9999","3&age=9999&participant_ID=5&order=1","5",""
"pit-trial","242","1168717","0.0-1.0-1.48-0.48","battery-v0.2","","-1","&#9776;","elianto","#3366ff99","32","-1","0","0","","0","0","1","9999","3&age=9999&participant_ID=5&order=1","5",""
"pit-trial","243","1175440","0.0-1.0-1.48-1.48","battery-v0.2","","-1","&#9776;","elianto","#3366ff99","32","-1","0","0","","0","0","1","9999","3&age=9999&participant_ID=5&order=1","5",""
"pit-trial","244","1182472","0.0-1.0-1.48-2.48","battery-v0.2","","-1","&#9776;","elianto","#3366ff99","32","-1","0","0","","0","0","1","9999","3&age=9999&participant_ID=5&order=1","5",""
"pit-trial","245","1189571","0.0-1.0-1.48-3.48","battery-v0.2","","-1","&#9776;","elianto","#3366ff99","32","-1","0","+10","","0","0","1","9999","3&age=9999&participant_ID=5&order=1","5",""
"pit-trial","246","1196644","0.0-1.0-1.48-4.48","battery-v0.2","","-1","&#9776;","elianto","#3366ff99","32","-1","0","0","","0","0","1","9999","3&age=9999&participant_ID=5&order=1","5",""
"pit-trial","247","1203542","0.0-1.0-1.49-0.49","battery-v0.2","","-1","&#9776;","elianto","#3366ff99","32","-1","0","0","","0","0","1","9999","3&age=9999&participant_ID=5&order=1","5",""
"pit-trial","248","1210660","0.0-1.0-1.49-1.49","battery-v0.2","","-1","&#9776;","elianto","#3366ff99","32","-1","0","0","","0","0","1","9999","3&age=9999&participant_ID=5&order=1","5",""
"pit-trial","249","1217508","0.0-1.0-1.49-2.49","battery-v0.2","","-1","&#9776;","elianto","#3366ff99","32","-1","0","0","","0","0","1","9999","3&age=9999&participant_ID=5&order=1","5",""
"pit-trial","250","1224726","0.0-1.0-1.49-3.49","battery-v0.2","","-1","&#9776;","elianto","#3366ff99","32","-1","0","+10","","0","0","1","9999","3&age=9999&participant_ID=5&order=1","5",""
"pit-trial","251","1231382","0.0-1.0-1.49-4.49","battery-v0.2","","-1","&#9776;","elianto","#3366ff99","32","-1","0","0","","0","0","1","9999","3&age=9999&participant_ID=5&order=1","5",""
"pit-trial","252","1238417","0.0-1.0-1.50-0.50","battery-v0.2","","-1","&#9776;","elianto","#3366ff99","32","-1","0","0","","0","0","1","9999","3&age=9999&participant_ID=5&order=1","5",""
"pit-trial","253","1244738","0.0-1.0-1.50-1.50","battery-v0.2","","-1","&#9776;","elianto","#3366ff99","32","-1","0","0","","0","0","1","9999","3&age=9999&participant_ID=5&order=1","5",""
"pit-trial","254","1322340","0.0-1.0-1.50-2.50","battery-v0.2","","-1","&#9776;","elianto","#3366ff99","32","-1","0","0","","0","0","1","9999","3&age=9999&participant_ID=5&order=1","5",""
"pit-trial","255","1448644","0.0-1.0-1.50-3.50","battery-v0.2","","-1","&#9776;","elianto","#3366ff99","32","-1","0","+10","","0","0","1","9999","3&age=9999&participant_ID=5&order=1","5",""
"pit-trial","256","1555157","0.0-1.0-1.50-4.50","battery-v0.2","","-1","&#9776;","elianto","#3366ff99","32","-1","0","0","","0","0","1","9999","3&age=9999&participant_ID=5&order=1","5",""
"pit-trial","257","1678555","0.0-1.0-1.51-0.51","battery-v0.2","","-1","&#9776;","elianto","#3366ff99","32","-1","0","0","","0","0","1","9999","3&age=9999&participant_ID=5&order=1","5",""
"pit-trial","258","1811640","0.0-1.0-1.51-1.51","battery-v0.2","","-1","&#9776;","elianto","#3366ff99","32","-1","0","0","","0","0","1","9999","3&age=9999&participant_ID=5&order=1","5",""
"pit-trial","259","1938968","0.0-1.0-1.51-2.51","battery-v0.2","","-1","&#9776;","elianto","#3366ff99","32","-1","0","0","","0","0","1","9999","3&age=9999&participant_ID=5&order=1","5",""
"pit-trial","260","2069987","0.0-1.0-1.51-3.51","battery-v0.2","","-1","&#9776;","elianto","#3366ff99","32","-1","0","+10","","0","0","1","9999","3&age=9999&participant_ID=5&order=1","5",""
"pit-trial","261","2198127","0.0-1.0-1.51-4.51","battery-v0.2","","-1","&#9776;","elianto","#3366ff99","32","-1","0","0","","0","0","1","9999","3&age=9999&participant_ID=5&order=1","5",""
"pit-trial","262","2325615","0.0-1.0-1.52-0.52","battery-v0.2","","-1","&#9776;","elianto","#3366ff99","32","-1","0","0","","0","0","1","9999","3&age=9999&participant_ID=5&order=1","5",""
"pit-trial","263","2458935","0.0-1.0-1.52-1.52","battery-v0.2","","-1","&#9776;","elianto","#3366ff99","32","-1","0","0","","0","0","1","9999","3&age=9999&participant_ID=5&order=1","5",""
"pit-trial","264","2585720","0.0-1.0-1.52-2.52","battery-v0.2","","-1","&#9776;","elianto","#3366ff99","32","-1","0","0","","0","0","1","9999","3&age=9999&participant_ID=5&order=1","5",""
"pit-trial","265","2713087","0.0-1.0-1.52-3.52","battery-v0.2","","-1","&#9776;","elianto","#3366ff99","32","-1","0","+10","","0","0","1","9999","3&age=9999&participant_ID=5&order=1","5",""
"pit-trial","266","2844512","0.0-1.0-1.52-4.52","battery-v0.2","","-1","&#9776;","elianto","#3366ff99","32","-1","0","0","","0","0","1","9999","3&age=9999&participant_ID=5&order=1","5",""
"pit-trial","267","2969949","0.0-1.0-1.53-0.53","battery-v0.2","","-1","&#9776;","elianto","#3366ff99","32","-1","0","0","","0","0","1","9999","3&age=9999&participant_ID=5&order=1","5",""
"pit-trial","268","3097700","0.0-1.0-1.53-1.53","battery-v0.2","","-1","&#9776;","elianto","#3366ff99","32","-1","0","0","","0","0","1","9999","3&age=9999&participant_ID=5&order=1","5",""
"pit-trial","269","3229922","0.0-1.0-1.53-2.53","battery-v0.2","","-1","&#9776;","elianto","#3366ff99","32","-1","0","0","","0","0","1","9999","3&age=9999&participant_ID=5&order=1","5",""
"pit-trial","270","3357019","0.0-1.0-1.53-3.53","battery-v0.2","","-1","&#9776;","elianto","#3366ff99","32","-1","0","+10","","0","0","1","9999","3&age=9999&participant_ID=5&order=1","5",""
"pit-trial","271","3484958","0.0-1.0-1.53-4.53","battery-v0.2","","-1","&#9776;","elianto","#3366ff99","32","-1","0","0","","0","0","1","9999","3&age=9999&participant_ID=5&order=1","5",""
"pit-trial","272","3616036","0.0-1.0-1.54-0.54","battery-v0.2","","-1","&#9776;","elianto","#3366ff99","32","-1","0","0","","0","0","1","9999","3&age=9999&participant_ID=5&order=1","5",""
"pit-trial","273","3743212","0.0-1.0-1.54-1.54","battery-v0.2","","-1","&#9776;","elianto","#3366ff99","32","-1","0","0","","0","0","1","9999","3&age=9999&participant_ID=5&order=1","5",""
"pit-trial","274","3871233","0.0-1.0-1.54-2.54","battery-v0.2","","-1","&#9776;","elianto","#3366ff99","32","-1","0","0","","0","0","1","9999","3&age=9999&participant_ID=5&order=1","5",""
"pit-trial","275","4002400","0.0-1.0-1.54-3.54","battery-v0.2","","-1","&#9776;","elianto","#3366ff99","32","-1","0","+10","","0","0","1","9999","3&age=9999&participant_ID=5&order=1","5",""
"pit-trial","276","4129957","0.0-1.0-1.54-4.54","battery-v0.2","","-1","&#9776;","elianto","#3366ff99","32","-1","0","0","","0","0","1","9999","3&age=9999&participant_ID=5&order=1","5",""
"pit-trial","277","4257737","0.0-1.0-1.55-0.55","battery-v0.2","","-1","&#9776;","elianto","#3366ff99","32","-1","0","0","","0","0","1","9999","3&age=9999&participant_ID=5&order=1","5",""
"pit-trial","278","4389817","0.0-1.0-1.55-1.55","battery-v0.2","","-1","&#9776;","elianto","#3366ff99","32","-1","0","0","","0","0","1","9999","3&age=9999&participant_ID=5&order=1","5",""
"pit-trial","279","4519645","0.0-1.0-1.55-2.55","battery-v0.2","","-1","&#9776;","elianto","#3366ff99","32","-1","0","0","","0","0","1","9999","3&age=9999&participant_ID=5&order=1","5",""
"pit-trial","280","4645474","0.0-1.0-1.55-3.55","battery-v0.2","","-1","&#9776;","elianto","#3366ff99","32","-1","0","+10","","0","0","1","9999","3&age=9999&participant_ID=5&order=1","5",""
"pit-trial","281","4777366","0.0-1.0-1.55-4.55","battery-v0.2","","-1","&#9776;","elianto","#3366ff99","32","-1","0","0","","0","0","1","9999","3&age=9999&participant_ID=5&order=1","5",""
"pit-trial","282","4904638","0.0-1.0-1.56-0.56","battery-v0.2","","-1","&#9776;","elianto","#3366ff99","32","-1","0","0","","0","0","1","9999","3&age=9999&participant_ID=5&order=1","5",""
"pit-trial","283","5035955","0.0-1.0-1.56-1.56","battery-v0.2","","-1","&#9776;","elianto","#3366ff99","32","-1","0","0","","0","0","1","9999","3&age=9999&participant_ID=5&order=1","5",""
"pit-trial","284","5163653","0.0-1.0-1.56-2.56","battery-v0.2","","-1","&#9776;","elianto","#3366ff99","32","-1","0","0","","0","0","1","9999","3&age=9999&participant_ID=5&order=1","5",""
"pit-trial","285","5290851","0.0-1.0-1.56-3.56","battery-v0.2","","-1","&#9776;","elianto","#3366ff99","32","-1","0","+10","","0","0","1","9999","3&age=9999&participant_ID=5&order=1","5",""
"pit-trial","286","5422123","0.0-1.0-1.56-4.56","battery-v0.2","","-1","&#9776;","elianto","#3366ff99","32","-1","0","0","","0","0","1","9999","3&age=9999&participant_ID=5&order=1","5",""
"pit-trial","287","5549097","0.0-1.0-1.57-0.57","battery-v0.2","","-1","&#9776;","elianto","#3366ff99","32","-1","0","0","","0","0","1","9999","3&age=9999&participant_ID=5&order=1","5",""
"pit-trial","288","5676312","0.0-1.0-1.57-1.57","battery-v0.2","","-1","&#9776;","elianto","#3366ff99","32","-1","0","0","","0","0","1","9999","3&age=9999&participant_ID=5&order=1","5",""
"pit-trial","289","5807679","0.0-1.0-1.57-2.57","battery-v0.2","","-1","&#9776;","elianto","#3366ff99","32","-1","0","0","","0","0","1","9999","3&age=9999&participant_ID=5&order=1","5",""
"pit-trial","290","5935473","0.0-1.0-1.57-3.57","battery-v0.2","","-1","&#9776;","elianto","#3366ff99","32","-1","0","+10","","0","0","1","9999","3&age=9999&participant_ID=5&order=1","5",""
"pit-trial","291","6067022","0.0-1.0-1.57-4.57","battery-v0.2","","-1","&#9776;","elianto","#3366ff99","32","-1","0","0","","0","0","1","9999","3&age=9999&participant_ID=5&order=1","5",""
"pit-trial","292","6193566","0.0-1.0-1.58-0.58","battery-v0.2","","-1","&#9776;","elianto","#3366ff99","32","-1","0","0","","0","0","1","9999","3&age=9999&participant_ID=5&order=1","5",""
"pit-trial","293","6323369","0.0-1.0-1.58-1.58","battery-v0.2","","-1","&#9776;","elianto","#3366ff99","32","-1","0","0","","0","0","1","9999","3&age=9999&participant_ID=5&order=1","5",""
"pit-trial","294","6449645","0.0-1.0-1.58-2.58","battery-v0.2","","-1","&#9776;","elianto","#3366ff99","32","-1","0","0","","0","0","1","9999","3&age=9999&participant_ID=5&order=1","5",""
"pit-trial","295","6581794","0.0-1.0-1.58-3.58","battery-v0.2","","-1","&#9776;","elianto","#3366ff99","32","-1","0","+10","","0","0","1","9999","3&age=9999&participant_ID=5&order=1","5",""
"pit-trial","296","6709122","0.0-1.0-1.58-4.58","battery-v0.2","","-1","&#9776;","elianto","#3366ff99","32","-1","0","0","","0","0","1","9999","3&age=9999&participant_ID=5&order=1","5",""
"pit-trial","297","6836382","0.0-1.0-1.59-0.59","battery-v0.2","","-1","&#9776;","elianto","#3366ff99","32","-1","0","0","","0","0","1","9999","3&age=9999&participant_ID=5&order=1","5",""
"pit-trial","298","6966829","0.0-1.0-1.59-1.59","battery-v0.2","","-1","&#9776;","elianto","#3366ff99","32","-1","0","0","","0","0","1","9999","3&age=9999&participant_ID=5&order=1","5",""
"pit-trial","299","7093823","0.0-1.0-1.59-2.59","battery-v0.2","","-1","&#9776;","elianto","#3366ff99","32","-1","0","0","","0","0","1","9999","3&age=9999&participant_ID=5&order=1","5",""
"pit-trial","300","7224935","0.0-1.0-1.59-3.59","battery-v0.2","","-1","&#9776;","elianto","#3366ff99","32","-1","0","+10","","0","0","1","9999","3&age=9999&participant_ID=5&order=1","5",""
"pit-trial","301","7351726","0.0-1.0-1.59-4.59","battery-v0.2","","-1","&#9776;","elianto","#3366ff99","32","-1","0","0","","0","0","1","9999","3&age=9999&participant_ID=5&order=1","5",""
"pit-trial","302","7478903","0.0-1.0-1.60-0.60","battery-v0.2","","-1","&#9776;","elianto","#3366ff99","32","-1","0","0","","0","0","1","9999","3&age=9999&participant_ID=5&order=1","5",""
"pit-trial","303","7609611","0.0-1.0-1.60-1.60","battery-v0.2","","-1","&#9776;","elianto","#3366ff99","32","-1","0","0","","0","0","1","9999","3&age=9999&participant_ID=5&order=1","5",""
"pit-trial","304","7737605","0.0-1.0-1.60-2.60","battery-v0.2","","-1","&#9776;","elianto","#3366ff99","32","-1","0","0","","0","0","1","9999","3&age=9999&participant_ID=5&order=1","5",""
"pit-trial","305","7865140","0.0-1.0-1.60-3.60","battery-v0.2","","-1","&#9776;","elianto","#3366ff99","32","-1","0","+10","","0","0","1","9999","3&age=9999&participant_ID=5&order=1","5",""
"pit-trial","306","7996411","0.0-1.0-1.60-4.60","battery-v0.2","","-1","&#9776;","elianto","#3366ff99","32","-1","0","0","","0","0","1","9999","3&age=9999&participant_ID=5&order=1","5",""
"call-function","307","7996417","0.0-1.0-2.0","battery-v0.2","","","","","","","","","","","","","","","","",""
