"trial_type","trial_index","time_elapsed","internal_node_id","task_version","success","view_history","rt","responses","num_errors","age","subject","participantId","rune","rune_set","hex","correct","choice","accuracy","outcome","keys","total_keys","block","practice","value","sub","trial","stimulus","robot","valence","action","sham","browser_interactions"
"pavlovia","0","18","0.0-0.0","battery-v0.2","","","","","","","","","","","","","","","","","","","","","","","","","","","",""
"fullscreen","1","2380","0.0-1.0","battery-v0.2","true","","","","","","","","","","","","","","","","","","","","","","","","","","",""
"pit-instructions","2","7632","0.0-2.0-0.0","battery-v0.2","","[{""page_index"":0,""viewing_time"":5245.9000000059605}]","5246.699999988079","","","","","","","","","","","","","","","","","","","","","","","","",""
"pit-comprehension","3","11172","0.0-2.0-1.0-0.0","battery-v0.2","","","3531.5","[""shark""]","0","22","1001","918","","","","","","","","","","","","","","","","","","","",""
"pit-instructions","4","12487","0.0-2.0-1.0-1.0","battery-v0.2","","[{""page_index"":0,""viewing_time"":1302.0999999940395}]","1303","","","","","","","","","","","","","","","","","","","","","","","","",""
"pit-comprehension","5","15169","0.0-2.0-2.0-0.0","battery-v0.2","","","2672.800000011921","[""tiger""]","0","22","1001","918","","","","","","","","","","","","","","","","","","","",""
"pit-instructions","6","16144","0.0-2.0-2.0-1.0","battery-v0.2","","[{""page_index"":0,""viewing_time"":966.7999999821186}]","967.5","","","","","","","","","","","","","","","","","","","","","","","","",""
"pit-instructions","7","124759","0.0-2.0-3.0","battery-v0.2","","[{""page_index"":0,""viewing_time"":8695.40000000596},{""page_index"":1,""viewing_time"":7263.9000000059605},{""page_index"":2,""viewing_time"":6158.5},{""page_index"":3,""viewing_time"":5797.800000011921},{""page_index"":4,""viewing_time"":7462.5999999940395},{""page_index"":5,""viewing_time"":6528.699999988079},{""page_index"":6,""viewing_time"":7180.200000017881},{""page_index"":7,""viewing_time"":7346.5999999940395},{""page_index"":8,""viewing_time"":11766.40000000596},{""page_index"":9,""viewing_time"":10598.899999976158},{""page_index"":10,""viewing_time"":8641},{""page_index"":11,""viewing_time"":8407.700000017881},{""page_index"":12,""viewing_time"":6563.799999982119},{""page_index"":13,""viewing_time"":6195.4000000059605}]","108607.40000000596","","","","","","","","","","","","","","","","","","","","","","","","",""
"pit-trial","8","128102","0.0-2.0-4.0-0.0","battery-v0.2","","","481.69999998807907","","","22","1001","918","&#9784;","elianto","#FFFFF080"," "," ","1","&#10004","[1332.699999988079]","1","0","0","","","","","","","","",""
"pit-trial","9","131388","0.0-2.0-4.1-0.1","battery-v0.2","","","421.2999999821186","","","22","1001","918","&#9784;","elianto","#FFFFF080"," "," ","1","&#10004","[1271.5999999940395]","1","0","0","","","","","","","","",""
"pit-trial","10","134597","0.0-2.0-4.2-0.2","battery-v0.2","","","352.40000000596046","","","22","1001","918","&#9784;","elianto","#FFFFF080"," "," ","1","&#10004","[1202.5]","1","0","0","","","","","","","","",""
"pit-trial","11","137894","0.0-2.0-4.3-0.3","battery-v0.2","","","441.90000000596046","","","22","1001","918","&#9784;","elianto","#FFFFF080"," "," ","1","&#10004","[1292]","1","0","0","","","","","","","","",""
"pit-trial","12","141214","0.0-2.0-4.4-0.4","battery-v0.2","","","464.09999999403954","","","22","1001","918","&#9784;","elianto","#FFFFF080"," "," ","1","&#10004","[1315.5999999940395]","1","0","0","","","","","","","","",""
"pit-instructions","13","163613","0.0-2.0-5.0","battery-v0.2","","[{""page_index"":0,""viewing_time"":6079.5},{""page_index"":1,""viewing_time"":5115.299999982119},{""page_index"":2,""viewing_time"":5997.5},{""page_index"":3,""viewing_time"":5197.800000011921}]","22390.59999999404","","","","","","","","","","","","","","","","","","","","","","","","",""
"pit-trial","14","168475","0.0-2.0-6.0-0.0","battery-v0.2","","","-1","","","22","1001","918","&#9854;","elianto","#FFFFF080","-1","-1","1","&#10004","[]","0","0","1","","","","","","","","",""
"pit-trial","15","173340","0.0-2.0-6.1-0.1","battery-v0.2","","","-1","","","22","1001","918","&#9854;","elianto","#FFFFF080","-1","-1","1","&#10004","[]","0","0","1","","","","","","","","",""
"pit-trial","16","178198","0.0-2.0-6.2-0.2","battery-v0.2","","","-1","","","22","1001","918","&#9854;","elianto","#FFFFF080","-1","-1","1","&#10004","[]","0","0","1","","","","","","","","",""
"pit-trial","17","183060","0.0-2.0-6.3-0.3","battery-v0.2","","","-1","","","22","1001","918","&#9854;","elianto","#FFFFF080","-1","-1","1","&#10004","[]","0","0","1","","","","","","","","",""
"pit-trial","18","187922","0.0-2.0-6.4-0.4","battery-v0.2","","","-1","","","22","1001","918","&#9854;","elianto","#FFFFF080","-1","-1","1","&#10004","[]","0","0","1","","","","","","","","",""
"pit-instructions","19","327597","0.0-2.0-7.0","battery-v0.2","","[{""page_index"":0,""viewing_time"":6649},{""page_index"":1,""viewing_time"":8145.5999999940395},{""page_index"":2,""viewing_time"":7611.9000000059605},{""page_index"":3,""viewing_time"":7442.9000000059605},{""page_index"":4,""viewing_time"":7812.5},{""page_index"":5,""viewing_time"":7263.9000000059605},{""page_index"":6,""viewing_time"":5628.5999999940395},{""page_index"":7,""viewing_time"":8529.90000000596},{""page_index"":8,""viewing_time"":8380.09999999404},{""page_index"":9,""viewing_time"":6913.199999988079},{""page_index"":10,""viewing_time"":7930.5},{""page_index"":11,""viewing_time"":6579.700000017881},{""page_index"":12,""viewing_time"":10350},{""page_index"":13,""viewing_time"":8396.09999999404},{""page_index"":14,""viewing_time"":8980.199999988079},{""page_index"":15,""viewing_time"":8962.90000000596},{""page_index"":16,""viewing_time"":6515.4000000059605},{""page_index"":17,""viewing_time"":7574.699999988079}]","139667.70000001788","","","","","","","","","","","","","","","","","","","","","","","","",""
"pit-trial","20","331233","0.0-2.0-8.0-0.0","battery-v0.2","","","778.2000000178814","","","22","1001","918","&#9776;","elianto","#3366ff99"," "," ","1","+10","[1628.5999999940395]","1","0","1","","","","","","","","",""
"pit-trial","21","334543","0.0-2.0-8.0-1.0","battery-v0.2","","","447.10000002384186","","","22","1001","918","&#9776;","elianto","#3366ff99"," "," ","1","+10","[1297.8999999761581]","1","0","1","","","","","","","","",""
"pit-trial","22","337752","0.0-2.0-8.0-2.0","battery-v0.2","","","350","","","22","1001","918","&#9776;","elianto","#3366ff99"," "," ","1","+10","[1201.4000000059605]","1","0","1","","","","","","","","",""
"pit-trial","23","341019","0.0-2.0-8.0-3.0","battery-v0.2","","","405","","","22","1001","918","&#9776;","elianto","#3366ff99"," "," ","1","0","[1255.2999999821186]","1","0","1","","","","","","","","",""
"pit-trial","24","344141","0.0-2.0-8.0-4.0","battery-v0.2","","","258.2999999821186","","","22","1001","918","&#9776;","elianto","#3366ff99"," "," ","1","+10","[1109.8999999761581]","1","0","1","","","","","","","","",""
"call-function","25","344147","0.0-2.0-9.0","battery-v0.2","","","","","","","","","","","","","","","","","","","","","","","","","","","",""
"pit-instructions","26","383850","0.0-2.0-10.0","battery-v0.2","","[{""page_index"":0,""viewing_time"":5528.5},{""page_index"":1,""viewing_time"":7037.5},{""page_index"":2,""viewing_time"":9411.300000011921},{""page_index"":3,""viewing_time"":9809.799999982119},{""page_index"":4,""viewing_time"":7914}]","39701.40000000596","","","","","","","","","","","","","","","","","","","","","","","","",""
"pit-trial","27","388713","0.0-2.0-11.0-0.0","battery-v0.2","","","-1","","","22","1001","918","&#9761;","elianto","#3366ff99","-1","-1","1","+10","[]","0","0","2","","","","","","","","",""
"pit-trial","28","393578","0.0-2.0-11.0-1.0","battery-v0.2","","","-1","","","22","1001","918","&#9761;","elianto","#3366ff99","-1","-1","1","+10","[]","0","0","2","","","","","","","","",""
"pit-trial","29","398443","0.0-2.0-11.0-2.0","battery-v0.2","","","-1","","","22","1001","918","&#9761;","elianto","#3366ff99","-1","-1","1","+10","[]","0","0","2","","","","","","","","",""
"pit-trial","30","403307","0.0-2.0-11.0-3.0","battery-v0.2","","","-1","","","22","1001","918","&#9761;","elianto","#3366ff99","-1","-1","1","0","[]","0","0","2","","","","","","","","",""
"pit-trial","31","408171","0.0-2.0-11.0-4.0","battery-v0.2","","","-1","","","22","1001","918","&#9761;","elianto","#3366ff99","-1","-1","1","+10","[]","0","0","2","","","","","","","","",""
"call-function","32","408178","0.0-2.0-12.0","battery-v0.2","","","","","","","","","","","","","","","","","","","","","","","","","","","",""
"pit-instructions","33","450070","0.0-2.0-13.0","battery-v0.2","","[{""page_index"":0,""viewing_time"":4826.5},{""page_index"":1,""viewing_time"":8392.100000023842},{""page_index"":2,""viewing_time"":5276.199999988079},{""page_index"":3,""viewing_time"":12747.199999988079},{""page_index"":4,""viewing_time"":10649}]","41891.5","","","","","","","","","","","","","","","","","","","","","","","","",""
"pit-trial","34","454927","0.0-2.0-14.0-0.0","battery-v0.2","","","-1","","","22","1001","918","&#9826;","elianto","#f73b6a7A","-1","-1","1","0","[]","0","0","3","","","","","","","","",""
"pit-trial","35","459794","0.0-2.0-14.0-1.0","battery-v0.2","","","-1","","","22","1001","918","&#9826;","elianto","#f73b6a7A","-1","-1","1","0","[]","0","0","3","","","","","","","","",""
"pit-trial","36","464656","0.0-2.0-14.0-2.0","battery-v0.2","","","-1","","","22","1001","918","&#9826;","elianto","#f73b6a7A","-1","-1","1","0","[]","0","0","3","","","","","","","","",""
"pit-trial","37","469517","0.0-2.0-14.0-3.0","battery-v0.2","","","-1","","","22","1001","918","&#9826;","elianto","#f73b6a7A","-1","-1","1","-10","[]","0","0","3","","","","","","","","",""
"pit-trial","38","474384","0.0-2.0-14.0-4.0","battery-v0.2","","","-1","","","22","1001","918","&#9826;","elianto","#f73b6a7A","-1","-1","1","0","[]","0","0","3","","","","","","","","",""
"call-function","39","474390","0.0-2.0-15.0","battery-v0.2","","","","","","","","","","","","","","","","","","","","","","","","","","","",""
"pit-instructions","40","503195","0.0-2.0-16.0","battery-v0.2","","[{""page_index"":0,""viewing_time"":7752.100000023842},{""page_index"":1,""viewing_time"":9897.09999999404},{""page_index"":2,""viewing_time"":6279.0999999940395},{""page_index"":3,""viewing_time"":4876}]","28805","","","","","","","","","","","","","","","","","","","","","","","","",""
"pit-trial","41","506503","0.0-2.0-17.0-0.0","battery-v0.2","","","449.7000000178814","","","22","1001","918","&#9789;","elianto","#f73b6a7A"," "," ","1","0","[1300]","1","0","4","","","","","","","","",""
"pit-trial","42","509689","0.0-2.0-17.0-1.0","battery-v0.2","","","324.40000000596046","","","22","1001","918","&#9789;","elianto","#f73b6a7A"," "," ","1","0","[1175.9000000059605]","1","0","4","","","","","","","","",""
"pit-trial","43","512807","0.0-2.0-17.0-2.0","battery-v0.2","","","260.69999998807907","","","22","1001","918","&#9789;","elianto","#f73b6a7A"," "," ","1","0","[1111]","1","0","4","","","","","","","","",""
"pit-trial","44","516093","0.0-2.0-17.0-3.0","battery-v0.2","","","426.80000001192093","","","22","1001","918","&#9789;","elianto","#f73b6a7A"," "," ","1","-10","[1277.0999999940395]","1","0","4","","","","","","","","",""
"pit-trial","45","520954","0.0-2.0-17.0-4.0","battery-v0.2","","","-1","","","22","1001","918","&#9789;","elianto","#f73b6a7A"," ","-1","0","-10","[]","0","0","4","","","","","","","","",""
"pit-trial","46","524353","0.0-2.0-17.1-0.1","battery-v0.2","","","536.2000000178814","","","22","1001","918","&#9789;","elianto","#f73b6a7A"," "," ","1","0","[1386.2999999821186]","1","0","4","","","","","","","","",""
"pit-trial","47","527662","0.0-2.0-17.1-1.1","battery-v0.2","","","446.90000000596046","","","22","1001","918","&#9789;","elianto","#f73b6a7A"," "," ","1","0","[1298.199999988079]","1","0","4","","","","","","","","",""
"pit-trial","48","530965","0.0-2.0-17.1-2.1","battery-v0.2","","","440.7999999821186","","","22","1001","918","&#9789;","elianto","#f73b6a7A"," "," ","1","0","[1291.0999999940395]","1","0","4","","","","","","","","",""
"pit-trial","49","534298","0.0-2.0-17.1-3.1","battery-v0.2","","","470.5","","","22","1001","918","&#9789;","elianto","#f73b6a7A"," "," ","1","-10","[1322.2999999821186]","1","0","4","","","","","","","","",""
"pit-trial","50","537526","0.0-2.0-17.1-4.1","battery-v0.2","","","367.7000000178814","","","22","1001","918","&#9789;","elianto","#f73b6a7A"," "," ","1","0","[1218.699999988079]","1","0","4","","","","","","","","",""
"call-function","51","537532","0.0-2.0-18.0","battery-v0.2","","","","","","","","","","","","","","","","","","","","","","","","","","","",""
"pit-instructions","52","617224","0.0-2.0-19.0","battery-v0.2","","[{""page_index"":0,""viewing_time"":6583.300000011921},{""page_index"":1,""viewing_time"":5713.9000000059605},{""page_index"":2,""viewing_time"":15096.699999988079},{""page_index"":3,""viewing_time"":9265.90000000596},{""page_index"":4,""viewing_time"":8563.799999982119},{""page_index"":5,""viewing_time"":9296.5},{""page_index"":6,""viewing_time"":9544.90000000596},{""page_index"":7,""viewing_time"":7445.4000000059605},{""page_index"":8,""viewing_time"":8180.300000011921}]","79691.20000001788","","","","","","","","","","","","","","","","","","","","","","","","",""
"pit-comprehension","53","622663","0.0-2.0-20.0-0.0","battery-v0.2","","","5431","[""SPACE""]","0","22","1001","918","","","","","","","","","","","","","","","","","","","",""
"pit-instructions","54","625485","0.0-2.0-20.0-1.0","battery-v0.2","","[{""page_index"":0,""viewing_time"":2804.0999999940395}]","2804.899999976158","","","","","","","","","","","","","","","","","","","","","","","","",""
"pit-comprehension","55","631922","0.0-2.0-21.0-0.0","battery-v0.2","","","6428.5","[""10""]","0","22","1001","918","","","","","","","","","","","","","","","","","","","",""
"pit-instructions","56","633385","0.0-2.0-21.0-1.0","battery-v0.2","","[{""page_index"":0,""viewing_time"":1443.5999999940395}]","1444.0999999940395","","","","","","","","","","","","","","","","","","","","","","","","",""
"pit-comprehension","57","640262","0.0-2.0-22.0-0.0","battery-v0.2","","","6868.100000023842","[""0""]","0","22","1001","918","","","","","","","","","","","","","","","","","","","",""
"pit-instructions","58","641721","0.0-2.0-22.0-1.0","battery-v0.2","","[{""page_index"":0,""viewing_time"":1439.5}]","1440.199999988079","","","","","","","","","","","","","","","","","","","","","","","","",""
"pit-comprehension","59","653208","0.0-2.0-23.0-0.0","battery-v0.2","","","11478","[""True""]","0","22","1001","918","","","","","","","","","","","","","","","","","","","",""
"pit-instructions","60","654755","0.0-2.0-23.0-1.0","battery-v0.2","","[{""page_index"":0,""viewing_time"":1528.0999999940395}]","1529.199999988079","","","","","","","","","","","","","","","","","","","","","","","","",""
"pit-comprehension","61","662281","0.0-2.0-24.0-0.0","battery-v0.2","","","7516.800000011921","[""True""]","0","22","1001","918","","","","","","","","","","","","","","","","","","","",""
"pit-instructions","62","663695","0.0-2.0-24.0-1.0","battery-v0.2","","[{""page_index"":0,""viewing_time"":1393.5}]","1393.8999999761581","","","","","","","","","","","","","","","","","","","","","","","","",""
"pit-comprehension","63","670095","0.0-2.0-25.0-0.0","battery-v0.2","","","6391.699999988079","[""True""]","0","22","1001","918","","","","","","","","","","","","","","","","","","","",""
"pit-instructions","64","671537","0.0-2.0-25.0-1.0","battery-v0.2","","[{""page_index"":0,""viewing_time"":1421.699999988079}]","1422.199999988079","","","","","","","","","","","","","","","","","","","","","","","","",""
"pit-comprehension","65","676719","0.0-2.0-26.0-0.0","battery-v0.2","","","5175.199999988079","[""False""]","0","22","1001","918","","","","","","","","","","","","","","","","","","","",""
"pit-instructions","66","678320","0.0-2.0-26.0-1.0","battery-v0.2","","[{""page_index"":0,""viewing_time"":1580.199999988079}]","1580.5","","","","","","","","","","","","","","","","","","","","","","","","",""
"pit-instructions","67","701791","0.0-3.0","battery-v0.2","","[{""page_index"":0,""viewing_time"":4137.100000023842},{""page_index"":1,""viewing_time"":11230.699999988079},{""page_index"":2,""viewing_time"":8097.5}]","23465.80000001192","","","","","","","","","","","","","","","","","","","","","","","","",""
"pit-trial","68","705153","0.0-4.0","battery-v0.2","","","496.5","","","22","1001","918","&#9733;","elianto","#3366ff99","-1"," ","0","+10","[1349]","1","1","","","1001","1","2","2","win","no-go","1","[]"
"pit-trial","69","708539","0.0-5.0","battery-v0.2","","","526.6999999880791","","","22","1001","918","&#9752;","elianto","#f73b6a7A"," "," ","1","0","[1377.2999999821186]","1","1","","","1001","2","3","3","lose","go","0","0"
"pit-trial","70","711807","0.0-6.0","battery-v0.2","","","404.09999999403954","","","22","1001","918","&#9728;","elianto","#f73b6a7A","-1"," ","0","0","[1256.4000000059605]","1","1","","","1001","3","0","4","lose","no-go","1","0"
"pit-trial","71","715289","0.0-7.0","battery-v0.2","","","618.6000000238419","","","22","1001","918","&#9730;","elianto","#3366ff99"," "," ","1","+10","[1469.699999988079]","1","1","","","1001","4","1","1","win","go","0","0"
"pit-trial","72","718976","0.0-8.0","battery-v0.2","","","828.9000000059605","","","22","1001","918","&#9728;","elianto","#f73b6a7A","-1"," ","0","-10","[1679.300000011921]","1","1","","","1001","5","0","4","lose","no-go","0","0"
"pit-trial","73","722482","0.0-9.0","battery-v0.2","","","647.5999999940395","","","22","1001","918","&#9752;","elianto","#f73b6a7A"," "," ","1","0","[1498.199999988079]","1","1","","","1001","6","3","3","lose","go","0","0"
"pit-trial","74","726047","0.0-10.0","battery-v0.2","","","706.5999999940395","","","22","1001","918","&#9730;","elianto","#3366ff99"," "," ","1","+10","[1556.7000000178814]","1","1","","","1001","7","1","1","win","go","0","0"
"pit-trial","75","729634","0.0-11.0","battery-v0.2","","","728.0999999940395","","","22","1001","918","&#9733;","elianto","#3366ff99","-1"," ","0","0","[1578.4000000059605]","1","1","","","1001","8","2","2","win","no-go","0","0"
"pit-trial","76","733222","0.0-12.0","battery-v0.2","","","725.7000000178814","","","22","1001","918","&#9730;","elianto","#3366ff99"," "," ","1","+10","[1576.5]","1","1","","","1001","9","1","1","win","go","0","0"
"pit-trial","77","738088","0.0-13.0","battery-v0.2","","","-1","","","22","1001","918","&#9728;","elianto","#f73b6a7A","-1","-1","1","0","[]","0","1","","","1001","10","0","4","lose","no-go","0","0"
"pit-trial","78","742952","0.0-14.0","battery-v0.2","","","-1","","","22","1001","918","&#9733;","elianto","#3366ff99","-1","-1","1","+10","[]","0","1","","","1001","11","2","2","win","no-go","0","0"
"pit-trial","79","746743","0.0-15.0","battery-v0.2","","","929.0999999940395","","","22","1001","918","&#9752;","elianto","#f73b6a7A"," "," ","1","0","[1779.5999999940395]","1","1","","","1001","12","3","3","lose","go","0","0"
"pit-trial","80","751607","0.0-16.0","battery-v0.2","","","-1","","","22","1001","918","&#9728;","elianto","#f73b6a7A","-1","-1","1","0","[]","0","1","","","1001","13","0","4","lose","no-go","0","0"
"pit-trial","81","755485","0.0-17.0","battery-v0.2","","","1018.5","","","22","1001","918","&#9752;","elianto","#f73b6a7A"," "," ","1","0","[1868.7000000178814]","1","1","","","1001","14","3","3","lose","go","0","0"
"pit-trial","82","760350","0.0-18.0","battery-v0.2","","","-1","","","22","1001","918","&#9733;","elianto","#3366ff99","-1","-1","1","+10","[]","0","1","","","1001","15","2","2","win","no-go","0","0"
"pit-trial","83","765214","0.0-19.0","battery-v0.2","","","-1","","","22","1001","918","&#9730;","elianto","#3366ff99"," ","-1","0","0","[]","0","1","","","1001","16","1","1","win","go","0","0"
"pit-trial","84","768680","0.0-20.0","battery-v0.2","","","604.9000000059605","","","22","1001","918","&#9730;","elianto","#3366ff99"," "," ","1","+10","[1456]","1","1","","","1001","17","1","1","win","go","0","0"
"pit-trial","85","773048","0.0-21.0","battery-v0.2","","","1503.4000000059605","","","22","1001","918","&#9752;","elianto","#f73b6a7A"," "," ","1","0","[2353.5999999940395]","1","1","","","1001","18","3","3","lose","go","0","0"
"pit-trial","86","777916","0.0-22.0","battery-v0.2","","","-1","","","22","1001","918","&#9733;","elianto","#3366ff99","-1","-1","1","0","[]","0","1","","","1001","19","2","2","win","no-go","1","0"
"pit-trial","87","782783","0.0-23.0","battery-v0.2","","","-1","","","22","1001","918","&#9728;","elianto","#f73b6a7A","-1","-1","1","-10","[]","0","1","","","1001","20","0","4","lose","no-go","1","0"
"pit-instructions","88","795149","0.0-24.0","battery-v0.2","","[{""page_index"":0,""viewing_time"":5957.799999982119},{""page_index"":1,""viewing_time"":6397.4000000059605}]","12355.799999982119","","","","","","","","","","","","","","","","","","","","","","","","",""
"pit-trial","89","798833","0.0-25.0","battery-v0.2","","","821","","","22","1001","918","v","elianto","#3366ff99","-1"," ","0","0","[1671.9000000059605]","1","2","","","1001","21","0","2","win","no-go","0","0"
"pit-trial","90","802359","0.0-26.0","battery-v0.2","","","665.4000000059605","","","22","1001","918","j","elianto","#f73b6a7A"," "," ","1","0","[1516.300000011921]","1","2","","","1001","22","1","3","lose","go","0","0"
"pit-trial","91","806006","0.0-27.0","battery-v0.2","","","788.2999999821186","","","22","1001","918","k","elianto","#3366ff99"," "," ","1","+10","[1638.5]","1","2","","","1001","23","3","1","win","go","0","0"
"pit-trial","92","810385","0.0-28.0","battery-v0.2","","","1515.300000011921","","","22","1001","918","d","elianto","#f73b6a7A","-1"," ","0","-10","[2366.9000000059605]","1","2","","","1001","24","2","4","lose","no-go","0","0"
"pit-trial","93","815245","0.0-29.0","battery-v0.2","","","-1","","","22","1001","918","d","elianto","#f73b6a7A","-1","-1","1","-10","[]","0","2","","","1001","25","2","4","lose","no-go","1","0"
"pit-trial","94","818771","0.0-30.0","battery-v0.2","","","666.7000000178814","","","22","1001","918","k","elianto","#3366ff99"," "," ","1","+10","[1517.300000011921]","1","2","","","1001","26","3","1","win","go","0","0"
"pit-trial","95","822919","0.0-31.0","battery-v0.2","","","1289.5999999940395","","","22","1001","918","v","elianto","#3366ff99","-1"," ","0","0","[2140.800000011921]","1","2","","","1001","27","0","2","win","no-go","0","0"
"pit-trial","96","827181","0.0-32.0","battery-v0.2","","","1400","","","22","1001","918","j","elianto","#f73b6a7A"," "," ","1","0","[2251.4000000059605]","1","2","","","1001","28","1","3","lose","go","0","0"
"pit-trial","97","831326","0.0-33.0","battery-v0.2","","","1285.2000000178814","","","22","1001","918","j","elianto","#f73b6a7A"," "," ","1","0","[2137]","1","2","","","1001","29","1","3","lose","go","0","0"
"pit-trial","98","835767","0.0-34.0","battery-v0.2","","","1581","","","22","1001","918","d","elianto","#f73b6a7A","-1"," ","0","-10","[2431.5]","1","2","","","1001","30","2","4","lose","no-go","0","0"
"pit-trial","99","839308","0.0-35.0","battery-v0.2","","","679","","","22","1001","918","k","elianto","#3366ff99"," "," ","1","+10","[1530.8999999761581]","1","2","","","1001","31","3","1","win","go","0","0"
"pit-trial","100","844173","0.0-36.0","battery-v0.2","","","-1","","","22","1001","918","v","elianto","#3366ff99","-1","-1","1","+10","[]","0","2","","","1001","32","0","2","win","no-go","0","0"
"pit-trial","101","848105","0.0-37.0","battery-v0.2","","","1070.7999999821186","","","22","1001","918","j","elianto","#f73b6a7A"," "," ","1","0","[1921.0999999940395]","1","2","","","1001","33","1","3","lose","go","0","0"
"pit-trial","102","852967","0.0-38.0","battery-v0.2","","","-1","","","22","1001","918","d","elianto","#f73b6a7A","-1","-1","1","0","[]","0","2","","","1001","34","2","4","lose","no-go","0","0"
"pit-trial","103","856450","0.0-39.0","battery-v0.2","","","618.8000000119209","","","22","1001","918","k","elianto","#3366ff99"," "," ","1","+10","[1470.7000000178814]","1","2","","","1001","35","3","1","win","go","0","0"
"pit-trial","104","861315","0.0-40.0","battery-v0.2","","","-1","","","22","1001","918","v","elianto","#3366ff99","-1","-1","1","+10","[]","0","2","","","1001","36","0","2","win","no-go","0","0"
"pit-trial","105","865094","0.0-41.0","battery-v0.2","","","918.8000000119209","","","22","1001","918","j","elianto","#f73b6a7A"," "," ","1","0","[1770.199999988079]","1","2","","","1001","37","1","3","lose","go","0","0"
"pit-trial","106","868606","0.0-42.0","battery-v0.2","","","651.1000000238419","","","22","1001","918","k","elianto","#3366ff99"," "," ","1","+10","[1502.0999999940395]","1","2","","","1001","38","3","1","win","go","0","0"
"pit-trial","107","873471","0.0-43.0","battery-v0.2","","","-1","","","22","1001","918","d","elianto","#f73b6a7A","-1","-1","1","-10","[]","0","2","","","1001","39","2","4","lose","no-go","1","0"
"pit-trial","108","878335","0.0-44.0","battery-v0.2","","","-1","","","22","1001","918","v","elianto","#3366ff99","-1","-1","1","+10","[]","0","2","","","1001","40","0","2","win","no-go","0","0"
"pit-trial","109","883199","0.0-45.0","battery-v0.2","","","-1","","","22","1001","918","d","elianto","#f73b6a7A","-1","-1","1","0","[]","0","2","","","1001","41","2","4","lose","no-go","0","0"
"pit-trial","110","887095","0.0-46.0","battery-v0.2","","","1031.5999999940395","","","22","1001","918","j","elianto","#f73b6a7A"," "," ","1","0","[1883.9000000059605]","1","2","","","1001","42","1","3","lose","go","0","0"
"pit-trial","111","891960","0.0-47.0","battery-v0.2","","","-1","","","22","1001","918","v","elianto","#3366ff99","-1","-1","1","+10","[]","0","2","","","1001","43","0","2","win","no-go","0","0"
"pit-trial","112","895379","0.0-48.0","battery-v0.2","","","560","","","22","1001","918","k","elianto","#3366ff99"," "," ","1","+10","[1411.2000000178814]","1","2","","","1001","44","3","1","win","go","0","0"
"pit-trial","113","900243","0.0-49.0","battery-v0.2","","","-1","","","22","1001","918","d","elianto","#f73b6a7A","-1","-1","1","0","[]","0","2","","","1001","45","2","4","lose","no-go","0","0"
"pit-trial","114","904125","0.0-50.0","battery-v0.2","","","1018.6000000238419","","","22","1001","918","j","elianto","#f73b6a7A"," "," ","1","0","[1870.1000000238419]","1","2","","","1001","46","1","3","lose","go","0","0"
"pit-trial","115","907488","0.0-51.0","battery-v0.2","","","505.09999999403954","","","22","1001","918","k","elianto","#3366ff99"," "," ","1","0","[1355.199999988079]","1","2","","","1001","47","3","1","win","go","1","0"
"pit-trial","116","912353","0.0-52.0","battery-v0.2","","","-1","","","22","1001","918","v","elianto","#3366ff99","-1","-1","1","+10","[]","0","2","","","1001","48","0","2","win","no-go","0","0"
"pit-trial","117","917217","0.0-53.0","battery-v0.2","","","-1","","","22","1001","918","d","elianto","#f73b6a7A","-1","-1","1","0","[]","0","2","","","1001","49","2","4","lose","no-go","0","0"
"pit-trial","118","920938","0.0-54.0","battery-v0.2","","","859.0999999940395","","","22","1001","918","j","elianto","#f73b6a7A"," "," ","1","0","[1710.2000000178814]","1","2","","","1001","50","1","3","lose","go","0","0"
"pit-trial","119","925797","0.0-55.0","battery-v0.2","","","-1","","","22","1001","918","v","elianto","#3366ff99","-1","-1","1","0","[]","0","2","","","1001","51","0","2","win","no-go","1","0"
"pit-trial","120","929326","0.0-56.0","battery-v0.2","","","666.7999999821186","","","22","1001","918","k","elianto","#3366ff99"," "," ","1","+10","[1518.699999988079]","1","2","","","1001","52","3","1","win","go","0","0"
"pit-trial","121","934191","0.0-57.0","battery-v0.2","","","-1","","","22","1001","918","d","elianto","#f73b6a7A","-1","-1","1","0","[]","0","2","","","1001","53","2","4","lose","no-go","0","0"
"pit-trial","122","938364","0.0-58.0","battery-v0.2","","","1312.2000000178814","","","22","1001","918","w","elianto","#f73b6a7A","-1"," ","0","0","[2162.5]","1","2","","","1001","54","5","4","lose","no-go","1","0"
"pit-trial","123","942899","0.0-59.0","battery-v0.2","","","1674.199999988079","","","22","1001","918","j","elianto","#f73b6a7A"," "," ","1","0","[2526.5999999940395]","1","2","","","1001","55","1","3","lose","go","0","0"
"pit-trial","124","947763","0.0-60.0","battery-v0.2","","","-1","","","22","1001","918","e","elianto","#f73b6a7A"," ","-1","0","-10","[]","0","2","","","1001","56","4","3","lose","go","0","0"
"pit-trial","125","951519","0.0-61.0","battery-v0.2","","","895.4000000059605","","","22","1001","918","j","elianto","#f73b6a7A"," "," ","1","0","[1747.9000000059605]","1","2","","","1001","57","1","3","lose","go","0","0"
"pit-trial","126","955298","0.0-62.0","battery-v0.2","","","917.0999999940395","","","22","1001","918","w","elianto","#f73b6a7A","-1"," ","0","0","[1768.0999999940395]","1","2","","","1001","58","5","4","lose","no-go","1","0"
"pit-trial","127","960163","0.0-63.0","battery-v0.2","","","-1","","","22","1001","918","d","elianto","#f73b6a7A","-1","-1","1","0","[]","0","2","","","1001","59","2","4","lose","no-go","0","0"
"pit-trial","128","964697","0.0-64.0","battery-v0.2","","","1673","","","22","1001","918","e","elianto","#f73b6a7A"," "," ","1","0","[2525]","1","2","","","1001","60","4","3","lose","go","0","0"
"pit-trial","129","968110","0.0-65.0","battery-v0.2","","","552.4000000059605","","","22","1001","918","w","elianto","#f73b6a7A","-1"," ","0","0","[1404.4000000059605]","1","2","","","1001","61","5","4","lose","no-go","1","0"
"pit-trial","130","972974","0.0-66.0","battery-v0.2","","","-1","","","22","1001","918","d","elianto","#f73b6a7A","-1","-1","1","0","[]","0","2","","","1001","62","2","4","lose","no-go","0","0"
"pit-trial","131","977043","0.0-67.0","battery-v0.2","","","1209.7999999821186","","","22","1001","918","s","elianto","#3366ff99","-1"," ","0","0","[2060.4000000059605]","1","2","","","1001","63","6","2","win","no-go","0","0"
"pit-trial","132","981403","0.0-68.0","battery-v0.2","","","1498.0999999940395","","","22","1001","918","e","elianto","#f73b6a7A"," "," ","1","0","[2348.100000023842]","1","2","","","1001","64","4","3","lose","go","0","0"
"pit-trial","133","986262","0.0-69.0","battery-v0.2","","","-1","","","22","1001","918","d","elianto","#f73b6a7A","-1","-1","1","0","[]","0","2","","","1001","65","2","4","lose","no-go","0","0"
"pit-trial","134","990366","0.0-70.0","battery-v0.2","","","1240.5999999940395","","","22","1001","918","e","elianto","#f73b6a7A"," "," ","1","0","[2092.7999999821186]","1","2","","","1001","66","4","3","lose","go","0","0"
"pit-trial","135","993951","0.0-71.0","battery-v0.2","","","720.2999999821186","","","22","1001","918","w","elianto","#f73b6a7A","-1"," ","0","-10","[1572.0999999940395]","1","2","","","1001","67","5","4","lose","no-go","0","0"
"pit-trial","136","998813","0.0-72.0","battery-v0.2","","","-1","","","22","1001","918","s","elianto","#3366ff99","-1","-1","1","+10","[]","0","2","","","1001","68","6","2","win","no-go","0","0"
"pit-trial","137","1002725","0.0-73.0","battery-v0.2","","","1048.7000000178814","","","22","1001","918","e","elianto","#f73b6a7A"," "," ","1","0","[1900.4000000059605]","1","2","","","1001","69","4","3","lose","go","0","0"
"pit-trial","138","1006109","0.0-74.0","battery-v0.2","","","522.5","","","22","1001","918","w","elianto","#f73b6a7A","-1"," ","0","-10","[1374.5]","1","2","","","1001","70","5","4","lose","no-go","0","0"
"pit-trial","139","1009848","0.0-75.0","battery-v0.2","","","884.1999999880791","","","22","1001","918","p","elianto","#3366ff99"," "," ","1","+10","[1734.300000011921]","1","2","","","1001","71","7","1","win","go","0","0"
"pit-trial","140","1014713","0.0-76.0","battery-v0.2","","","-1","","","22","1001","918","s","elianto","#3366ff99","-1","-1","1","+10","[]","0","2","","","1001","72","6","2","win","no-go","0","0"
"pit-trial","141","1018589","0.0-77.0","battery-v0.2","","","1017.3999999761581","","","22","1001","918","e","elianto","#f73b6a7A"," "," ","1","0","[1868.199999988079]","1","2","","","1001","73","4","3","lose","go","0","0"
"pit-trial","142","1023455","0.0-78.0","battery-v0.2","","","-1","","","22","1001","918","s","elianto","#3366ff99","-1","-1","1","+10","[]","0","2","","","1001","74","6","2","win","no-go","0","0"
"pit-trial","143","1028319","0.0-79.0","battery-v0.2","","","-1","","","22","1001","918","w","elianto","#f73b6a7A","-1","-1","1","0","[]","0","2","","","1001","75","5","4","lose","no-go","0","0"
"pit-trial","144","1032291","0.0-80.0","battery-v0.2","","","1112.2999999821186","","","22","1001","918","p","elianto","#3366ff99"," "," ","1","+10","[1963]","1","2","","","1001","76","7","1","win","go","0","0"
"pit-trial","145","1037154","0.0-81.0","battery-v0.2","","","-1","","","22","1001","918","w","elianto","#f73b6a7A","-1","-1","1","0","[]","0","2","","","1001","77","5","4","lose","no-go","0","0"
"pit-trial","146","1041130","0.0-82.0","battery-v0.2","","","1114.5","","","22","1001","918","e","elianto","#f73b6a7A"," "," ","1","-10","[1964.5]","1","2","","","1001","78","4","3","lose","go","1","0"
"pit-trial","147","1045990","0.0-83.0","battery-v0.2","","","-1","","","22","1001","918","s","elianto","#3366ff99","-1","-1","1","+10","[]","0","2","","","1001","79","6","2","win","no-go","0","0"
"pit-trial","148","1049786","0.0-84.0","battery-v0.2","","","937","","","22","1001","918","p","elianto","#3366ff99"," "," ","1","+10","[1787.699999988079]","1","2","","","1001","80","7","1","win","go","0","0"
"pit-trial","149","1054650","0.0-85.0","battery-v0.2","","","-1","","","22","1001","918","s","elianto","#3366ff99","-1","-1","1","+10","[]","0","2","","","1001","81","6","2","win","no-go","0","0"
"pit-trial","150","1059272","0.0-86.0","battery-v0.2","","","1762.5999999940395","","","22","1001","918","e","elianto","#f73b6a7A"," "," ","1","0","[2612.5999999940395]","1","2","","","1001","82","4","3","lose","go","0","0"
"pit-trial","151","1064138","0.0-87.0","battery-v0.2","","","-1","","","22","1001","918","w","elianto","#f73b6a7A","-1","-1","1","-10","[]","0","2","","","1001","83","5","4","lose","no-go","1","0"
"pit-trial","152","1067863","0.0-88.0","battery-v0.2","","","865.4000000059605","","","22","1001","918","p","elianto","#3366ff99"," "," ","1","+10","[1715.6000000238419]","1","2","","","1001","84","7","1","win","go","0","0"
"pit-trial","153","1071368","0.0-89.0","battery-v0.2","","","643.2000000178814","","","22","1001","918","p","elianto","#3366ff99"," "," ","1","+10","[1494]","1","2","","","1001","85","7","1","win","go","0","0"
"pit-trial","154","1076234","0.0-90.0","battery-v0.2","","","-1","","","22","1001","918","s","elianto","#3366ff99","-1","-1","1","0","[]","0","2","","","1001","86","6","2","win","no-go","1","0"
"pit-trial","155","1080692","0.0-91.0","battery-v0.2","","","1596.6000000238419","","","22","1001","918","e","elianto","#f73b6a7A"," "," ","1","-10","[2447]","1","2","","","1001","87","4","3","lose","go","1","0"
"pit-trial","156","1085557","0.0-92.0","battery-v0.2","","","-1","","","22","1001","918","w","elianto","#f73b6a7A","-1","-1","1","0","[]","0","2","","","1001","88","5","4","lose","no-go","0","0"
"pit-trial","157","1090423","0.0-93.0","battery-v0.2","","","-1","","","22","1001","918","w","elianto","#f73b6a7A","-1","-1","1","0","[]","0","2","","","1001","89","5","4","lose","no-go","0","0"
"pit-trial","158","1094357","0.0-94.0","battery-v0.2","","","1074.6000000238419","","","22","1001","918","s","elianto","#3366ff99","-1"," ","0","0","[1924.800000011921]","1","2","","","1001","90","6","2","win","no-go","0","0"
"pit-trial","159","1097898","0.0-95.0","battery-v0.2","","","678.1000000238419","","","22","1001","918","p","elianto","#3366ff99"," "," ","1","+10","[1529.8999999761581]","1","2","","","1001","91","7","1","win","go","0","0"
"pit-trial","160","1102402","0.0-96.0","battery-v0.2","","","1640.5999999940395","","","22","1001","918","e","elianto","#f73b6a7A"," "," ","1","0","[2491]","1","2","","","1001","92","4","3","lose","go","0","0"
"pit-trial","161","1106693","0.0-97.0","battery-v0.2","","","1427.800000011921","","","22","1001","918","g","elianto","#3366ff99"," "," ","1","+10","[2279.4000000059605]","1","2","","","1001","93","8","1","win","go","0","0"
"pit-trial","162","1111046","0.0-98.0","battery-v0.2","","","1489.199999988079","","","22","1001","918","e","elianto","#f73b6a7A"," "," ","1","0","[2340.5]","1","2","","","1001","94","4","3","lose","go","0","0"
"pit-trial","163","1114611","0.0-99.0","battery-v0.2","","","700.8000000119209","","","22","1001","918","p","elianto","#3366ff99"," "," ","1","+10","[1551.6000000238419]","1","2","","","1001","95","7","1","win","go","0","0"
"pit-trial","164","1119475","0.0-100.0","battery-v0.2","","","-1","","","22","1001","918","s","elianto","#3366ff99","-1","-1","1","+10","[]","0","2","","","1001","96","6","2","win","no-go","0","0"
"pit-trial","165","1124340","0.0-101.0","battery-v0.2","","","-1","","","22","1001","918","s","elianto","#3366ff99","-1","-1","1","+10","[]","0","2","","","1001","97","6","2","win","no-go","0","0"
"pit-trial","166","1128173","0.0-102.0","battery-v0.2","","","972.5","","","22","1001","918","e","elianto","#f73b6a7A"," "," ","1","0","[1824.0999999940395]","1","2","","","1001","98","4","3","lose","go","0","0"
"pit-trial","167","1131823","0.0-103.0","battery-v0.2","","","791.2999999821186","","","22","1001","918","p","elianto","#3366ff99"," "," ","1","+10","[1641.7999999821186]","1","2","","","1001","99","7","1","win","go","0","0"
"pit-trial","168","1135462","0.0-104.0","battery-v0.2","","","778.5","","","22","1001","918","g","elianto","#3366ff99"," "," ","1","+10","[1629.5]","1","2","","","1001","100","8","1","win","go","0","0"
"pit-trial","169","1140321","0.0-105.0","battery-v0.2","","","-1","","","22","1001","918","s","elianto","#3366ff99","-1","-1","1","+10","[]","0","2","","","1001","101","6","2","win","no-go","0","0"
"pit-trial","170","1143845","0.0-106.0","battery-v0.2","","","661.2000000178814","","","22","1001","918","p","elianto","#3366ff99"," "," ","1","+10","[1513.2000000178814]","1","2","","","1001","102","7","1","win","go","0","0"
"pit-trial","171","1147589","0.0-107.0","battery-v0.2","","","884.1999999880791","","","22","1001","918","g","elianto","#3366ff99"," "," ","1","+10","[1734.5999999940395]","1","2","","","1001","103","8","1","win","go","0","0"
"pit-trial","172","1152453","0.0-108.0","battery-v0.2","","","-1","","","22","1001","918","a","elianto","#3366ff99","-1","-1","1","0","[]","0","2","","","1001","104","9","2","win","no-go","1","0"
"pit-trial","173","1157318","0.0-109.0","battery-v0.2","","","-1","","","22","1001","918","a","elianto","#3366ff99","-1","-1","1","0","[]","0","2","","","1001","105","9","2","win","no-go","1","0"
"pit-trial","174","1160993","0.0-110.0","battery-v0.2","","","815.1999999880791","","","22","1001","918","g","elianto","#3366ff99"," "," ","1","0","[1667]","1","2","","","1001","106","8","1","win","go","1","0"
"pit-trial","175","1165855","0.0-111.0","battery-v0.2","","","-1","","","22","1001","918","s","elianto","#3366ff99","-1","-1","1","+10","[]","0","2","","","1001","107","6","2","win","no-go","0","0"
"pit-trial","176","1169665","0.0-112.0","battery-v0.2","","","948.8000000119209","","","22","1001","918","p","elianto","#3366ff99"," "," ","1","+10","[1800.199999988079]","1","2","","","1001","108","7","1","win","go","0","0"
"pit-trial","177","1173293","0.0-113.0","battery-v0.2","","","767.7000000178814","","","22","1001","918","g","elianto","#3366ff99"," "," ","1","+10","[1618.0999999940395]","1","2","","","1001","109","8","1","win","go","0","0"
"pit-trial","178","1178158","0.0-114.0","battery-v0.2","","","-1","","","22","1001","918","u","elianto","#f73b6a7A","-1","-1","1","0","[]","0","2","","","1001","110","11","4","lose","no-go","0","0"
"pit-trial","179","1182948","0.0-115.0","battery-v0.2","","","1929.300000011921","","","22","1001","918","a","elianto","#3366ff99","-1"," ","0","0","[2781.2000000178814]","1","2","","","1001","111","9","2","win","no-go","0","0"
"pit-trial","180","1187376","0.0-116.0","battery-v0.2","","","1570.4000000059605","","","22","1001","918","l","elianto","#f73b6a7A"," "," ","1","-10","[2421.199999988079]","1","2","","","1001","112","10","3","lose","go","1","0"
"pit-trial","181","1192235","0.0-117.0","battery-v0.2","","","-1","","","22","1001","918","u","elianto","#f73b6a7A","-1","-1","1","-10","[]","0","2","","","1001","113","11","4","lose","no-go","1","0"
"pit-trial","182","1197100","0.0-118.0","battery-v0.2","","","-1","","","22","1001","918","a","elianto","#3366ff99","-1","-1","1","+10","[]","0","2","","","1001","114","9","2","win","no-go","0","0"
"pit-trial","183","1200707","0.0-119.0","battery-v0.2","","","746.4000000059605","","","22","1001","918","g","elianto","#3366ff99"," "," ","1","0","[1596.800000011921]","1","2","","","1001","115","8","1","win","go","1","0"
"pit-trial","184","1205569","0.0-120.0","battery-v0.2","","","-1","","","22","1001","918","l","elianto","#f73b6a7A"," ","-1","0","0","[]","0","2","","","1001","116","10","3","lose","go","1","0"
"pit-trial","185","1209186","0.0-121.0","battery-v0.2","","","752.1999999880791","","","22","1001","918","g","elianto","#3366ff99"," "," ","1","+10","[1604]","1","2","","","1001","117","8","1","win","go","0","0"
"pit-trial","186","1213511","0.0-122.0","battery-v0.2","","","1462.9000000059605","","","22","1001","918","u","elianto","#f73b6a7A","-1"," ","0","-10","[2315.2000000178814]","1","2","","","1001","118","11","4","lose","no-go","0","0"
"pit-trial","187","1218375","0.0-123.0","battery-v0.2","","","-1","","","22","1001","918","l","elianto","#f73b6a7A"," ","-1","0","-10","[]","0","2","","","1001","119","10","3","lose","go","0","0"
"pit-trial","188","1223240","0.0-124.0","battery-v0.2","","","-1","","","22","1001","918","a","elianto","#3366ff99","-1","-1","1","+10","[]","0","2","","","1001","120","9","2","win","no-go","0","0"
"pit-trial","189","1228104","0.0-125.0","battery-v0.2","","","-1","","","22","1001","918","l","elianto","#f73b6a7A"," ","-1","0","-10","[]","0","2","","","1001","121","10","3","lose","go","0","0"
"pit-trial","190","1232969","0.0-126.0","battery-v0.2","","","-1","","","22","1001","918","u","elianto","#f73b6a7A","-1","-1","1","0","[]","0","2","","","1001","122","11","4","lose","no-go","0","0"
"pit-trial","191","1236452","0.0-127.0","battery-v0.2","","","619.7000000178814","","","22","1001","918","g","elianto","#3366ff99"," "," ","1","+10","[1471.300000011921]","1","2","","","1001","123","8","1","win","go","0","0"
"pit-trial","192","1241317","0.0-128.0","battery-v0.2","","","-1","","","22","1001","918","a","elianto","#3366ff99","-1","-1","1","+10","[]","0","2","","","1001","124","9","2","win","no-go","0","0"
"pit-trial","193","1246181","0.0-129.0","battery-v0.2","","","-1","","","22","1001","918","a","elianto","#3366ff99","-1","-1","1","0","[]","0","2","","","1001","125","9","2","win","no-go","1","0"
"pit-trial","194","1251046","0.0-130.0","battery-v0.2","","","-1","","","22","1001","918","l","elianto","#f73b6a7A"," ","-1","0","-10","[]","0","2","","","1001","126","10","3","lose","go","0","0"
"pit-trial","195","1254534","0.0-131.0","battery-v0.2","","","624.8000000119209","","","22","1001","918","g","elianto","#3366ff99"," "," ","1","+10","[1476]","1","2","","","1001","127","8","1","win","go","0","0"
"pit-trial","196","1258696","0.0-132.0","battery-v0.2","","","1301.300000011921","","","22","1001","918","u","elianto","#f73b6a7A","-1"," ","0","-10","[2153.4000000059605]","1","2","","","1001","128","11","4","lose","no-go","0","0"
"pit-trial","197","1262783","0.0-133.0","battery-v0.2","","","1228.5","","","22","1001","918","u","elianto","#f73b6a7A","-1"," ","0","-10","[2078.5999999940395]","1","2","","","1001","129","11","4","lose","no-go","0","0"
"pit-trial","198","1267648","0.0-134.0","battery-v0.2","","","-1","","","22","1001","918","a","elianto","#3366ff99","-1","-1","1","+10","[]","0","2","","","1001","130","9","2","win","no-go","0","0"
"pit-trial","199","1271781","0.0-135.0","battery-v0.2","","","1269.0999999940395","","","22","1001","918","l","elianto","#f73b6a7A"," "," ","1","0","[2121]","1","2","","","1001","131","10","3","lose","go","0","0"
"pit-trial","200","1275311","0.0-136.0","battery-v0.2","","","671.5","","","22","1001","918","g","elianto","#3366ff99"," "," ","1","+10","[1521.7999999821186]","1","2","","","1001","132","8","1","win","go","0","0"
"pit-trial","201","1280175","0.0-137.0","battery-v0.2","","","-1","","","22","1001","918","u","elianto","#f73b6a7A","-1","-1","1","-10","[3406]","1","2","","","1001","133","11","4","lose","no-go","1","0"
"pit-trial","202","1285040","0.0-138.0","battery-v0.2","","","-1","","","22","1001","918","a","elianto","#3366ff99","-1","-1","1","+10","[]","0","2","","","1001","134","9","2","win","no-go","0","0"
"pit-trial","203","1288691","0.0-139.0","battery-v0.2","","","791.9000000059605","","","22","1001","918","g","elianto","#3366ff99"," "," ","1","+10","[1642.300000011921]","1","2","","","1001","135","8","1","win","go","0","0"
"pit-trial","204","1293556","0.0-140.0","battery-v0.2","","","-1","","","22","1001","918","l","elianto","#f73b6a7A"," ","-1","0","-10","[]","0","2","","","1001","136","10","3","lose","go","0","0"
"pit-trial","205","1296992","0.0-141.0","battery-v0.2","","","576.9000000059605","","","22","1001","918","l","elianto","#f73b6a7A"," "," ","1","0","[1427.800000011921]","1","2","","","1001","137","10","3","lose","go","0","0"
"pit-trial","206","1300475","0.0-142.0","battery-v0.2","","","619.3000000119209","","","22","1001","918","g","elianto","#3366ff99"," "," ","1","+10","[1469.800000011921]","1","2","","","1001","138","8","1","win","go","0","0"
"pit-trial","207","1303866","0.0-143.0","battery-v0.2","","","529.6999999880791","","","22","1001","918","u","elianto","#f73b6a7A","-1"," ","0","-10","[1380]","1","2","","","1001","139","11","4","lose","no-go","0","0"
"pit-trial","208","1308730","0.0-144.0","battery-v0.2","","","-1","","","22","1001","918","a","elianto","#3366ff99","-1","-1","1","+10","[]","0","2","","","1001","140","9","2","win","no-go","0","0"
"pit-instructions","209","1386053","0.0-145.0","battery-v0.2","","[{""page_index"":0,""viewing_time"":64624.70000001788},{""page_index"":1,""viewing_time"":12689.699999988079}]","77314.80000001192","","","","","","","","","","","","","","","","","","","","","","","","",""
"pit-trial","210","1389630","0.0-146.0","battery-v0.2","","","713","","","22","1001","918","y","elianto","#3366ff99"," "," ","1","+10","[1563.2000000178814]","1","3","","","1001","141","2","1","win","go","0","0"
"pit-trial","211","1394494","0.0-147.0","battery-v0.2","","","-1","","","22","1001","918","m","elianto","#3366ff99","-1","-1","1","0","[]","0","3","","","1001","142","0","2","win","no-go","1","0"
"pit-trial","212","1398575","0.0-148.0","battery-v0.2","","","1223.3999999761581","","","22","1001","918","r","elianto","#3366ff99","-1"," ","0","0","[2074.199999988079]","1","3","","","1001","143","1","2","win","no-go","0","0"
"pit-trial","213","1402638","0.0-149.0","battery-v0.2","","","1204.5999999940395","","","22","1001","918","h","elianto","#f73b6a7A"," "," ","1","0","[2055.2000000178814]","1","3","","","1001","144","3","3","lose","go","0","0"
"pit-trial","214","1407502","0.0-150.0","battery-v0.2","","","-1","","","22","1001","918","r","elianto","#3366ff99","-1","-1","1","+10","[]","0","3","","","1001","145","1","2","win","no-go","0","0"
"pit-trial","215","1411154","0.0-151.0","battery-v0.2","","","789","","","22","1001","918","y","elianto","#3366ff99"," "," ","1","+10","[1639.6000000238419]","1","3","","","1001","146","2","1","win","go","0","0"
"pit-trial","216","1414667","0.0-152.0","battery-v0.2","","","655.3000000119209","","","22","1001","918","h","elianto","#f73b6a7A"," "," ","1","0","[1505.5]","1","3","","","1001","147","3","3","lose","go","0","0"
"pit-trial","217","1419532","0.0-153.0","battery-v0.2","","","-1","","","22","1001","918","m","elianto","#3366ff99","-1","-1","1","+10","[]","0","3","","","1001","148","0","2","win","no-go","0","0"
"pit-trial","218","1422956","0.0-154.0","battery-v0.2","","","563.5","","","22","1001","918","y","elianto","#3366ff99"," "," ","1","0","[1414.0999999940395]","1","3","","","1001","149","2","1","win","go","1","0"
"pit-trial","219","1427821","0.0-155.0","battery-v0.2","","","-1","","","22","1001","918","r","elianto","#3366ff99","-1","-1","1","+10","[]","0","3","","","1001","150","1","2","win","no-go","0","0"
"pit-trial","220","1432685","0.0-156.0","battery-v0.2","","","-1","","","22","1001","918","m","elianto","#3366ff99","-1","-1","1","+10","[]","0","3","","","1001","151","0","2","win","no-go","0","0"
"pit-trial","221","1436704","0.0-157.0","battery-v0.2","","","1158.0999999940395","","","22","1001","918","h","elianto","#f73b6a7A"," "," ","1","0","[2008.5]","1","3","","","1001","152","3","3","lose","go","0","0"
"pit-trial","222","1440354","0.0-158.0","battery-v0.2","","","791.6999999880791","","","22","1001","918","y","elianto","#3366ff99"," "," ","1","+10","[1642.4000000059605]","1","3","","","1001","153","2","1","win","go","0","0"
"pit-trial","223","1445219","0.0-159.0","battery-v0.2","","","-1","","","22","1001","918","m","elianto","#3366ff99","-1","-1","1","+10","[]","0","3","","","1001","154","0","2","win","no-go","0","0"
"pit-trial","224","1449606","0.0-160.0","battery-v0.2","","","1528.800000011921","","","22","1001","918","h","elianto","#f73b6a7A"," "," ","1","-10","[2379.300000011921]","1","3","","","1001","155","3","3","lose","go","1","0"
"pit-trial","225","1454466","0.0-161.0","battery-v0.2","","","-1","","","22","1001","918","r","elianto","#3366ff99","-1","-1","1","+10","[]","0","3","","","1001","156","1","2","win","no-go","0","0"
"pit-trial","226","1458146","0.0-162.0","battery-v0.2","","","822.0999999940395","","","22","1001","918","y","elianto","#3366ff99"," "," ","1","+10","[1672.9000000059605]","1","3","","","1001","157","2","1","win","go","0","0"
"pit-trial","227","1462471","0.0-163.0","battery-v0.2","","","1461.0999999940395","","","22","1001","918","h","elianto","#f73b6a7A"," "," ","1","0","[2312.800000011921]","1","3","","","1001","158","3","3","lose","go","0","0"
"pit-trial","228","1467336","0.0-164.0","battery-v0.2","","","-1","","","22","1001","918","r","elianto","#3366ff99","-1","-1","1","+10","[]","0","3","","","1001","159","1","2","win","no-go","0","0"
"pit-trial","229","1472199","0.0-165.0","battery-v0.2","","","-1","","","22","1001","918","m","elianto","#3366ff99","-1","-1","1","0","[]","0","3","","","1001","160","0","2","win","no-go","1","0"
"pit-trial","230","1475660","0.0-166.0","battery-v0.2","","","597","","","22","1001","918","y","elianto","#3366ff99"," "," ","1","+10","[1449]","1","3","","","1001","161","2","1","win","go","0","0"
"pit-trial","231","1479433","0.0-167.0","battery-v0.2","","","910.9000000059605","","","22","1001","918","h","elianto","#f73b6a7A"," "," ","1","0","[1762.9000000059605]","1","3","","","1001","162","3","3","lose","go","0","0"
"pit-trial","232","1484298","0.0-168.0","battery-v0.2","","","-1","","","22","1001","918","r","elianto","#3366ff99","-1","-1","1","+10","[]","0","3","","","1001","163","1","2","win","no-go","0","0"
"pit-trial","233","1489163","0.0-169.0","battery-v0.2","","","-1","","","22","1001","918","m","elianto","#3366ff99","-1","-1","1","+10","[]","0","3","","","1001","164","0","2","win","no-go","0","0"
"pit-trial","234","1492901","0.0-170.0","battery-v0.2","","","877.6999999880791","","","22","1001","918","h","elianto","#f73b6a7A"," "," ","1","0","[1729.5]","1","3","","","1001","165","3","3","lose","go","0","0"
"pit-trial","235","1497766","0.0-171.0","battery-v0.2","","","-1","","","22","1001","918","r","elianto","#3366ff99","-1","-1","1","+10","[]","0","3","","","1001","166","1","2","win","no-go","0","0"
"pit-trial","236","1502630","0.0-172.0","battery-v0.2","","","-1","","","22","1001","918","m","elianto","#3366ff99","-1","-1","1","+10","[]","0","3","","","1001","167","0","2","win","no-go","0","0"
"pit-trial","237","1506131","0.0-173.0","battery-v0.2","","","641.7999999821186","","","22","1001","918","y","elianto","#3366ff99"," "," ","1","+10","[1492.3999999761581]","1","3","","","1001","168","2","1","win","go","0","0"
"pit-trial","238","1509643","0.0-174.0","battery-v0.2","","","651.8000000119209","","","22","1001","918","y","elianto","#3366ff99"," "," ","1","+10","[1503]","1","3","","","1001","169","2","1","win","go","0","0"
"pit-trial","239","1514507","0.0-175.0","battery-v0.2","","","-1","","","22","1001","918","r","elianto","#3366ff99","-1","-1","1","+10","[]","0","3","","","1001","170","1","2","win","no-go","0","0"
"pit-trial","240","1519374","0.0-176.0","battery-v0.2","","","-1","","","22","1001","918","m","elianto","#3366ff99","-1","-1","1","0","[]","0","3","","","1001","171","0","2","win","no-go","1","0"
"pit-trial","241","1523046","0.0-177.0","battery-v0.2","","","810.5","","","22","1001","918","h","elianto","#f73b6a7A"," "," ","1","0","[1660.7999999821186]","1","3","","","1001","172","3","3","lose","go","0","0"
"pit-trial","242","1527911","0.0-178.0","battery-v0.2","","","-1","","","22","1001","918","m","elianto","#3366ff99","-1","-1","1","+10","[]","0","3","","","1001","173","0","2","win","no-go","0","0"
"pit-trial","243","1531667","0.0-179.0","battery-v0.2","","","892.2000000178814","","","22","1001","918","y","elianto","#3366ff99"," "," ","1","+10","[1744.0999999940395]","1","3","","","1001","174","2","1","win","go","0","0"
"pit-trial","244","1536532","0.0-180.0","battery-v0.2","","","-1","","","22","1001","918","c","elianto","#f73b6a7A"," ","-1","0","-10","[]","0","3","","","1001","175","5","3","lose","go","0","0"
"pit-trial","245","1540391","0.0-181.0","battery-v0.2","","","1000.9000000059605","","","22","1001","918","z","elianto","#f73b6a7A","-1"," ","0","0","[1851.2000000178814]","1","3","","","1001","176","4","4","lose","no-go","1","0"
"pit-trial","246","1544431","0.0-182.0","battery-v0.2","","","1176.4000000059605","","","22","1001","918","y","elianto","#3366ff99"," "," ","1","+10","[2028.9000000059605]","1","3","","","1001","177","2","1","win","go","0","0"
"pit-trial","247","1549291","0.0-183.0","battery-v0.2","","","-1","","","22","1001","918","c","elianto","#f73b6a7A"," ","-1","0","-10","[]","0","3","","","1001","178","5","3","lose","go","0","0"
"pit-trial","248","1552925","0.0-184.0","battery-v0.2","","","771.5","","","22","1001","918","z","elianto","#f73b6a7A","-1"," ","0","-10","[1623.699999988079]","1","3","","","1001","179","4","4","lose","no-go","0","0"
"pit-trial","249","1557789","0.0-185.0","battery-v0.2","","","-1","","","22","1001","918","m","elianto","#3366ff99","-1","-1","1","0","[]","0","3","","","1001","180","0","2","win","no-go","1","0"
"pit-trial","250","1561655","0.0-186.0","battery-v0.2","","","1002.6999999880791","","","22","1001","918","c","elianto","#f73b6a7A"," "," ","1","0","[1854]","1","3","","","1001","181","5","3","lose","go","0","0"
"pit-trial","251","1565231","0.0-187.0","battery-v0.2","","","715.5","","","22","1001","918","y","elianto","#3366ff99"," "," ","1","0","[1566.1000000238419]","1","3","","","1001","182","2","1","win","go","1","0"
"pit-trial","252","1569016","0.0-188.0","battery-v0.2","","","925.3000000119209","","","22","1001","918","b","elianto","#3366ff99","-1"," ","0","0","[1775.3999999761581]","1","3","","","1001","183","6","2","win","no-go","0","0"
"pit-trial","253","1573881","0.0-189.0","battery-v0.2","","","-1","","","22","1001","918","z","elianto","#f73b6a7A","-1","-1","1","0","[]","0","3","","","1001","184","4","4","lose","no-go","0","0"
"pit-trial","254","1577352","0.0-190.0","battery-v0.2","","","613.3000000119209","","","22","1001","918","c","elianto","#f73b6a7A"," "," ","1","0","[1463.9000000059605]","1","3","","","1001","185","5","3","lose","go","0","0"
"pit-trial","255","1581073","0.0-191.0","battery-v0.2","","","857.0999999940395","","","22","1001","918","y","elianto","#3366ff99"," "," ","1","+10","[1708.5999999940395]","1","3","","","1001","186","2","1","win","go","0","0"
"pit-trial","256","1585938","0.0-192.0","battery-v0.2","","","-1","","","22","1001","918","z","elianto","#f73b6a7A","-1","-1","1","0","[]","0","3","","","1001","187","4","4","lose","no-go","0","0"
"pit-trial","257","1590274","0.0-193.0","battery-v0.2","","","1474.5999999940395","","","22","1001","918","b","elianto","#3366ff99","-1"," ","0","0","[2326.5999999940395]","1","3","","","1001","188","6","2","win","no-go","0","0"
"pit-trial","258","1595139","0.0-194.0","battery-v0.2","","","-1","","","22","1001","918","z","elianto","#f73b6a7A","-1","-1","1","0","[]","0","3","","","1001","189","4","4","lose","no-go","0","0"
"pit-trial","259","1599358","0.0-195.0","battery-v0.2","","","1358.199999988079","","","22","1001","918","c","elianto","#f73b6a7A"," "," ","1","0","[2210]","1","3","","","1001","190","5","3","lose","go","0","0"
"pit-trial","260","1604220","0.0-196.0","battery-v0.2","","","-1","","","22","1001","918","t","elianto","#f73b6a7A","-1","-1","1","0","[]","0","3","","","1001","191","7","4","lose","no-go","0","0"
"pit-trial","261","1609082","0.0-197.0","battery-v0.2","","","-1","","","22","1001","918","b","elianto","#3366ff99","-1","-1","1","+10","[]","0","3","","","1001","192","6","2","win","no-go","0","0"
"pit-trial","262","1613947","0.0-198.0","battery-v0.2","","","-1","","","22","1001","918","z","elianto","#f73b6a7A","-1","-1","1","0","[]","0","3","","","1001","193","4","4","lose","no-go","0","0"
"pit-trial","263","1617401","0.0-199.0","battery-v0.2","","","595","","","22","1001","918","c","elianto","#f73b6a7A"," "," ","1","0","[1445.300000011921]","1","3","","","1001","194","5","3","lose","go","0","0"
"pit-trial","264","1622266","0.0-200.0","battery-v0.2","","","-1","","","22","1001","918","b","elianto","#3366ff99","-1","-1","1","+10","[]","0","3","","","1001","195","6","2","win","no-go","0","0"
"pit-trial","265","1627130","0.0-201.0","battery-v0.2","","","-1","","","22","1001","918","t","elianto","#f73b6a7A","-1","-1","1","0","[]","0","3","","","1001","196","7","4","lose","no-go","0","0"
"pit-trial","266","1631995","0.0-202.0","battery-v0.2","","","-1","","","22","1001","918","t","elianto","#f73b6a7A","-1","-1","1","0","[]","0","3","","","1001","197","7","4","lose","no-go","0","0"
"pit-trial","267","1636859","0.0-203.0","battery-v0.2","","","-1","","","22","1001","918","z","elianto","#f73b6a7A","-1","-1","1","0","[]","0","3","","","1001","198","4","4","lose","no-go","0","0"
"pit-trial","268","1641724","0.0-204.0","battery-v0.2","","","-1","","","22","1001","918","b","elianto","#3366ff99","-1","-1","1","+10","[]","0","3","","","1001","199","6","2","win","no-go","0","0"
"pit-trial","269","1645172","0.0-205.0","battery-v0.2","","","588","","","22","1001","918","c","elianto","#f73b6a7A"," "," ","1","-10","[1438.300000011921]","1","3","","","1001","200","5","3","lose","go","1","0"
"pit-trial","270","1650031","0.0-206.0","battery-v0.2","","","-1","","","22","1001","918","z","elianto","#f73b6a7A","-1","-1","1","-10","[]","0","3","","","1001","201","4","4","lose","no-go","1","0"
"pit-trial","271","1654896","0.0-207.0","battery-v0.2","","","-1","","","22","1001","918","t","elianto","#f73b6a7A","-1","-1","1","0","[]","0","3","","","1001","202","7","4","lose","no-go","0","0"
"pit-trial","272","1659760","0.0-208.0","battery-v0.2","","","-1","","","22","1001","918","b","elianto","#3366ff99","-1","-1","1","0","[]","0","3","","","1001","203","6","2","win","no-go","1","0"
"pit-trial","273","1663691","0.0-209.0","battery-v0.2","","","1070.2999999821186","","","22","1001","918","c","elianto","#f73b6a7A"," "," ","1","0","[1920.7999999821186]","1","3","","","1001","204","5","3","lose","go","0","0"
"pit-trial","274","1668555","0.0-210.0","battery-v0.2","","","-1","","","22","1001","918","t","elianto","#f73b6a7A","-1","-1","1","0","[]","0","3","","","1001","205","7","4","lose","no-go","0","0"
"pit-trial","275","1673419","0.0-211.0","battery-v0.2","","","-1","","","22","1001","918","b","elianto","#3366ff99","-1","-1","1","+10","[]","0","3","","","1001","206","6","2","win","no-go","0","0"
"pit-trial","276","1677209","0.0-212.0","battery-v0.2","","","929.2999999821186","","","22","1001","918","c","elianto","#f73b6a7A"," "," ","1","0","[1780]","1","3","","","1001","207","5","3","lose","go","0","0"
"pit-trial","277","1682069","0.0-213.0","battery-v0.2","","","-1","","","22","1001","918","z","elianto","#f73b6a7A","-1","-1","1","0","[]","0","3","","","1001","208","4","4","lose","no-go","0","0"
"pit-trial","278","1686933","0.0-214.0","battery-v0.2","","","-1","","","22","1001","918","z","elianto","#f73b6a7A","-1","-1","1","0","[]","0","3","","","1001","209","4","4","lose","no-go","0","0"
"pit-trial","279","1690712","0.0-215.0","battery-v0.2","","","920.7999999821186","","","22","1001","918","c","elianto","#f73b6a7A"," "," ","1","0","[1771.0999999940395]","1","3","","","1001","210","5","3","lose","go","0","0"
"pit-trial","280","1695576","0.0-216.0","battery-v0.2","","","-1","","","22","1001","918","b","elianto","#3366ff99","-1","-1","1","+10","[]","0","3","","","1001","211","6","2","win","no-go","0","0"
"pit-trial","281","1700441","0.0-217.0","battery-v0.2","","","-1","","","22","1001","918","t","elianto","#f73b6a7A","-1","-1","1","0","[]","0","3","","","1001","212","7","4","lose","no-go","0","0"
"pit-trial","282","1704344","0.0-218.0","battery-v0.2","","","1043.6000000238419","","","22","1001","918","c","elianto","#f73b6a7A"," "," ","1","0","[1893.9000000059605]","1","3","","","1001","213","5","3","lose","go","0","0"
"pit-trial","283","1708598","0.0-219.0","battery-v0.2","","","1391.699999988079","","","22","1001","918","x","elianto","#f73b6a7A","-1"," ","0","-10","[2242.5]","1","3","","","1001","214","8","4","lose","no-go","0","0"
"pit-trial","284","1713462","0.0-220.0","battery-v0.2","","","-1","","","22","1001","918","b","elianto","#3366ff99","-1","-1","1","+10","[]","0","3","","","1001","215","6","2","win","no-go","0","0"
"pit-trial","285","1718327","0.0-221.0","battery-v0.2","","","-1","","","22","1001","918","t","elianto","#f73b6a7A","-1","-1","1","0","[]","0","3","","","1001","216","7","4","lose","no-go","0","0"
"pit-trial","286","1722256","0.0-222.0","battery-v0.2","","","1069.5999999940395","","","22","1001","918","c","elianto","#f73b6a7A"," "," ","1","0","[1920.3999999761581]","1","3","","","1001","217","5","3","lose","go","0","0"
"pit-trial","287","1727116","0.0-223.0","battery-v0.2","","","-1","","","22","1001","918","x","elianto","#f73b6a7A","-1","-1","1","0","[]","0","3","","","1001","218","8","4","lose","no-go","0","0"
"pit-trial","288","1731980","0.0-224.0","battery-v0.2","","","-1","","","22","1001","918","b","elianto","#3366ff99","-1","-1","1","+10","[]","0","3","","","1001","219","6","2","win","no-go","0","0"
"pit-trial","289","1736845","0.0-225.0","battery-v0.2","","","-1","","","22","1001","918","t","elianto","#f73b6a7A","-1","-1","1","0","[]","0","3","","","1001","220","7","4","lose","no-go","0","0"
"pit-trial","290","1741709","0.0-226.0","battery-v0.2","","","-1","","","22","1001","918","n","elianto","#f73b6a7A"," ","-1","0","-10","[]","0","3","","","1001","221","10","3","lose","go","0","0"
"pit-trial","291","1745751","0.0-227.0","battery-v0.2","","","1182.199999988079","","","22","1001","918","f","elianto","#3366ff99"," "," ","1","+10","[2032.5999999940395]","1","3","","","1001","222","9","1","win","go","0","0"
"pit-trial","292","1750614","0.0-228.0","battery-v0.2","","","-1","","","22","1001","918","b","elianto","#3366ff99","-1","-1","1","+10","[]","0","3","","","1001","223","6","2","win","no-go","0","0"
"pit-trial","293","1755479","0.0-229.0","battery-v0.2","","","-1","","","22","1001","918","x","elianto","#f73b6a7A","-1","-1","1","0","[]","0","3","","","1001","224","8","4","lose","no-go","0","0"
"pit-trial","294","1759218","0.0-230.0","battery-v0.2","","","879.5999999940395","","","22","1001","918","n","elianto","#f73b6a7A"," "," ","1","-10","[1729.5999999940395]","1","3","","","1001","225","10","3","lose","go","1","0"
"pit-trial","295","1764082","0.0-231.0","battery-v0.2","","","-1","","","22","1001","918","x","elianto","#f73b6a7A","-1","-1","1","0","[]","0","3","","","1001","226","8","4","lose","no-go","0","0"
"pit-trial","296","1768946","0.0-232.0","battery-v0.2","","","-1","","","22","1001","918","b","elianto","#3366ff99","-1","-1","1","+10","[]","0","3","","","1001","227","6","2","win","no-go","0","0"
"pit-trial","297","1772797","0.0-233.0","battery-v0.2","","","989.9000000059605","","","22","1001","918","f","elianto","#3366ff99"," "," ","1","+10","[1841.800000011921]","1","3","","","1001","228","9","1","win","go","0","0"
"pit-trial","298","1777660","0.0-234.0","battery-v0.2","","","-1","","","22","1001","918","q","elianto","#3366ff99"," ","-1","0","0","[]","0","3","","","1001","229","11","1","win","go","0","0"
"pit-trial","299","1781334","0.0-235.0","battery-v0.2","","","817","","","22","1001","918","f","elianto","#3366ff99"," "," ","1","0","[1667.5]","1","3","","","1001","230","9","1","win","go","1","0"
"pit-trial","300","1785171","0.0-236.0","battery-v0.2","","","973.1999999880791","","","22","1001","918","n","elianto","#f73b6a7A"," "," ","1","-10","[1824.9000000059605]","1","3","","","1001","231","10","3","lose","go","1","0"
"pit-trial","301","1790036","0.0-237.0","battery-v0.2","","","-1","","","22","1001","918","x","elianto","#f73b6a7A","-1","-1","1","0","[]","0","3","","","1001","232","8","4","lose","no-go","0","0"
"pit-trial","302","1794610","0.0-238.0","battery-v0.2","","","1711.9000000059605","","","22","1001","918","q","elianto","#3366ff99"," "," ","1","+10","[2562.0999999940395]","1","3","","","1001","233","11","1","win","go","0","0"
"pit-trial","303","1798233","0.0-239.0","battery-v0.2","","","760.7999999821186","","","22","1001","918","f","elianto","#3366ff99"," "," ","1","+10","[1610.9000000059605]","1","3","","","1001","234","9","1","win","go","0","0"
"pit-trial","304","1803097","0.0-240.0","battery-v0.2","","","-1","","","22","1001","918","n","elianto","#f73b6a7A"," ","-1","0","-10","[]","0","3","","","1001","235","10","3","lose","go","0","0"
"pit-trial","305","1807962","0.0-241.0","battery-v0.2","","","-1","","","22","1001","918","x","elianto","#f73b6a7A","-1","-1","1","0","[]","0","3","","","1001","236","8","4","lose","no-go","0","0"
"pit-trial","306","1812826","0.0-242.0","battery-v0.2","","","-1","","","22","1001","918","x","elianto","#f73b6a7A","-1","-1","1","0","[]","0","3","","","1001","237","8","4","lose","no-go","0","0"
"pit-trial","307","1817691","0.0-243.0","battery-v0.2","","","-1","","","22","1001","918","n","elianto","#f73b6a7A"," ","-1","0","0","[]","0","3","","","1001","238","10","3","lose","go","1","0"
"pit-trial","308","1821238","0.0-244.0","battery-v0.2","","","686.7999999821186","","","22","1001","918","f","elianto","#3366ff99"," "," ","1","+10","[1537.0999999940395]","1","3","","","1001","239","9","1","win","go","0","0"
"pit-trial","309","1824953","0.0-245.0","battery-v0.2","","","854.7999999821186","","","22","1001","918","q","elianto","#3366ff99"," "," ","1","+10","[1705.0999999940395]","1","3","","","1001","240","11","1","win","go","0","0"
"pit-trial","310","1828529","0.0-246.0","battery-v0.2","","","715.4000000059605","","","22","1001","918","f","elianto","#3366ff99"," "," ","1","+10","[1565.5999999940395]","1","3","","","1001","241","9","1","win","go","0","0"
"pit-trial","311","1833394","0.0-247.0","battery-v0.2","","","-1","","","22","1001","918","n","elianto","#f73b6a7A"," ","-1","0","-10","[]","0","3","","","1001","242","10","3","lose","go","0","0"
"pit-trial","312","1838258","0.0-248.0","battery-v0.2","","","-1","","","22","1001","918","x","elianto","#f73b6a7A","-1","-1","1","0","[]","0","3","","","1001","243","8","4","lose","no-go","0","0"
"pit-trial","313","1842159","0.0-249.0","battery-v0.2","","","1040.300000011921","","","22","1001","918","q","elianto","#3366ff99"," "," ","1","+10","[1890.5]","1","3","","","1001","244","11","1","win","go","0","0"
"pit-trial","314","1845642","0.0-250.0","battery-v0.2","","","621.5999999940395","","","22","1001","918","q","elianto","#3366ff99"," "," ","1","+10","[1472.7000000178814]","1","3","","","1001","245","11","1","win","go","0","0"
"pit-trial","315","1850506","0.0-251.0","battery-v0.2","","","-1","","","22","1001","918","n","elianto","#f73b6a7A"," ","-1","0","0","[]","0","3","","","1001","246","10","3","lose","go","1","0"
"pit-trial","316","1855366","0.0-252.0","battery-v0.2","","","-1","","","22","1001","918","x","elianto","#f73b6a7A","-1","-1","1","0","[]","0","3","","","1001","247","8","4","lose","no-go","0","0"
"pit-trial","317","1859000","0.0-253.0","battery-v0.2","","","774.5999999940395","","","22","1001","918","f","elianto","#3366ff99"," "," ","1","+10","[1625.800000011921]","1","3","","","1001","248","9","1","win","go","0","0"
"pit-trial","318","1862970","0.0-254.0","battery-v0.2","","","1111.7000000178814","","","22","1001","918","n","elianto","#f73b6a7A"," "," ","1","0","[1962.699999988079]","1","3","","","1001","249","10","3","lose","go","0","0"
"pit-trial","319","1867835","0.0-255.0","battery-v0.2","","","-1","","","22","1001","918","x","elianto","#f73b6a7A","-1","-1","1","0","[]","0","3","","","1001","250","8","4","lose","no-go","0","0"
"pit-trial","320","1871509","0.0-256.0","battery-v0.2","","","816","","","22","1001","918","q","elianto","#3366ff99"," "," ","1","+10","[1666.4000000059605]","1","3","","","1001","251","11","1","win","go","0","0"
"pit-trial","321","1874998","0.0-257.0","battery-v0.2","","","625.6999999880791","","","22","1001","918","f","elianto","#3366ff99"," "," ","1","+10","[1476.699999988079]","1","3","","","1001","252","9","1","win","go","0","0"
"pit-trial","322","1879863","0.0-258.0","battery-v0.2","","","-1","","","22","1001","918","x","elianto","#f73b6a7A","-1","-1","1","0","[]","0","3","","","1001","253","8","4","lose","no-go","0","0"
"pit-trial","323","1883456","0.0-259.0","battery-v0.2","","","729.3000000119209","","","22","1001","918","f","elianto","#3366ff99"," "," ","1","0","[1581]","1","3","","","1001","254","9","1","win","go","1","0"
"pit-trial","324","1888321","0.0-260.0","battery-v0.2","","","-1","","","22","1001","918","n","elianto","#f73b6a7A"," ","-1","0","-10","[]","0","3","","","1001","255","10","3","lose","go","0","0"
"pit-trial","325","1892454","0.0-261.0","battery-v0.2","","","1270.800000011921","","","22","1001","918","q","elianto","#3366ff99"," "," ","1","+10","[2121.800000011921]","1","3","","","1001","256","11","1","win","go","0","0"
"pit-trial","326","1897318","0.0-262.0","battery-v0.2","","","-1","","","22","1001","918","n","elianto","#f73b6a7A"," ","-1","0","-10","[]","0","3","","","1001","257","10","3","lose","go","0","0"
"pit-trial","327","1900778","0.0-263.0","battery-v0.2","","","599.4000000059605","","","22","1001","918","q","elianto","#3366ff99"," "," ","1","+10","[1449.5999999940395]","1","3","","","1001","258","11","1","win","go","0","0"
"pit-trial","328","1904284","0.0-264.0","battery-v0.2","","","643.3000000119209","","","22","1001","918","f","elianto","#3366ff99"," "," ","1","0","[1495.4000000059605]","1","3","","","1001","259","9","1","win","go","1","0"
"pit-trial","329","1909149","0.0-265.0","battery-v0.2","","","-1","","","22","1001","918","x","elianto","#f73b6a7A","-1","-1","1","0","[]","0","3","","","1001","260","8","4","lose","no-go","0","0"
"pit-instructions","330","1924030","0.0-266.0","battery-v0.2","","[{""page_index"":0,""viewing_time"":14874.199999988079}]","14874.59999999404","","","","","","","","","","","","","","","","","","","","","","","","",""
