"trial_type","trial_index","time_elapsed","internal_node_id","task_version","subject_id","interactions","blur_events","focus_events","fullscreenenter_events","fullscreenexit_events","success","view_history","rt","responses","num_errors","age","subject","participantId","rune","rune_set","hex","correct","choice","accuracy","outcome","keys","total_keys","block","practice","value","sub","trial","stimulus","robot","valence","action","sham","browser_interactions"
"pavlovia","0","24","0.0-0.0","battery-v0.2","","""event"",""trial"",""time""
""fullscreenenter"",""1"",""5643""
","
","
","""event"",""trial"",""time""
""fullscreenenter"",""1"",""5643""
","
","","","","","","","","","","","","","","","","","","","","","","","","","","","",""
"fullscreen","1","6642","0.0-1.0","battery-v0.2","","""event"",""trial"",""time""
""fullscreenenter"",""1"",""5643""
","
","
","""event"",""trial"",""time""
""fullscreenenter"",""1"",""5643""
","
","true","","","","","","","","","","","","","","","","","","","","","","","","","","",""
"pit-instructions","2","12252","0.0-2.0-0.0","battery-v0.2","","""event"",""trial"",""time""
""fullscreenenter"",""1"",""5643""
","
","
","""event"",""trial"",""time""
""fullscreenenter"",""1"",""5643""
","
","","[{""page_index"":0,""viewing_time"":5606.300000011921}]","5607","","","","","","","","","","","","","","","","","","","","","","","","",""
"pit-comprehension","3","20015","0.0-2.0-1.0-0.0","battery-v0.2","","""event"",""trial"",""time""
""fullscreenenter"",""1"",""5643""
","
","
","""event"",""trial"",""time""
""fullscreenenter"",""1"",""5643""
","
","","","7752.700000017881","[""shark""]","0","25","1011","374","","","","","","","","","","","","","","","","","","","",""
"pit-instructions","4","23085","0.0-2.0-1.0-1.0","battery-v0.2","","""event"",""trial"",""time""
""fullscreenenter"",""1"",""5643""
","
","
","""event"",""trial"",""time""
""fullscreenenter"",""1"",""5643""
","
","","[{""page_index"":0,""viewing_time"":3019.9000000059605}]","3020.2000000178814","","","","","","","","","","","","","","","","","","","","","","","","",""
"pit-comprehension","5","26833","0.0-2.0-2.0-0.0","battery-v0.2","","""event"",""trial"",""time""
""fullscreenenter"",""1"",""5643""
","
","
","""event"",""trial"",""time""
""fullscreenenter"",""1"",""5643""
","
","","","3744.0999999940395","[""tiger""]","0","25","1011","374","","","","","","","","","","","","","","","","","","","",""
"pit-instructions","6","28219","0.0-2.0-2.0-1.0","battery-v0.2","","""event"",""trial"",""time""
""fullscreenenter"",""1"",""5643""
","
","
","""event"",""trial"",""time""
""fullscreenenter"",""1"",""5643""
","
","","[{""page_index"":0,""viewing_time"":1377.800000011921}]","1378.4000000059605","","","","","","","","","","","","","","","","","","","","","","","","",""
"pit-instructions","7","141696","0.0-2.0-3.0","battery-v0.2","","""event"",""trial"",""time""
""fullscreenenter"",""1"",""5643""
","
","
","""event"",""trial"",""time""
""fullscreenenter"",""1"",""5643""
","
","","[{""page_index"":0,""viewing_time"":10238.40000000596},{""page_index"":1,""viewing_time"":7917.5999999940395},{""page_index"":2,""viewing_time"":8394},{""page_index"":3,""viewing_time"":5846},{""page_index"":4,""viewing_time"":7674.9000000059605},{""page_index"":5,""viewing_time"":9239.59999999404},{""page_index"":6,""viewing_time"":8218},{""page_index"":7,""viewing_time"":9008},{""page_index"":8,""viewing_time"":6544.700000017881},{""page_index"":9,""viewing_time"":10836.399999976158},{""page_index"":10,""viewing_time"":7211.800000011921},{""page_index"":11,""viewing_time"":8062.699999988079},{""page_index"":12,""viewing_time"":7358.9000000059605},{""page_index"":13,""viewing_time"":6919.9000000059605}]","113471.70000001788","","","","","","","","","","","","","","","","","","","","","","","","",""
"pit-trial","8","145187","0.0-2.0-4.0-0.0","battery-v0.2","","""event"",""trial"",""time""
""fullscreenenter"",""1"",""5643""
","
","
","""event"",""trial"",""time""
""fullscreenenter"",""1"",""5643""
","
","","","623.5999999940395","","","25","1011","374","&#9784;","elianto","#FFFFF080"," "," ","1","&#10004","[1473.9000000059605]","1","0","0","","","","","","","","",""
"pit-trial","9","148735","0.0-2.0-4.1-0.1","battery-v0.2","","""event"",""trial"",""time""
""fullscreenenter"",""1"",""5643""
","
","
","""event"",""trial"",""time""
""fullscreenenter"",""1"",""5643""
","
","","","684.9000000059605","","","25","1011","374","&#9784;","elianto","#FFFFF080"," "," ","1","&#10004","[1537.8999999761581]","1","0","0","","","","","","","","",""
"pit-trial","10","152031","0.0-2.0-4.2-0.2","battery-v0.2","","""event"",""trial"",""time""
""fullscreenenter"",""1"",""5643""
","
","
","""event"",""trial"",""time""
""fullscreenenter"",""1"",""5643""
","
","","","430.09999999403954","","","25","1011","374","&#9784;","elianto","#FFFFF080"," "," ","1","&#10004","[1282.7000000178814]","1","0","0","","","","","","","","",""
"pit-trial","11","155607","0.0-2.0-4.3-0.3","battery-v0.2","","""event"",""trial"",""time""
""fullscreenenter"",""1"",""5643""
","
","
","""event"",""trial"",""time""
""fullscreenenter"",""1"",""5643""
","
","","","705","","","25","1011","374","&#9784;","elianto","#FFFFF080"," "," ","1","&#10004","[1561.199999988079]","1","0","0","","","","","","","","",""
"pit-trial","12","159337","0.0-2.0-4.4-0.4","battery-v0.2","","""event"",""trial"",""time""
""fullscreenenter"",""1"",""5643""
","
","
","""event"",""trial"",""time""
""fullscreenenter"",""1"",""5643""
","
","","","862.1999999880791","","","25","1011","374","&#9784;","elianto","#FFFFF080"," "," ","1","&#10004","[1720.0999999940395]","1","0","0","","","","","","","","",""
"pit-instructions","13","185293","0.0-2.0-5.0","battery-v0.2","","""event"",""trial"",""time""
""fullscreenenter"",""1"",""5643""
","
","
","""event"",""trial"",""time""
""fullscreenenter"",""1"",""5643""
","
","","[{""page_index"":0,""viewing_time"":5429.699999988079},{""page_index"":1,""viewing_time"":6244.800000011921},{""page_index"":2,""viewing_time"":8853.5},{""page_index"":3,""viewing_time"":5424.299999982119}]","25952.59999999404","","","","","","","","","","","","","","","","","","","","","","","","",""
"pit-trial","14","190165","0.0-2.0-6.0-0.0","battery-v0.2","","""event"",""trial"",""time""
""fullscreenenter"",""1"",""5643""
","
","
","""event"",""trial"",""time""
""fullscreenenter"",""1"",""5643""
","
","","","-1","","","25","1011","374","&#9854;","elianto","#FFFFF080","-1","-1","1","&#10004","[]","0","0","1","","","","","","","","",""
"pit-trial","15","195038","0.0-2.0-6.1-0.1","battery-v0.2","","""event"",""trial"",""time""
""fullscreenenter"",""1"",""5643""
","
","
","""event"",""trial"",""time""
""fullscreenenter"",""1"",""5643""
","
","","","-1","","","25","1011","374","&#9854;","elianto","#FFFFF080","-1","-1","1","&#10004","[]","0","0","1","","","","","","","","",""
"pit-trial","16","199909","0.0-2.0-6.2-0.2","battery-v0.2","","""event"",""trial"",""time""
""fullscreenenter"",""1"",""5643""
","
","
","""event"",""trial"",""time""
""fullscreenenter"",""1"",""5643""
","
","","","-1","","","25","1011","374","&#9854;","elianto","#FFFFF080","-1","-1","1","&#10004","[]","0","0","1","","","","","","","","",""
"pit-trial","17","204781","0.0-2.0-6.3-0.3","battery-v0.2","","""event"",""trial"",""time""
""fullscreenenter"",""1"",""5643""
","
","
","""event"",""trial"",""time""
""fullscreenenter"",""1"",""5643""
","
","","","-1","","","25","1011","374","&#9854;","elianto","#FFFFF080","-1","-1","1","&#10004","[]","0","0","1","","","","","","","","",""
"pit-trial","18","209647","0.0-2.0-6.4-0.4","battery-v0.2","","""event"",""trial"",""time""
""fullscreenenter"",""1"",""5643""
","
","
","""event"",""trial"",""time""
""fullscreenenter"",""1"",""5643""
","
","","","-1","","","25","1011","374","&#9854;","elianto","#FFFFF080","-1","-1","1","&#10004","[]","0","0","1","","","","","","","","",""
"pit-instructions","19","376522","0.0-2.0-7.0","battery-v0.2","","""event"",""trial"",""time""
""fullscreenenter"",""1"",""5643""
","
","
","""event"",""trial"",""time""
""fullscreenenter"",""1"",""5643""
","
","","[{""page_index"":0,""viewing_time"":6980.5},{""page_index"":1,""viewing_time"":7046.799999982119},{""page_index"":2,""viewing_time"":6648.800000011921},{""page_index"":3,""viewing_time"":6354.800000011921},{""page_index"":4,""viewing_time"":6095.5},{""page_index"":5,""viewing_time"":5649},{""page_index"":6,""viewing_time"":5676},{""page_index"":7,""viewing_time"":8019.399999976158},{""page_index"":8,""viewing_time"":7386.5},{""page_index"":9,""viewing_time"":8280.600000023842},{""page_index"":10,""viewing_time"":7881.699999988079},{""page_index"":11,""viewing_time"":4740.199999988079},{""page_index"":12,""viewing_time"":7162.9000000059605},{""page_index"":13,""viewing_time"":7865.200000017881},{""page_index"":14,""viewing_time"":7971.699999988079},{""page_index"":15,""viewing_time"":15338.59999999404},{""page_index"":16,""viewing_time"":36370.5},{""page_index"":17,""viewing_time"":11398.700000017881}]","166868.29999998212","","","","","","","","","","","","","","","","","","","","","","","","",""
"pit-trial","20","380085","0.0-2.0-8.0-0.0","battery-v0.2","","""event"",""trial"",""time""
""fullscreenenter"",""1"",""5643""
","
","
","""event"",""trial"",""time""
""fullscreenenter"",""1"",""5643""
","
","","","701.4000000059605","","","25","1011","374","&#9776;","elianto","#3366ff99"," "," ","1","+10","[1551.800000011921]","1","0","1","","","","","","","","",""
"pit-trial","21","383636","0.0-2.0-8.0-1.0","battery-v0.2","","""event"",""trial"",""time""
""fullscreenenter"",""1"",""5643""
","
","
","""event"",""trial"",""time""
""fullscreenenter"",""1"",""5643""
","
","","","692.6999999880791","","","25","1011","374","&#9776;","elianto","#3366ff99"," "," ","1","+10","[1543.0999999940395]","1","0","1","","","","","","","","",""
"pit-trial","22","387096","0.0-2.0-8.0-2.0","battery-v0.2","","""event"",""trial"",""time""
""fullscreenenter"",""1"",""5643""
","
","
","""event"",""trial"",""time""
""fullscreenenter"",""1"",""5643""
","
","","","606","","","25","1011","374","&#9776;","elianto","#3366ff99"," "," ","1","+10","[1456.5]","1","0","1","","","","","","","","",""
"pit-trial","23","390635","0.0-2.0-8.0-3.0","battery-v0.2","","""event"",""trial"",""time""
""fullscreenenter"",""1"",""5643""
","
","
","""event"",""trial"",""time""
""fullscreenenter"",""1"",""5643""
","
","","","679.4000000059605","","","25","1011","374","&#9776;","elianto","#3366ff99"," "," ","1","0","[1530.9000000059605]","1","0","1","","","","","","","","",""
"pit-trial","24","394278","0.0-2.0-8.0-4.0","battery-v0.2","","""event"",""trial"",""time""
""fullscreenenter"",""1"",""5643""
","
","
","""event"",""trial"",""time""
""fullscreenenter"",""1"",""5643""
","
","","","773.4000000059605","","","25","1011","374","&#9776;","elianto","#3366ff99"," "," ","1","+10","[1624.9000000059605]","1","0","1","","","","","","","","",""
"call-function","25","394282","0.0-2.0-9.0","battery-v0.2","","""event"",""trial"",""time""
""fullscreenenter"",""1"",""5643""
","
","
","""event"",""trial"",""time""
""fullscreenenter"",""1"",""5643""
","
","","","","","","","","","","","","","","","","","","","","","","","","","","","",""
"pit-instructions","26","439155","0.0-2.0-10.0","battery-v0.2","","""event"",""trial"",""time""
""fullscreenenter"",""1"",""5643""
","
","
","""event"",""trial"",""time""
""fullscreenenter"",""1"",""5643""
","
","","[{""page_index"":0,""viewing_time"":6780.4000000059605},{""page_index"":1,""viewing_time"":8378.300000011921},{""page_index"":2,""viewing_time"":9624.09999999404},{""page_index"":3,""viewing_time"":10724.699999988079},{""page_index"":4,""viewing_time"":9364}]","44871.80000001192","","","","","","","","","","","","","","","","","","","","","","","","",""
"pit-trial","27","442615","0.0-2.0-11.0-0.0","battery-v0.2","","""event"",""trial"",""time""
""fullscreenenter"",""1"",""5643""
","
","
","""event"",""trial"",""time""
""fullscreenenter"",""1"",""5643""
","
","","","596.7000000178814","","","25","1011","374","&#9761;","elianto","#3366ff99","-1"," ","0","0","[1447.6000000238419]","1","0","2","","","","","","","","",""
"pit-trial","28","447475","0.0-2.0-11.0-1.0","battery-v0.2","","""event"",""trial"",""time""
""fullscreenenter"",""1"",""5643""
","
","
","""event"",""trial"",""time""
""fullscreenenter"",""1"",""5643""
","
","","","-1","","","25","1011","374","&#9761;","elianto","#3366ff99","-1","-1","1","+10","[]","0","0","2","","","","","","","","",""
"pit-trial","29","452354","0.0-2.0-11.0-2.0","battery-v0.2","","""event"",""trial"",""time""
""fullscreenenter"",""1"",""5643""
","
","
","""event"",""trial"",""time""
""fullscreenenter"",""1"",""5643""
","
","","","-1","","","25","1011","374","&#9761;","elianto","#3366ff99","-1","-1","1","+10","[]","0","0","2","","","","","","","","",""
"pit-trial","30","457226","0.0-2.0-11.0-3.0","battery-v0.2","","""event"",""trial"",""time""
""fullscreenenter"",""1"",""5643""
","
","
","""event"",""trial"",""time""
""fullscreenenter"",""1"",""5643""
","
","","","-1","","","25","1011","374","&#9761;","elianto","#3366ff99","-1","-1","1","0","[]","0","0","2","","","","","","","","",""
"pit-trial","31","462095","0.0-2.0-11.0-4.0","battery-v0.2","","""event"",""trial"",""time""
""fullscreenenter"",""1"",""5643""
","
","
","""event"",""trial"",""time""
""fullscreenenter"",""1"",""5643""
","
","","","-1","","","25","1011","374","&#9761;","elianto","#3366ff99","-1","-1","1","+10","[]","0","0","2","","","","","","","","",""
"call-function","32","462099","0.0-2.0-12.0","battery-v0.2","","""event"",""trial"",""time""
""fullscreenenter"",""1"",""5643""
","
","
","""event"",""trial"",""time""
""fullscreenenter"",""1"",""5643""
","
","","","","","","","","","","","","","","","","","","","","","","","","","","","",""
"pit-instructions","33","499715","0.0-2.0-13.0","battery-v0.2","","""event"",""trial"",""time""
""fullscreenenter"",""1"",""5643""
","
","
","""event"",""trial"",""time""
""fullscreenenter"",""1"",""5643""
","
","","[{""page_index"":0,""viewing_time"":5529.200000017881},{""page_index"":1,""viewing_time"":8905.59999999404},{""page_index"":2,""viewing_time"":6148.299999982119},{""page_index"":3,""viewing_time"":10371.300000011921},{""page_index"":4,""viewing_time"":6659.800000011921}]","37614.90000000596","","","","","","","","","","","","","","","","","","","","","","","","",""
"pit-trial","34","503137","0.0-2.0-14.0-0.0","battery-v0.2","","""event"",""trial"",""time""
""fullscreenenter"",""1"",""5643""
","
","
","""event"",""trial"",""time""
""fullscreenenter"",""1"",""5643""
","
","","","566.5999999940395","","","25","1011","374","&#9826;","elianto","#f73b6a7A","-1"," ","0","-10","[1418.0999999940395]","1","0","3","","","","","","","","",""
"pit-trial","35","508016","0.0-2.0-14.0-1.0","battery-v0.2","","""event"",""trial"",""time""
""fullscreenenter"",""1"",""5643""
","
","
","""event"",""trial"",""time""
""fullscreenenter"",""1"",""5643""
","
","","","-1","","","25","1011","374","&#9826;","elianto","#f73b6a7A","-1","-1","1","0","[]","0","0","3","","","","","","","","",""
"pit-trial","36","512880","0.0-2.0-14.0-2.0","battery-v0.2","","""event"",""trial"",""time""
""fullscreenenter"",""1"",""5643""
","
","
","""event"",""trial"",""time""
""fullscreenenter"",""1"",""5643""
","
","","","-1","","","25","1011","374","&#9826;","elianto","#f73b6a7A","-1","-1","1","0","[]","0","0","3","","","","","","","","",""
"pit-trial","37","517745","0.0-2.0-14.0-3.0","battery-v0.2","","""event"",""trial"",""time""
""fullscreenenter"",""1"",""5643""
","
","
","""event"",""trial"",""time""
""fullscreenenter"",""1"",""5643""
","
","","","-1","","","25","1011","374","&#9826;","elianto","#f73b6a7A","-1","-1","1","-10","[]","0","0","3","","","","","","","","",""
"pit-trial","38","522622","0.0-2.0-14.0-4.0","battery-v0.2","","""event"",""trial"",""time""
""fullscreenenter"",""1"",""5643""
","
","
","""event"",""trial"",""time""
""fullscreenenter"",""1"",""5643""
","
","","","-1","","","25","1011","374","&#9826;","elianto","#f73b6a7A","-1","-1","1","0","[]","0","0","3","","","","","","","","",""
"call-function","39","522625","0.0-2.0-15.0","battery-v0.2","","""event"",""trial"",""time""
""fullscreenenter"",""1"",""5643""
","
","
","""event"",""trial"",""time""
""fullscreenenter"",""1"",""5643""
","
","","","","","","","","","","","","","","","","","","","","","","","","","","","",""
"pit-instructions","40","550792","0.0-2.0-16.0","battery-v0.2","","""event"",""trial"",""time""
""fullscreenenter"",""1"",""5643""
","
","
","""event"",""trial"",""time""
""fullscreenenter"",""1"",""5643""
","
","","[{""page_index"":0,""viewing_time"":7417.9000000059605},{""page_index"":1,""viewing_time"":9008.699999988079},{""page_index"":2,""viewing_time"":6134.800000011921},{""page_index"":3,""viewing_time"":5604}]","28165.80000001192","","","","","","","","","","","","","","","","","","","","","","","","",""
"pit-trial","41","554194","0.0-2.0-17.0-0.0","battery-v0.2","","""event"",""trial"",""time""
""fullscreenenter"",""1"",""5643""
","
","
","""event"",""trial"",""time""
""fullscreenenter"",""1"",""5643""
","
","","","541.6999999880791","","","25","1011","374","&#9789;","elianto","#f73b6a7A"," "," ","1","0","[1396.7999999821186]","1","0","4","","","","","","","","",""
"pit-trial","42","559062","0.0-2.0-17.0-1.0","battery-v0.2","","""event"",""trial"",""time""
""fullscreenenter"",""1"",""5643""
","
","
","""event"",""trial"",""time""
""fullscreenenter"",""1"",""5643""
","
","","","-1","","","25","1011","374","&#9789;","elianto","#f73b6a7A"," ","-1","0","-10","[]","0","0","4","","","","","","","","",""
"pit-trial","43","562612","0.0-2.0-17.0-2.0","battery-v0.2","","""event"",""trial"",""time""
""fullscreenenter"",""1"",""5643""
","
","
","""event"",""trial"",""time""
""fullscreenenter"",""1"",""5643""
","
","","","690.0999999940395","","","25","1011","374","&#9789;","elianto","#f73b6a7A"," "," ","1","0","[1541]","1","0","4","","","","","","","","",""
"pit-trial","44","566100","0.0-2.0-17.0-3.0","battery-v0.2","","""event"",""trial"",""time""
""fullscreenenter"",""1"",""5643""
","
","
","""event"",""trial"",""time""
""fullscreenenter"",""1"",""5643""
","
","","","632.8000000119209","","","25","1011","374","&#9789;","elianto","#f73b6a7A"," "," ","1","-10","[1483.6000000238419]","1","0","4","","","","","","","","",""
"pit-trial","45","570966","0.0-2.0-17.0-4.0","battery-v0.2","","""event"",""trial"",""time""
""fullscreenenter"",""1"",""5643""
","
","
","""event"",""trial"",""time""
""fullscreenenter"",""1"",""5643""
","
","","","-1","","","25","1011","374","&#9789;","elianto","#f73b6a7A"," ","-1","0","-10","[]","0","0","4","","","","","","","","",""
"pit-trial","46","574426","0.0-2.0-17.1-0.1","battery-v0.2","","""event"",""trial"",""time""
""fullscreenenter"",""1"",""5643""
","
","
","""event"",""trial"",""time""
""fullscreenenter"",""1"",""5643""
","
","","","594.9000000059605","","","25","1011","374","&#9789;","elianto","#f73b6a7A"," "," ","1","0","[1451.4000000059605]","1","0","4","","","","","","","","",""
"pit-trial","47","578029","0.0-2.0-17.1-1.1","battery-v0.2","","""event"",""trial"",""time""
""fullscreenenter"",""1"",""5643""
","
","
","""event"",""trial"",""time""
""fullscreenenter"",""1"",""5643""
","
","","","731.9000000059605","","","25","1011","374","&#9789;","elianto","#f73b6a7A"," "," ","1","0","[1582.300000011921]","1","0","4","","","","","","","","",""
"pit-trial","48","581506","0.0-2.0-17.1-2.1","battery-v0.2","","""event"",""trial"",""time""
""fullscreenenter"",""1"",""5643""
","
","
","""event"",""trial"",""time""
""fullscreenenter"",""1"",""5643""
","
","","","621","","","25","1011","374","&#9789;","elianto","#f73b6a7A"," "," ","1","0","[1472.5999999940395]","1","0","4","","","","","","","","",""
"pit-trial","49","585190","0.0-2.0-17.1-3.1","battery-v0.2","","""event"",""trial"",""time""
""fullscreenenter"",""1"",""5643""
","
","
","""event"",""trial"",""time""
""fullscreenenter"",""1"",""5643""
","
","","","828.3999999761581","","","25","1011","374","&#9789;","elianto","#f73b6a7A"," "," ","1","-10","[1679.5999999940395]","1","0","4","","","","","","","","",""
"pit-trial","50","588577","0.0-2.0-17.1-4.1","battery-v0.2","","""event"",""trial"",""time""
""fullscreenenter"",""1"",""5643""
","
","
","""event"",""trial"",""time""
""fullscreenenter"",""1"",""5643""
","
","","","531.6000000238419","","","25","1011","374","&#9789;","elianto","#f73b6a7A"," "," ","1","0","[1382.7000000178814]","1","0","4","","","","","","","","",""
"call-function","51","588581","0.0-2.0-18.0","battery-v0.2","","""event"",""trial"",""time""
""fullscreenenter"",""1"",""5643""
","
","
","""event"",""trial"",""time""
""fullscreenenter"",""1"",""5643""
","
","","","","","","","","","","","","","","","","","","","","","","","","","","","",""
"pit-instructions","52","669918","0.0-2.0-19.0","battery-v0.2","","""event"",""trial"",""time""
""fullscreenenter"",""1"",""5643""
","
","
","""event"",""trial"",""time""
""fullscreenenter"",""1"",""5643""
","
","","[{""page_index"":0,""viewing_time"":7257.4000000059605},{""page_index"":1,""viewing_time"":5787.0999999940395},{""page_index"":2,""viewing_time"":15556},{""page_index"":3,""viewing_time"":15749},{""page_index"":4,""viewing_time"":8751},{""page_index"":5,""viewing_time"":8730.90000000596},{""page_index"":6,""viewing_time"":8616.299999982119},{""page_index"":7,""viewing_time"":6694.300000011921},{""page_index"":8,""viewing_time"":4193.5999999940395}]","81336.40000000596","","","","","","","","","","","","","","","","","","","","","","","","",""
"pit-comprehension","53","676284","0.0-2.0-20.0-0.0","battery-v0.2","","""event"",""trial"",""time""
""fullscreenenter"",""1"",""5643""
","
","
","""event"",""trial"",""time""
""fullscreenenter"",""1"",""5643""
","
","","","6362.200000017881","[""SPACE""]","0","25","1011","374","","","","","","","","","","","","","","","","","","","",""
"pit-instructions","54","679572","0.0-2.0-20.0-1.0","battery-v0.2","","""event"",""trial"",""time""
""fullscreenenter"",""1"",""5643""
","
","
","""event"",""trial"",""time""
""fullscreenenter"",""1"",""5643""
","
","","[{""page_index"":0,""viewing_time"":3250.7999999821186}]","3251","","","","","","","","","","","","","","","","","","","","","","","","",""
"pit-comprehension","55","687584","0.0-2.0-21.0-0.0","battery-v0.2","","""event"",""trial"",""time""
""fullscreenenter"",""1"",""5643""
","
","
","""event"",""trial"",""time""
""fullscreenenter"",""1"",""5643""
","
","","","8008.5999999940395","[""10""]","0","25","1011","374","","","","","","","","","","","","","","","","","","","",""
"pit-instructions","56","689865","0.0-2.0-21.0-1.0","battery-v0.2","","""event"",""trial"",""time""
""fullscreenenter"",""1"",""5643""
","
","
","""event"",""trial"",""time""
""fullscreenenter"",""1"",""5643""
","
","","[{""page_index"":0,""viewing_time"":2233.800000011921}]","2234.100000023842","","","","","","","","","","","","","","","","","","","","","","","","",""
"pit-comprehension","57","697986","0.0-2.0-22.0-0.0","battery-v0.2","","""event"",""trial"",""time""
""fullscreenenter"",""1"",""5643""
","
","
","""event"",""trial"",""time""
""fullscreenenter"",""1"",""5643""
","
","","","8117.0999999940395","[""0""]","0","25","1011","374","","","","","","","","","","","","","","","","","","","",""
"pit-instructions","58","700461","0.0-2.0-22.0-1.0","battery-v0.2","","""event"",""trial"",""time""
""fullscreenenter"",""1"",""5643""
","
","
","""event"",""trial"",""time""
""fullscreenenter"",""1"",""5643""
","
","","[{""page_index"":0,""viewing_time"":2414.800000011921}]","2415.0999999940395","","","","","","","","","","","","","","","","","","","","","","","","",""
"pit-comprehension","59","714618","0.0-2.0-23.0-0.0","battery-v0.2","","""event"",""trial"",""time""
""fullscreenenter"",""1"",""5643""
","
","
","""event"",""trial"",""time""
""fullscreenenter"",""1"",""5643""
","
","","","14154.09999999404","[""True""]","0","25","1011","374","","","","","","","","","","","","","","","","","","","",""
"pit-instructions","60","716835","0.0-2.0-23.0-1.0","battery-v0.2","","""event"",""trial"",""time""
""fullscreenenter"",""1"",""5643""
","
","
","""event"",""trial"",""time""
""fullscreenenter"",""1"",""5643""
","
","","[{""page_index"":0,""viewing_time"":2188.5}]","2189.2000000178814","","","","","","","","","","","","","","","","","","","","","","","","",""
"pit-comprehension","61","725705","0.0-2.0-24.0-0.0","battery-v0.2","","""event"",""trial"",""time""
""fullscreenenter"",""1"",""5643""
","
","
","""event"",""trial"",""time""
""fullscreenenter"",""1"",""5643""
","
","","","8863.800000011921","[""True""]","0","25","1011","374","","","","","","","","","","","","","","","","","","","",""
"pit-instructions","62","728327","0.0-2.0-24.0-1.0","battery-v0.2","","""event"",""trial"",""time""
""fullscreenenter"",""1"",""5643""
","
","
","""event"",""trial"",""time""
""fullscreenenter"",""1"",""5643""
","
","","[{""page_index"":0,""viewing_time"":2567.800000011921}]","2568","","","","","","","","","","","","","","","","","","","","","","","","",""
"pit-comprehension","63","735944","0.0-2.0-25.0-0.0","battery-v0.2","","""event"",""trial"",""time""
""fullscreenenter"",""1"",""5643""
","
","
","""event"",""trial"",""time""
""fullscreenenter"",""1"",""5643""
","
","","","7612.9000000059605","[""True""]","0","25","1011","374","","","","","","","","","","","","","","","","","","","",""
"pit-instructions","64","738375","0.0-2.0-25.0-1.0","battery-v0.2","","""event"",""trial"",""time""
""fullscreenenter"",""1"",""5643""
","
","
","""event"",""trial"",""time""
""fullscreenenter"",""1"",""5643""
","
","","[{""page_index"":0,""viewing_time"":2377.4000000059605}]","2378","","","","","","","","","","","","","","","","","","","","","","","","",""
"pit-comprehension","65","745261","0.0-2.0-26.0-0.0","battery-v0.2","","""event"",""trial"",""time""
""fullscreenenter"",""1"",""5643""
","
","
","""event"",""trial"",""time""
""fullscreenenter"",""1"",""5643""
","
","","","6881.4000000059605","[""False""]","0","25","1011","374","","","","","","","","","","","","","","","","","","","",""
"pit-instructions","66","749136","0.0-2.0-26.0-1.0","battery-v0.2","","""event"",""trial"",""time""
""fullscreenenter"",""1"",""5643""
","
","
","""event"",""trial"",""time""
""fullscreenenter"",""1"",""5643""
","
","","[{""page_index"":0,""viewing_time"":3839.5}]","3839.800000011921","","","","","","","","","","","","","","","","","","","","","","","","",""
"pit-instructions","67","767664","0.0-3.0","battery-v0.2","","""event"",""trial"",""time""
""fullscreenenter"",""1"",""5643""
","
","
","""event"",""trial"",""time""
""fullscreenenter"",""1"",""5643""
","
","","[{""page_index"":0,""viewing_time"":4724.4000000059605},{""page_index"":1,""viewing_time"":5675.0999999940395},{""page_index"":2,""viewing_time"":8126.5999999940395}]","18526.40000000596","","","","","","","","","","","","","","","","","","","","","","","","",""
"pit-trial","68","771217","0.0-4.0","battery-v0.2","","""event"",""trial"",""time""
""fullscreenenter"",""1"",""5643""
","
","
","""event"",""trial"",""time""
""fullscreenenter"",""1"",""5643""
","
","","","693.5","","","25","1011","374","&#9752;","elianto","#f73b6a7A"," "," ","1","0","[1544.300000011921]","1","1","","","1011","1","3","3","lose","go","0","[]"
"pit-trial","69","774934","0.0-5.0","battery-v0.2","","""event"",""trial"",""time""
""fullscreenenter"",""1"",""5643""
","
","
","""event"",""trial"",""time""
""fullscreenenter"",""1"",""5643""
","
","","","848.9000000059605","","","25","1011","374","&#9728;","elianto","#f73b6a7A","-1"," ","0","-10","[1699.4000000059605]","1","1","","","1011","2","0","4","lose","no-go","0","0"
"pit-trial","70","778908","0.0-6.0","battery-v0.2","","""event"",""trial"",""time""
""fullscreenenter"",""1"",""5643""
","
","
","""event"",""trial"",""time""
""fullscreenenter"",""1"",""5643""
","
","","","1112.9000000059605","","","25","1011","374","&#9733;","elianto","#3366ff99","-1"," ","0","0","[1965.2999999821186]","1","1","","","1011","3","2","2","win","no-go","0","0"
"pit-trial","71","782781","0.0-7.0","battery-v0.2","","""event"",""trial"",""time""
""fullscreenenter"",""1"",""5643""
","
","
","""event"",""trial"",""time""
""fullscreenenter"",""1"",""5643""
","
","","","1009.8000000119209","","","25","1011","374","&#9730;","elianto","#3366ff99"," "," ","1","+10","[1866.5]","1","1","","","1011","4","1","1","win","go","0","0"
"pit-trial","72","786653","0.0-8.0","battery-v0.2","","""event"",""trial"",""time""
""fullscreenenter"",""1"",""5643""
","
","
","""event"",""trial"",""time""
""fullscreenenter"",""1"",""5643""
","
","","","1013.5","","","25","1011","374","&#9730;","elianto","#3366ff99"," "," ","1","+10","[1865.4000000059605]","1","1","","","1011","5","1","1","win","go","0","0"
"pit-trial","73","791309","0.0-9.0","battery-v0.2","","""event"",""trial"",""time""
""fullscreenenter"",""1"",""5643""
","
","
","""event"",""trial"",""time""
""fullscreenenter"",""1"",""5643""
","
","","","1802.7000000178814","","","25","1011","374","&#9733;","elianto","#3366ff99","-1"," ","0","0","[2652.7000000178814]","1","1","","","1011","6","2","2","win","no-go","0","0"
"pit-trial","74","796183","0.0-10.0","battery-v0.2","","""event"",""trial"",""time""
""fullscreenenter"",""1"",""5643""
","
","
","""event"",""trial"",""time""
""fullscreenenter"",""1"",""5643""
","
","","","-1","","","25","1011","374","&#9752;","elianto","#f73b6a7A"," ","-1","0","-10","[]","0","1","","","1011","7","3","3","lose","go","0","0"
"pit-trial","75","799808","0.0-11.0","battery-v0.2","","""event"",""trial"",""time""
""fullscreenenter"",""1"",""5643""
","
","
","""event"",""trial"",""time""
""fullscreenenter"",""1"",""5643""
","
","","","770.8999999761581","","","25","1011","374","&#9728;","elianto","#f73b6a7A","-1"," ","0","-10","[1621.4000000059605]","1","1","","","1011","8","0","4","lose","no-go","0","0"
"pit-trial","76","804662","0.0-12.0","battery-v0.2","","""event"",""trial"",""time""
""fullscreenenter"",""1"",""5643""
","
","
","""event"",""trial"",""time""
""fullscreenenter"",""1"",""5643""
","
","","","-1","","","25","1011","374","&#9752;","elianto","#f73b6a7A"," ","-1","0","-10","[]","0","1","","","1011","9","3","3","lose","go","0","0"
"pit-trial","77","809517","0.0-13.0","battery-v0.2","","""event"",""trial"",""time""
""fullscreenenter"",""1"",""5643""
","
","
","""event"",""trial"",""time""
""fullscreenenter"",""1"",""5643""
","
","","","-1","","","25","1011","374","&#9728;","elianto","#f73b6a7A","-1","-1","1","0","[]","0","1","","","1011","10","0","4","lose","no-go","0","0"
"pit-trial","78","813165","0.0-14.0","battery-v0.2","","""event"",""trial"",""time""
""fullscreenenter"",""1"",""5643""
","
","
","""event"",""trial"",""time""
""fullscreenenter"",""1"",""5643""
","
","","","793.9000000059605","","","25","1011","374","&#9733;","elianto","#3366ff99","-1"," ","0","0","[1645]","1","1","","","1011","11","2","2","win","no-go","0","0"
"pit-trial","79","816850","0.0-15.0","battery-v0.2","","""event"",""trial"",""time""
""fullscreenenter"",""1"",""5643""
","
","
","""event"",""trial"",""time""
""fullscreenenter"",""1"",""5643""
","
","","","816","","","25","1011","374","&#9730;","elianto","#3366ff99"," "," ","1","0","[1666.7999999821186]","1","1","","","1011","12","1","1","win","go","1","0"
"pit-trial","80","820775","0.0-16.0","battery-v0.2","","""event"",""trial"",""time""
""fullscreenenter"",""1"",""5643""
","
","
","""event"",""trial"",""time""
""fullscreenenter"",""1"",""5643""
","
","","","1070.0999999940395","","","25","1011","374","&#9733;","elianto","#3366ff99","-1"," ","0","0","[1920.5]","1","1","","","1011","13","2","2","win","no-go","0","0"
"pit-trial","81","825629","0.0-17.0","battery-v0.2","","""event"",""trial"",""time""
""fullscreenenter"",""1"",""5643""
","
","
","""event"",""trial"",""time""
""fullscreenenter"",""1"",""5643""
","
","","","-1","","","25","1011","374","&#9752;","elianto","#f73b6a7A"," ","-1","0","-10","[]","0","1","","","1011","14","3","3","lose","go","0","0"
"pit-trial","82","830483","0.0-18.0","battery-v0.2","","""event"",""trial"",""time""
""fullscreenenter"",""1"",""5643""
","
","
","""event"",""trial"",""time""
""fullscreenenter"",""1"",""5643""
","
","","","-1","","","25","1011","374","&#9728;","elianto","#f73b6a7A","-1","-1","1","0","[]","0","1","","","1011","15","0","4","lose","no-go","0","0"
"pit-trial","83","834417","0.0-19.0","battery-v0.2","","""event"",""trial"",""time""
""fullscreenenter"",""1"",""5643""
","
","
","""event"",""trial"",""time""
""fullscreenenter"",""1"",""5643""
","
","","","1079.7000000178814","","","25","1011","374","&#9730;","elianto","#3366ff99"," "," ","1","+10","[1930.5999999940395]","1","1","","","1011","16","1","1","win","go","0","0"
"pit-trial","84","838457","0.0-20.0","battery-v0.2","","""event"",""trial"",""time""
""fullscreenenter"",""1"",""5643""
","
","
","""event"",""trial"",""time""
""fullscreenenter"",""1"",""5643""
","
","","","1186.300000011921","","","25","1011","374","&#9752;","elianto","#f73b6a7A"," "," ","1","0","[2036.4000000059605]","1","1","","","1011","17","3","3","lose","go","0","0"
"pit-trial","85","841923","0.0-21.0","battery-v0.2","","""event"",""trial"",""time""
""fullscreenenter"",""1"",""5643""
","
","
","""event"",""trial"",""time""
""fullscreenenter"",""1"",""5643""
","
","","","610.6999999880791","","","25","1011","374","&#9730;","elianto","#3366ff99"," "," ","1","+10","[1462.2999999821186]","1","1","","","1011","18","1","1","win","go","0","0"
"pit-trial","86","846777","0.0-22.0","battery-v0.2","","""event"",""trial"",""time""
""fullscreenenter"",""1"",""5643""
","
","
","""event"",""trial"",""time""
""fullscreenenter"",""1"",""5643""
","
","","","-1","","","25","1011","374","&#9733;","elianto","#3366ff99","-1","-1","1","+10","[]","0","1","","","1011","19","2","2","win","no-go","0","0"
"pit-trial","87","851630","0.0-23.0","battery-v0.2","","""event"",""trial"",""time""
""fullscreenenter"",""1"",""5643""
","
","
","""event"",""trial"",""time""
""fullscreenenter"",""1"",""5643""
","
","","","-1","","","25","1011","374","&#9728;","elianto","#f73b6a7A","-1","-1","1","0","[]","0","1","","","1011","20","0","4","lose","no-go","0","0"
"pit-instructions","88","865947","0.0-24.0","battery-v0.2","","""event"",""trial"",""time""
""fullscreenenter"",""1"",""5643""
","
","
","""event"",""trial"",""time""
""fullscreenenter"",""1"",""5643""
","
","","[{""page_index"":0,""viewing_time"":6968.300000011921},{""page_index"":1,""viewing_time"":7345.299999982119}]","14314.300000011921","","","","","","","","","","","","","","","","","","","","","","","","",""
"pit-trial","89","869627","0.0-25.0","battery-v0.2","","""event"",""trial"",""time""
""fullscreenenter"",""1"",""5643""
","
","
","""event"",""trial"",""time""
""fullscreenenter"",""1"",""5643""
","
","","","802.6999999880791","","","25","1011","374","f","elianto","#f73b6a7A","-1"," ","0","-10","[1659.7999999821186]","1","2","","","1011","21","2","4","lose","no-go","0","0"
"pit-trial","90","873245","0.0-26.0","battery-v0.2","","""event"",""trial"",""time""
""fullscreenenter"",""1"",""5643""
","
","
","""event"",""trial"",""time""
""fullscreenenter"",""1"",""5643""
","
","","","755.0999999940395","","","25","1011","374","q","elianto","#3366ff99","-1"," ","0","0","[1605.4000000059605]","1","2","","","1011","22","0","2","win","no-go","0","0"
"pit-trial","91","877312","0.0-27.0","battery-v0.2","","""event"",""trial"",""time""
""fullscreenenter"",""1"",""5643""
","
","
","""event"",""trial"",""time""
""fullscreenenter"",""1"",""5643""
","
","","","1208.2000000178814","","","25","1011","374","x","elianto","#3366ff99"," "," ","1","0","[2059.899999976158]","1","2","","","1011","23","3","1","win","go","1","0"
"pit-trial","92","881177","0.0-28.0","battery-v0.2","","""event"",""trial"",""time""
""fullscreenenter"",""1"",""5643""
","
","
","""event"",""trial"",""time""
""fullscreenenter"",""1"",""5643""
","
","","","1007.9000000059605","","","25","1011","374","n","elianto","#f73b6a7A"," "," ","1","0","[1859.199999988079]","1","2","","","1011","24","1","3","lose","go","0","0"
"pit-trial","93","885005","0.0-29.0","battery-v0.2","","""event"",""trial"",""time""
""fullscreenenter"",""1"",""5643""
","
","
","""event"",""trial"",""time""
""fullscreenenter"",""1"",""5643""
","
","","","960.5999999940395","","","25","1011","374","n","elianto","#f73b6a7A"," "," ","1","0","[1810.9000000059605]","1","2","","","1011","25","1","3","lose","go","0","0"
"pit-trial","94","889885","0.0-30.0","battery-v0.2","","""event"",""trial"",""time""
""fullscreenenter"",""1"",""5643""
","
","
","""event"",""trial"",""time""
""fullscreenenter"",""1"",""5643""
","
","","","-1","","","25","1011","374","x","elianto","#3366ff99"," ","-1","0","0","[]","0","2","","","1011","26","3","1","win","go","0","0"
"pit-trial","95","894765","0.0-31.0","battery-v0.2","","""event"",""trial"",""time""
""fullscreenenter"",""1"",""5643""
","
","
","""event"",""trial"",""time""
""fullscreenenter"",""1"",""5643""
","
","","","-1","","","25","1011","374","f","elianto","#f73b6a7A","-1","-1","1","0","[]","0","2","","","1011","27","2","4","lose","no-go","0","0"
"pit-trial","96","899620","0.0-32.0","battery-v0.2","","""event"",""trial"",""time""
""fullscreenenter"",""1"",""5643""
","
","
","""event"",""trial"",""time""
""fullscreenenter"",""1"",""5643""
","
","","","-1","","","25","1011","374","q","elianto","#3366ff99","-1","-1","1","+10","[]","0","2","","","1011","28","0","2","win","no-go","0","0"
"pit-trial","97","904475","0.0-33.0","battery-v0.2","","""event"",""trial"",""time""
""fullscreenenter"",""1"",""5643""
","
","
","""event"",""trial"",""time""
""fullscreenenter"",""1"",""5643""
","
","","","-1","","","25","1011","374","q","elianto","#3366ff99","-1","-1","1","+10","[]","0","2","","","1011","29","0","2","win","no-go","0","0"
"pit-trial","98","909330","0.0-34.0","battery-v0.2","","""event"",""trial"",""time""
""fullscreenenter"",""1"",""5643""
","
","
","""event"",""trial"",""time""
""fullscreenenter"",""1"",""5643""
","
","","","-1","","","25","1011","374","n","elianto","#f73b6a7A"," ","-1","0","-10","[]","0","2","","","1011","30","1","3","lose","go","0","0"
"pit-trial","99","913206","0.0-35.0","battery-v0.2","","""event"",""trial"",""time""
""fullscreenenter"",""1"",""5643""
","
","
","""event"",""trial"",""time""
""fullscreenenter"",""1"",""5643""
","
","","","1017.8000000119209","","","25","1011","374","x","elianto","#3366ff99"," "," ","1","+10","[1871]","1","2","","","1011","31","3","1","win","go","0","0"
"pit-trial","100","918060","0.0-36.0","battery-v0.2","","""event"",""trial"",""time""
""fullscreenenter"",""1"",""5643""
","
","
","""event"",""trial"",""time""
""fullscreenenter"",""1"",""5643""
","
","","","-1","","","25","1011","374","f","elianto","#f73b6a7A","-1","-1","1","0","[]","0","2","","","1011","32","2","4","lose","no-go","0","0"
"pit-trial","101","921872","0.0-37.0","battery-v0.2","","""event"",""trial"",""time""
""fullscreenenter"",""1"",""5643""
","
","
","""event"",""trial"",""time""
""fullscreenenter"",""1"",""5643""
","
","","","957.7000000178814","","","25","1011","374","x","elianto","#3366ff99"," "," ","1","0","[1808]","1","2","","","1011","33","3","1","win","go","1","0"
"pit-trial","102","926725","0.0-38.0","battery-v0.2","","""event"",""trial"",""time""
""fullscreenenter"",""1"",""5643""
","
","
","""event"",""trial"",""time""
""fullscreenenter"",""1"",""5643""
","
","","","-1","","","25","1011","374","f","elianto","#f73b6a7A","-1","-1","1","0","[]","0","2","","","1011","34","2","4","lose","no-go","0","0"
"pit-trial","103","931579","0.0-39.0","battery-v0.2","","""event"",""trial"",""time""
""fullscreenenter"",""1"",""5643""
","
","
","""event"",""trial"",""time""
""fullscreenenter"",""1"",""5643""
","
","","","-1","","","25","1011","374","q","elianto","#3366ff99","-1","-1","1","+10","[]","0","2","","","1011","35","0","2","win","no-go","0","0"
"pit-trial","104","936105","0.0-40.0","battery-v0.2","","""event"",""trial"",""time""
""fullscreenenter"",""1"",""5643""
","
","
","""event"",""trial"",""time""
""fullscreenenter"",""1"",""5643""
","
","","","1671.0999999940395","","","25","1011","374","n","elianto","#f73b6a7A"," "," ","1","0","[2522.300000011921]","1","2","","","1011","36","1","3","lose","go","0","0"
"pit-trial","105","940960","0.0-41.0","battery-v0.2","","""event"",""trial"",""time""
""fullscreenenter"",""1"",""5643""
","
","
","""event"",""trial"",""time""
""fullscreenenter"",""1"",""5643""
","
","","","-1","","","25","1011","374","x","elianto","#3366ff99"," ","-1","0","+10","[]","0","2","","","1011","37","3","1","win","go","1","0"
"pit-trial","106","945814","0.0-42.0","battery-v0.2","","""event"",""trial"",""time""
""fullscreenenter"",""1"",""5643""
","
","
","""event"",""trial"",""time""
""fullscreenenter"",""1"",""5643""
","
","","","-1","","","25","1011","374","f","elianto","#f73b6a7A","-1","-1","1","0","[]","0","2","","","1011","38","2","4","lose","no-go","0","0"
"pit-trial","107","949782","0.0-43.0","battery-v0.2","","""event"",""trial"",""time""
""fullscreenenter"",""1"",""5643""
","
","
","""event"",""trial"",""time""
""fullscreenenter"",""1"",""5643""
","
","","","1113.699999988079","","","25","1011","374","q","elianto","#3366ff99","-1"," ","0","0","[1965.5]","1","2","","","1011","39","0","2","win","no-go","0","0"
"pit-trial","108","954637","0.0-44.0","battery-v0.2","","""event"",""trial"",""time""
""fullscreenenter"",""1"",""5643""
","
","
","""event"",""trial"",""time""
""fullscreenenter"",""1"",""5643""
","
","","","-1","","","25","1011","374","n","elianto","#f73b6a7A"," ","-1","0","-10","[]","0","2","","","1011","40","1","3","lose","go","0","0"
"pit-trial","109","959497","0.0-45.0","battery-v0.2","","""event"",""trial"",""time""
""fullscreenenter"",""1"",""5643""
","
","
","""event"",""trial"",""time""
""fullscreenenter"",""1"",""5643""
","
","","","-1","","","25","1011","374","x","elianto","#3366ff99"," ","-1","0","0","[]","0","2","","","1011","41","3","1","win","go","0","0"
"pit-trial","110","963797","0.0-46.0","battery-v0.2","","""event"",""trial"",""time""
""fullscreenenter"",""1"",""5643""
","
","
","""event"",""trial"",""time""
""fullscreenenter"",""1"",""5643""
","
","","","1446","","","25","1011","374","q","elianto","#3366ff99","-1"," ","0","0","[2296.800000011921]","1","2","","","1011","42","0","2","win","no-go","0","0"
"pit-trial","111","968069","0.0-47.0","battery-v0.2","","""event"",""trial"",""time""
""fullscreenenter"",""1"",""5643""
","
","
","""event"",""trial"",""time""
""fullscreenenter"",""1"",""5643""
","
","","","1417.5","","","25","1011","374","n","elianto","#f73b6a7A"," "," ","1","0","[2267.699999988079]","1","2","","","1011","43","1","3","lose","go","0","0"
"pit-trial","112","972926","0.0-48.0","battery-v0.2","","""event"",""trial"",""time""
""fullscreenenter"",""1"",""5643""
","
","
","""event"",""trial"",""time""
""fullscreenenter"",""1"",""5643""
","
","","","-1","","","25","1011","374","f","elianto","#f73b6a7A","-1","-1","1","0","[]","0","2","","","1011","44","2","4","lose","no-go","0","0"
"pit-trial","113","977102","0.0-49.0","battery-v0.2","","""event"",""trial"",""time""
""fullscreenenter"",""1"",""5643""
","
","
","""event"",""trial"",""time""
""fullscreenenter"",""1"",""5643""
","
","","","1320.800000011921","","","25","1011","374","q","elianto","#3366ff99","-1"," ","0","0","[2171.600000023842]","1","2","","","1011","45","0","2","win","no-go","0","0"
"pit-trial","114","980742","0.0-50.0","battery-v0.2","","""event"",""trial"",""time""
""fullscreenenter"",""1"",""5643""
","
","
","""event"",""trial"",""time""
""fullscreenenter"",""1"",""5643""
","
","","","787.1000000238419","","","25","1011","374","x","elianto","#3366ff99"," "," ","1","+10","[1637.5]","1","2","","","1011","46","3","1","win","go","0","0"
"pit-trial","115","985596","0.0-51.0","battery-v0.2","","""event"",""trial"",""time""
""fullscreenenter"",""1"",""5643""
","
","
","""event"",""trial"",""time""
""fullscreenenter"",""1"",""5643""
","
","","","-1","","","25","1011","374","f","elianto","#f73b6a7A","-1","-1","1","0","[]","0","2","","","1011","47","2","4","lose","no-go","0","0"
"pit-trial","116","989785","0.0-52.0","battery-v0.2","","""event"",""trial"",""time""
""fullscreenenter"",""1"",""5643""
","
","
","""event"",""trial"",""time""
""fullscreenenter"",""1"",""5643""
","
","","","1334.5999999940395","","","25","1011","374","n","elianto","#f73b6a7A"," "," ","1","0","[2185.5999999940395]","1","2","","","1011","48","1","3","lose","go","0","0"
"pit-trial","117","994084","0.0-53.0","battery-v0.2","","""event"",""trial"",""time""
""fullscreenenter"",""1"",""5643""
","
","
","""event"",""trial"",""time""
""fullscreenenter"",""1"",""5643""
","
","","","1445.9000000059605","","","25","1011","374","x","elianto","#3366ff99"," "," ","1","+10","[2296.9000000059605]","1","2","","","1011","49","3","1","win","go","0","0"
"pit-trial","118","998562","0.0-54.0","battery-v0.2","","""event"",""trial"",""time""
""fullscreenenter"",""1"",""5643""
","
","
","""event"",""trial"",""time""
""fullscreenenter"",""1"",""5643""
","
","","","1622.7000000178814","","","25","1011","374","n","elianto","#f73b6a7A"," "," ","1","0","[2473.800000011921]","1","2","","","1011","50","1","3","lose","go","0","0"
"pit-trial","119","1003417","0.0-55.0","battery-v0.2","","""event"",""trial"",""time""
""fullscreenenter"",""1"",""5643""
","
","
","""event"",""trial"",""time""
""fullscreenenter"",""1"",""5643""
","
","","","-1","","","25","1011","374","f","elianto","#f73b6a7A","-1","-1","1","0","[]","0","2","","","1011","51","2","4","lose","no-go","0","0"
"pit-trial","120","1007699","0.0-56.0","battery-v0.2","","""event"",""trial"",""time""
""fullscreenenter"",""1"",""5643""
","
","
","""event"",""trial"",""time""
""fullscreenenter"",""1"",""5643""
","
","","","1426.5","","","25","1011","374","q","elianto","#3366ff99","-1"," ","0","0","[2277.7000000178814]","1","2","","","1011","52","0","2","win","no-go","0","0"
"pit-trial","121","1012198","0.0-57.0","battery-v0.2","","""event"",""trial"",""time""
""fullscreenenter"",""1"",""5643""
","
","
","""event"",""trial"",""time""
""fullscreenenter"",""1"",""5643""
","
","","","1644.7000000178814","","","25","1011","374","t","elianto","#f73b6a7A"," "," ","1","0","[2495.300000011921]","1","2","","","1011","53","4","3","lose","go","0","0"
"pit-trial","122","1017054","0.0-58.0","battery-v0.2","","""event"",""trial"",""time""
""fullscreenenter"",""1"",""5643""
","
","
","""event"",""trial"",""time""
""fullscreenenter"",""1"",""5643""
","
","","","-1","","","25","1011","374","n","elianto","#f73b6a7A"," ","-1","0","0","[2924.2000000178814]","1","2","","","1011","54","1","3","lose","go","1","0"
"pit-trial","123","1021909","0.0-59.0","battery-v0.2","","""event"",""trial"",""time""
""fullscreenenter"",""1"",""5643""
","
","
","""event"",""trial"",""time""
""fullscreenenter"",""1"",""5643""
","
","","","-1","","","25","1011","374","f","elianto","#f73b6a7A","-1","-1","1","0","[]","0","2","","","1011","55","2","4","lose","no-go","0","0"
"pit-trial","124","1026009","0.0-60.0","battery-v0.2","","""event"",""trial"",""time""
""fullscreenenter"",""1"",""5643""
","
","
","""event"",""trial"",""time""
""fullscreenenter"",""1"",""5643""
","
","","","1246.1000000238419","","","25","1011","374","b","elianto","#f73b6a7A","-1"," ","0","-10","[2096.2999999821186]","1","2","","","1011","56","5","4","lose","no-go","0","0"
"pit-trial","125","1030864","0.0-61.0","battery-v0.2","","""event"",""trial"",""time""
""fullscreenenter"",""1"",""5643""
","
","
","""event"",""trial"",""time""
""fullscreenenter"",""1"",""5643""
","
","","","-1","","","25","1011","374","f","elianto","#f73b6a7A","-1","-1","1","0","[]","0","2","","","1011","57","2","4","lose","no-go","0","0"
"pit-trial","126","1035037","0.0-62.0","battery-v0.2","","""event"",""trial"",""time""
""fullscreenenter"",""1"",""5643""
","
","
","""event"",""trial"",""time""
""fullscreenenter"",""1"",""5643""
","
","","","1316.2999999821186","","","25","1011","374","t","elianto","#f73b6a7A"," "," ","1","0","[2169.2999999821186]","1","2","","","1011","58","4","3","lose","go","0","0"
"pit-trial","127","1039898","0.0-63.0","battery-v0.2","","""event"",""trial"",""time""
""fullscreenenter"",""1"",""5643""
","
","
","""event"",""trial"",""time""
""fullscreenenter"",""1"",""5643""
","
","","","-1","","","25","1011","374","b","elianto","#f73b6a7A","-1","-1","1","-10","[]","0","2","","","1011","59","5","4","lose","no-go","1","0"
"pit-trial","128","1043863","0.0-64.0","battery-v0.2","","""event"",""trial"",""time""
""fullscreenenter"",""1"",""5643""
","
","
","""event"",""trial"",""time""
""fullscreenenter"",""1"",""5643""
","
","","","1108.9000000059605","","","25","1011","374","n","elianto","#f73b6a7A"," "," ","1","0","[1960.5]","1","2","","","1011","60","1","3","lose","go","0","0"
"pit-trial","129","1047465","0.0-65.0","battery-v0.2","","""event"",""trial"",""time""
""fullscreenenter"",""1"",""5643""
","
","
","""event"",""trial"",""time""
""fullscreenenter"",""1"",""5643""
","
","","","747.6999999880791","","","25","1011","374","b","elianto","#f73b6a7A","-1"," ","0","-10","[1598]","1","2","","","1011","61","5","4","lose","no-go","0","0"
"pit-trial","130","1051662","0.0-66.0","battery-v0.2","","""event"",""trial"",""time""
""fullscreenenter"",""1"",""5643""
","
","
","""event"",""trial"",""time""
""fullscreenenter"",""1"",""5643""
","
","","","1343.300000011921","","","25","1011","374","c","elianto","#3366ff99","-1"," ","0","0","[2193.300000011921]","1","2","","","1011","62","6","2","win","no-go","0","0"
"pit-trial","131","1056518","0.0-67.0","battery-v0.2","","""event"",""trial"",""time""
""fullscreenenter"",""1"",""5643""
","
","
","""event"",""trial"",""time""
""fullscreenenter"",""1"",""5643""
","
","","","-1","","","25","1011","374","f","elianto","#f73b6a7A","-1","-1","1","0","[]","0","2","","","1011","63","2","4","lose","no-go","0","0"
"pit-trial","132","1060630","0.0-68.0","battery-v0.2","","""event"",""trial"",""time""
""fullscreenenter"",""1"",""5643""
","
","
","""event"",""trial"",""time""
""fullscreenenter"",""1"",""5643""
","
","","","1257.9000000059605","","","25","1011","374","t","elianto","#f73b6a7A"," "," ","1","0","[2108.5]","1","2","","","1011","64","4","3","lose","go","0","0"
"pit-trial","133","1064783","0.0-69.0","battery-v0.2","","""event"",""trial"",""time""
""fullscreenenter"",""1"",""5643""
","
","
","""event"",""trial"",""time""
""fullscreenenter"",""1"",""5643""
","
","","","1298.4000000059605","","","25","1011","374","b","elianto","#f73b6a7A","-1"," ","0","-10","[2150.0999999940395]","1","2","","","1011","65","5","4","lose","no-go","0","0"
"pit-trial","134","1069638","0.0-70.0","battery-v0.2","","""event"",""trial"",""time""
""fullscreenenter"",""1"",""5643""
","
","
","""event"",""trial"",""time""
""fullscreenenter"",""1"",""5643""
","
","","","-1","","","25","1011","374","f","elianto","#f73b6a7A","-1","-1","1","0","[]","0","2","","","1011","66","2","4","lose","no-go","0","0"
"pit-trial","135","1073680","0.0-71.0","battery-v0.2","","""event"",""trial"",""time""
""fullscreenenter"",""1"",""5643""
","
","
","""event"",""trial"",""time""
""fullscreenenter"",""1"",""5643""
","
","","","1189.300000011921","","","25","1011","374","t","elianto","#f73b6a7A"," "," ","1","0","[2040.2000000178814]","1","2","","","1011","67","4","3","lose","go","0","0"
"pit-trial","136","1077808","0.0-72.0","battery-v0.2","","""event"",""trial"",""time""
""fullscreenenter"",""1"",""5643""
","
","
","""event"",""trial"",""time""
""fullscreenenter"",""1"",""5643""
","
","","","1272.699999988079","","","25","1011","374","c","elianto","#3366ff99","-1"," ","0","0","[2124.7000000178814]","1","2","","","1011","68","6","2","win","no-go","0","0"
"pit-trial","137","1082662","0.0-73.0","battery-v0.2","","""event"",""trial"",""time""
""fullscreenenter"",""1"",""5643""
","
","
","""event"",""trial"",""time""
""fullscreenenter"",""1"",""5643""
","
","","","-1","","","25","1011","374","z","elianto","#3366ff99"," ","-1","0","0","[]","0","2","","","1011","69","7","1","win","go","0","0"
"pit-trial","138","1087516","0.0-74.0","battery-v0.2","","""event"",""trial"",""time""
""fullscreenenter"",""1"",""5643""
","
","
","""event"",""trial"",""time""
""fullscreenenter"",""1"",""5643""
","
","","","-1","","","25","1011","374","b","elianto","#f73b6a7A","-1","-1","1","-10","[]","0","2","","","1011","70","5","4","lose","no-go","1","0"
"pit-trial","139","1091783","0.0-75.0","battery-v0.2","","""event"",""trial"",""time""
""fullscreenenter"",""1"",""5643""
","
","
","""event"",""trial"",""time""
""fullscreenenter"",""1"",""5643""
","
","","","1413.6000000238419","","","25","1011","374","t","elianto","#f73b6a7A"," "," ","1","-10","[2263.9000000059605]","1","2","","","1011","71","4","3","lose","go","1","0"
"pit-trial","140","1096638","0.0-76.0","battery-v0.2","","""event"",""trial"",""time""
""fullscreenenter"",""1"",""5643""
","
","
","""event"",""trial"",""time""
""fullscreenenter"",""1"",""5643""
","
","","","-1","","","25","1011","374","c","elianto","#3366ff99","-1","-1","1","0","[]","0","2","","","1011","72","6","2","win","no-go","1","0"
"pit-trial","141","1100769","0.0-77.0","battery-v0.2","","""event"",""trial"",""time""
""fullscreenenter"",""1"",""5643""
","
","
","""event"",""trial"",""time""
""fullscreenenter"",""1"",""5643""
","
","","","1276.800000011921","","","25","1011","374","t","elianto","#f73b6a7A"," "," ","1","0","[2127.5]","1","2","","","1011","73","4","3","lose","go","0","0"
"pit-trial","142","1104267","0.0-78.0","battery-v0.2","","""event"",""trial"",""time""
""fullscreenenter"",""1"",""5643""
","
","
","""event"",""trial"",""time""
""fullscreenenter"",""1"",""5643""
","
","","","645.6000000238419","","","25","1011","374","c","elianto","#3366ff99","-1"," ","0","0","[1495.9000000059605]","1","2","","","1011","74","6","2","win","no-go","0","0"
"pit-trial","143","1108395","0.0-79.0","battery-v0.2","","""event"",""trial"",""time""
""fullscreenenter"",""1"",""5643""
","
","
","""event"",""trial"",""time""
""fullscreenenter"",""1"",""5643""
","
","","","1273.5","","","25","1011","374","b","elianto","#f73b6a7A","-1"," ","0","-10","[2123.800000011921]","1","2","","","1011","75","5","4","lose","no-go","0","0"
"pit-trial","144","1112807","0.0-80.0","battery-v0.2","","""event"",""trial"",""time""
""fullscreenenter"",""1"",""5643""
","
","
","""event"",""trial"",""time""
""fullscreenenter"",""1"",""5643""
","
","","","1557.2999999821186","","","25","1011","374","z","elianto","#3366ff99"," "," ","1","+10","[2408]","1","2","","","1011","76","7","1","win","go","0","0"
"pit-trial","145","1116749","0.0-81.0","battery-v0.2","","""event"",""trial"",""time""
""fullscreenenter"",""1"",""5643""
","
","
","""event"",""trial"",""time""
""fullscreenenter"",""1"",""5643""
","
","","","1080","","","25","1011","374","t","elianto","#f73b6a7A"," "," ","1","0","[1930.199999988079]","1","2","","","1011","77","4","3","lose","go","0","0"
"pit-trial","146","1121601","0.0-82.0","battery-v0.2","","""event"",""trial"",""time""
""fullscreenenter"",""1"",""5643""
","
","
","""event"",""trial"",""time""
""fullscreenenter"",""1"",""5643""
","
","","","-1","","","25","1011","374","c","elianto","#3366ff99","-1","-1","1","+10","[2853.5999999940395]","1","2","","","1011","78","6","2","win","no-go","0","0"
"pit-trial","147","1125559","0.0-83.0","battery-v0.2","","""event"",""trial"",""time""
""fullscreenenter"",""1"",""5643""
","
","
","""event"",""trial"",""time""
""fullscreenenter"",""1"",""5643""
","
","","","1100.2000000178814","","","25","1011","374","z","elianto","#3366ff99"," "," ","1","+10","[1954.2000000178814]","1","2","","","1011","79","7","1","win","go","0","0"
"pit-trial","148","1130414","0.0-84.0","battery-v0.2","","""event"",""trial"",""time""
""fullscreenenter"",""1"",""5643""
","
","
","""event"",""trial"",""time""
""fullscreenenter"",""1"",""5643""
","
","","","-1","","","25","1011","374","b","elianto","#f73b6a7A","-1","-1","1","-10","[]","0","2","","","1011","80","5","4","lose","no-go","1","0"
"pit-trial","149","1134398","0.0-85.0","battery-v0.2","","""event"",""trial"",""time""
""fullscreenenter"",""1"",""5643""
","
","
","""event"",""trial"",""time""
""fullscreenenter"",""1"",""5643""
","
","","","1130.5","","","25","1011","374","z","elianto","#3366ff99"," "," ","1","+10","[1980.9000000059605]","1","2","","","1011","81","7","1","win","go","0","0"
"pit-trial","150","1138454","0.0-86.0","battery-v0.2","","""event"",""trial"",""time""
""fullscreenenter"",""1"",""5643""
","
","
","""event"",""trial"",""time""
""fullscreenenter"",""1"",""5643""
","
","","","1201.5","","","25","1011","374","b","elianto","#f73b6a7A","-1"," ","0","-10","[2051.699999988079]","1","2","","","1011","82","5","4","lose","no-go","0","0"
"pit-trial","151","1142049","0.0-87.0","battery-v0.2","","""event"",""trial"",""time""
""fullscreenenter"",""1"",""5643""
","
","
","""event"",""trial"",""time""
""fullscreenenter"",""1"",""5643""
","
","","","741.0999999940395","","","25","1011","374","c","elianto","#3366ff99","-1"," ","0","0","[1591.300000011921]","1","2","","","1011","83","6","2","win","no-go","0","0"
"pit-trial","152","1145886","0.0-88.0","battery-v0.2","","""event"",""trial"",""time""
""fullscreenenter"",""1"",""5643""
","
","
","""event"",""trial"",""time""
""fullscreenenter"",""1"",""5643""
","
","","","979","","","25","1011","374","t","elianto","#f73b6a7A"," "," ","1","0","[1833.199999988079]","1","2","","","1011","84","4","3","lose","go","0","0"
"pit-trial","153","1149546","0.0-89.0","battery-v0.2","","""event"",""trial"",""time""
""fullscreenenter"",""1"",""5643""
","
","
","""event"",""trial"",""time""
""fullscreenenter"",""1"",""5643""
","
","","","805.8000000119209","","","25","1011","374","t","elianto","#f73b6a7A"," "," ","1","0","[1655.9000000059605]","1","2","","","1011","85","4","3","lose","go","0","0"
"pit-trial","154","1153147","0.0-90.0","battery-v0.2","","""event"",""trial"",""time""
""fullscreenenter"",""1"",""5643""
","
","
","""event"",""trial"",""time""
""fullscreenenter"",""1"",""5643""
","
","","","746.6999999880791","","","25","1011","374","c","elianto","#3366ff99","-1"," ","0","0","[1598]","1","2","","","1011","86","6","2","win","no-go","0","0"
"pit-trial","155","1158003","0.0-91.0","battery-v0.2","","""event"",""trial"",""time""
""fullscreenenter"",""1"",""5643""
","
","
","""event"",""trial"",""time""
""fullscreenenter"",""1"",""5643""
","
","","","-1","","","25","1011","374","b","elianto","#f73b6a7A","-1","-1","1","0","[]","0","2","","","1011","87","5","4","lose","no-go","0","0"
"pit-trial","156","1162438","0.0-92.0","battery-v0.2","","""event"",""trial"",""time""
""fullscreenenter"",""1"",""5643""
","
","
","""event"",""trial"",""time""
""fullscreenenter"",""1"",""5643""
","
","","","1580.300000011921","","","25","1011","374","z","elianto","#3366ff99"," "," ","1","+10","[2431.5999999940395]","1","2","","","1011","88","7","1","win","go","0","0"
"pit-trial","157","1166975","0.0-93.0","battery-v0.2","","""event"",""trial"",""time""
""fullscreenenter"",""1"",""5643""
","
","
","""event"",""trial"",""time""
""fullscreenenter"",""1"",""5643""
","
","","","1682","","","25","1011","374","c","elianto","#3366ff99","-1"," ","0","+10","[2532.2000000178814]","1","2","","","1011","89","6","2","win","no-go","1","0"
"pit-trial","158","1171830","0.0-94.0","battery-v0.2","","""event"",""trial"",""time""
""fullscreenenter"",""1"",""5643""
","
","
","""event"",""trial"",""time""
""fullscreenenter"",""1"",""5643""
","
","","","-1","","","25","1011","374","b","elianto","#f73b6a7A","-1","-1","1","0","[]","0","2","","","1011","90","5","4","lose","no-go","0","0"
"pit-trial","159","1175378","0.0-95.0","battery-v0.2","","""event"",""trial"",""time""
""fullscreenenter"",""1"",""5643""
","
","
","""event"",""trial"",""time""
""fullscreenenter"",""1"",""5643""
","
","","","693.9000000059605","","","25","1011","374","z","elianto","#3366ff99"," "," ","1","+10","[1544.5999999940395]","1","2","","","1011","91","7","1","win","go","0","0"
"pit-trial","160","1178953","0.0-96.0","battery-v0.2","","""event"",""trial"",""time""
""fullscreenenter"",""1"",""5643""
","
","
","""event"",""trial"",""time""
""fullscreenenter"",""1"",""5643""
","
","","","720.9000000059605","","","25","1011","374","t","elianto","#f73b6a7A"," "," ","1","0","[1571.8999999761581]","1","2","","","1011","92","4","3","lose","go","0","0"
"pit-trial","161","1182519","0.0-97.0","battery-v0.2","","""event"",""trial"",""time""
""fullscreenenter"",""1"",""5643""
","
","
","""event"",""trial"",""time""
""fullscreenenter"",""1"",""5643""
","
","","","707.9000000059605","","","25","1011","374","z","elianto","#3366ff99"," "," ","1","+10","[1559.7000000178814]","1","2","","","1011","93","7","1","win","go","0","0"
"pit-trial","162","1185927","0.0-98.0","battery-v0.2","","""event"",""trial"",""time""
""fullscreenenter"",""1"",""5643""
","
","
","""event"",""trial"",""time""
""fullscreenenter"",""1"",""5643""
","
","","","555.1999999880791","","","25","1011","374","c","elianto","#3366ff99","-1"," ","0","0","[1406.4000000059605]","1","2","","","1011","94","6","2","win","no-go","0","0"
"pit-trial","163","1190128","0.0-99.0","battery-v0.2","","""event"",""trial"",""time""
""fullscreenenter"",""1"",""5643""
","
","
","""event"",""trial"",""time""
""fullscreenenter"",""1"",""5643""
","
","","","1348.2999999821186","","","25","1011","374","h","elianto","#3366ff99"," "," ","1","+10","[2199.0999999940395]","1","2","","","1011","95","8","1","win","go","0","0"
"pit-trial","164","1193637","0.0-100.0","battery-v0.2","","""event"",""trial"",""time""
""fullscreenenter"",""1"",""5643""
","
","
","""event"",""trial"",""time""
""fullscreenenter"",""1"",""5643""
","
","","","656","","","25","1011","374","t","elianto","#f73b6a7A"," "," ","1","-10","[1506.7999999821186]","1","2","","","1011","96","4","3","lose","go","1","0"
"pit-trial","165","1197286","0.0-101.0","battery-v0.2","","""event"",""trial"",""time""
""fullscreenenter"",""1"",""5643""
","
","
","""event"",""trial"",""time""
""fullscreenenter"",""1"",""5643""
","
","","","794.0999999940395","","","25","1011","374","c","elianto","#3366ff99","-1"," ","0","0","[1646.4000000059605]","1","2","","","1011","97","6","2","win","no-go","0","0"
"pit-trial","166","1201008","0.0-102.0","battery-v0.2","","""event"",""trial"",""time""
""fullscreenenter"",""1"",""5643""
","
","
","""event"",""trial"",""time""
""fullscreenenter"",""1"",""5643""
","
","","","867.7999999821186","","","25","1011","374","h","elianto","#3366ff99"," "," ","1","+10","[1717.9000000059605]","1","2","","","1011","98","8","1","win","go","0","0"
"pit-trial","167","1204393","0.0-103.0","battery-v0.2","","""event"",""trial"",""time""
""fullscreenenter"",""1"",""5643""
","
","
","""event"",""trial"",""time""
""fullscreenenter"",""1"",""5643""
","
","","","530.5","","","25","1011","374","z","elianto","#3366ff99"," "," ","1","+10","[1382.0999999940395]","1","2","","","1011","99","7","1","win","go","0","0"
"pit-trial","168","1207960","0.0-104.0","battery-v0.2","","""event"",""trial"",""time""
""fullscreenenter"",""1"",""5643""
","
","
","""event"",""trial"",""time""
""fullscreenenter"",""1"",""5643""
","
","","","713.5999999940395","","","25","1011","374","t","elianto","#f73b6a7A"," "," ","1","-10","[1563.7999999821186]","1","2","","","1011","100","4","3","lose","go","1","0"
"pit-trial","169","1212310","0.0-105.0","battery-v0.2","","""event"",""trial"",""time""
""fullscreenenter"",""1"",""5643""
","
","
","""event"",""trial"",""time""
""fullscreenenter"",""1"",""5643""
","
","","","1495.800000011921","","","25","1011","374","y","elianto","#3366ff99","-1"," ","0","0","[2346.9000000059605]","1","2","","","1011","101","9","2","win","no-go","0","0"
"pit-trial","170","1216039","0.0-106.0","battery-v0.2","","""event"",""trial"",""time""
""fullscreenenter"",""1"",""5643""
","
","
","""event"",""trial"",""time""
""fullscreenenter"",""1"",""5643""
","
","","","873","","","25","1011","374","z","elianto","#3366ff99"," "," ","1","+10","[1724.9000000059605]","1","2","","","1011","102","7","1","win","go","0","0"
"pit-trial","171","1219622","0.0-107.0","battery-v0.2","","""event"",""trial"",""time""
""fullscreenenter"",""1"",""5643""
","
","
","""event"",""trial"",""time""
""fullscreenenter"",""1"",""5643""
","
","","","729","","","25","1011","374","c","elianto","#3366ff99","-1"," ","0","0","[1580.0999999940395]","1","2","","","1011","103","6","2","win","no-go","0","0"
"pit-trial","172","1223375","0.0-108.0","battery-v0.2","","""event"",""trial"",""time""
""fullscreenenter"",""1"",""5643""
","
","
","""event"",""trial"",""time""
""fullscreenenter"",""1"",""5643""
","
","","","898.5","","","25","1011","374","h","elianto","#3366ff99"," "," ","1","+10","[1748.7999999821186]","1","2","","","1011","104","8","1","win","go","0","0"
"pit-trial","173","1226959","0.0-109.0","battery-v0.2","","""event"",""trial"",""time""
""fullscreenenter"",""1"",""5643""
","
","
","""event"",""trial"",""time""
""fullscreenenter"",""1"",""5643""
","
","","","729.8000000119209","","","25","1011","374","z","elianto","#3366ff99"," "," ","1","0","[1581.2000000178814]","1","2","","","1011","105","7","1","win","go","1","0"
"pit-trial","174","1230498","0.0-110.0","battery-v0.2","","""event"",""trial"",""time""
""fullscreenenter"",""1"",""5643""
","
","
","""event"",""trial"",""time""
""fullscreenenter"",""1"",""5643""
","
","","","685.5999999940395","","","25","1011","374","c","elianto","#3366ff99","-1"," ","0","+10","[1535.5]","1","2","","","1011","106","6","2","win","no-go","1","0"
"pit-trial","175","1234353","0.0-111.0","battery-v0.2","","""event"",""trial"",""time""
""fullscreenenter"",""1"",""5643""
","
","
","""event"",""trial"",""time""
""fullscreenenter"",""1"",""5643""
","
","","","999.7999999821186","","","25","1011","374","h","elianto","#3366ff99"," "," ","1","+10","[1851.0999999940395]","1","2","","","1011","107","8","1","win","go","0","0"
"pit-trial","176","1239208","0.0-112.0","battery-v0.2","","""event"",""trial"",""time""
""fullscreenenter"",""1"",""5643""
","
","
","""event"",""trial"",""time""
""fullscreenenter"",""1"",""5643""
","
","","","-1","","","25","1011","374","y","elianto","#3366ff99","-1","-1","1","+10","[]","0","2","","","1011","108","9","2","win","no-go","0","0"
"pit-trial","177","1242857","0.0-113.0","battery-v0.2","","""event"",""trial"",""time""
""fullscreenenter"",""1"",""5643""
","
","
","""event"",""trial"",""time""
""fullscreenenter"",""1"",""5643""
","
","","","795.5","","","25","1011","374","h","elianto","#3366ff99"," "," ","1","0","[1645.9000000059605]","1","2","","","1011","109","8","1","win","go","1","0"
"pit-trial","178","1247189","0.0-114.0","battery-v0.2","","""event"",""trial"",""time""
""fullscreenenter"",""1"",""5643""
","
","
","""event"",""trial"",""time""
""fullscreenenter"",""1"",""5643""
","
","","","1476.7000000178814","","","25","1011","374","m","elianto","#f73b6a7A","-1"," ","0","-10","[2328]","1","2","","","1011","110","11","4","lose","no-go","0","0"
"pit-trial","179","1252045","0.0-115.0","battery-v0.2","","""event"",""trial"",""time""
""fullscreenenter"",""1"",""5643""
","
","
","""event"",""trial"",""time""
""fullscreenenter"",""1"",""5643""
","
","","","-1","","","25","1011","374","y","elianto","#3366ff99","-1","-1","1","0","[]","0","2","","","1011","111","9","2","win","no-go","1","0"
"pit-trial","180","1256900","0.0-116.0","battery-v0.2","","""event"",""trial"",""time""
""fullscreenenter"",""1"",""5643""
","
","
","""event"",""trial"",""time""
""fullscreenenter"",""1"",""5643""
","
","","","-1","","","25","1011","374","r","elianto","#f73b6a7A"," ","-1","0","-10","[]","0","2","","","1011","112","10","3","lose","go","0","0"
"pit-trial","181","1261766","0.0-117.0","battery-v0.2","","""event"",""trial"",""time""
""fullscreenenter"",""1"",""5643""
","
","
","""event"",""trial"",""time""
""fullscreenenter"",""1"",""5643""
","
","","","-1","","","25","1011","374","h","elianto","#3366ff99"," ","-1","0","0","[]","0","2","","","1011","113","8","1","win","go","0","0"
"pit-trial","182","1265988","0.0-118.0","battery-v0.2","","""event"",""trial"",""time""
""fullscreenenter"",""1"",""5643""
","
","
","""event"",""trial"",""time""
""fullscreenenter"",""1"",""5643""
","
","","","1368.7000000178814","","","25","1011","374","m","elianto","#f73b6a7A","-1"," ","0","0","[2218.5999999940395]","1","2","","","1011","114","11","4","lose","no-go","1","0"
"pit-trial","183","1270435","0.0-119.0","battery-v0.2","","""event"",""trial"",""time""
""fullscreenenter"",""1"",""5643""
","
","
","""event"",""trial"",""time""
""fullscreenenter"",""1"",""5643""
","
","","","1592.0999999940395","","","25","1011","374","r","elianto","#f73b6a7A"," "," ","1","0","[2443.300000011921]","1","2","","","1011","115","10","3","lose","go","0","0"
"pit-trial","184","1275289","0.0-120.0","battery-v0.2","","""event"",""trial"",""time""
""fullscreenenter"",""1"",""5643""
","
","
","""event"",""trial"",""time""
""fullscreenenter"",""1"",""5643""
","
","","","-1","","","25","1011","374","y","elianto","#3366ff99","-1","-1","1","+10","[]","0","2","","","1011","116","9","2","win","no-go","0","0"
"pit-trial","185","1279839","0.0-121.0","battery-v0.2","","""event"",""trial"",""time""
""fullscreenenter"",""1"",""5643""
","
","
","""event"",""trial"",""time""
""fullscreenenter"",""1"",""5643""
","
","","","1690.5999999940395","","","25","1011","374","h","elianto","#3366ff99"," "," ","1","+10","[2546.2999999821186]","1","2","","","1011","117","8","1","win","go","0","0"
"pit-trial","186","1284693","0.0-122.0","battery-v0.2","","""event"",""trial"",""time""
""fullscreenenter"",""1"",""5643""
","
","
","""event"",""trial"",""time""
""fullscreenenter"",""1"",""5643""
","
","","","-1","","","25","1011","374","r","elianto","#f73b6a7A"," ","-1","0","-10","[]","0","2","","","1011","118","10","3","lose","go","0","0"
"pit-trial","187","1289547","0.0-123.0","battery-v0.2","","""event"",""trial"",""time""
""fullscreenenter"",""1"",""5643""
","
","
","""event"",""trial"",""time""
""fullscreenenter"",""1"",""5643""
","
","","","-1","","","25","1011","374","y","elianto","#3366ff99","-1","-1","1","+10","[]","0","2","","","1011","119","9","2","win","no-go","0","0"
"pit-trial","188","1293963","0.0-124.0","battery-v0.2","","""event"",""trial"",""time""
""fullscreenenter"",""1"",""5643""
","
","
","""event"",""trial"",""time""
""fullscreenenter"",""1"",""5643""
","
","","","1563.2000000178814","","","25","1011","374","m","elianto","#f73b6a7A","-1"," ","0","-10","[2413.300000011921]","1","2","","","1011","120","11","4","lose","no-go","0","0"
"pit-trial","189","1298017","0.0-125.0","battery-v0.2","","""event"",""trial"",""time""
""fullscreenenter"",""1"",""5643""
","
","
","""event"",""trial"",""time""
""fullscreenenter"",""1"",""5643""
","
","","","1199.699999988079","","","25","1011","374","h","elianto","#3366ff99"," "," ","1","+10","[2050]","1","2","","","1011","121","8","1","win","go","0","0"
"pit-trial","190","1302871","0.0-126.0","battery-v0.2","","""event"",""trial"",""time""
""fullscreenenter"",""1"",""5643""
","
","
","""event"",""trial"",""time""
""fullscreenenter"",""1"",""5643""
","
","","","-1","","","25","1011","374","m","elianto","#f73b6a7A","-1","-1","1","-10","[]","0","2","","","1011","122","11","4","lose","no-go","1","0"
"pit-trial","191","1307727","0.0-127.0","battery-v0.2","","""event"",""trial"",""time""
""fullscreenenter"",""1"",""5643""
","
","
","""event"",""trial"",""time""
""fullscreenenter"",""1"",""5643""
","
","","","-1","","","25","1011","374","y","elianto","#3366ff99","-1","-1","1","0","[]","0","2","","","1011","123","9","2","win","no-go","1","0"
"pit-trial","192","1312596","0.0-128.0","battery-v0.2","","""event"",""trial"",""time""
""fullscreenenter"",""1"",""5643""
","
","
","""event"",""trial"",""time""
""fullscreenenter"",""1"",""5643""
","
","","","-1","","","25","1011","374","r","elianto","#f73b6a7A"," ","-1","0","-10","[]","0","2","","","1011","124","10","3","lose","go","0","0"
"pit-trial","193","1316200","0.0-129.0","battery-v0.2","","""event"",""trial"",""time""
""fullscreenenter"",""1"",""5643""
","
","
","""event"",""trial"",""time""
""fullscreenenter"",""1"",""5643""
","
","","","750.8000000119209","","","25","1011","374","r","elianto","#f73b6a7A"," "," ","1","0","[1601.199999988079]","1","2","","","1011","125","10","3","lose","go","0","0"
"pit-trial","194","1319765","0.0-130.0","battery-v0.2","","""event"",""trial"",""time""
""fullscreenenter"",""1"",""5643""
","
","
","""event"",""trial"",""time""
""fullscreenenter"",""1"",""5643""
","
","","","709.8000000119209","","","25","1011","374","h","elianto","#3366ff99"," "," ","1","+10","[1560]","1","2","","","1011","126","8","1","win","go","0","0"
"pit-trial","195","1324619","0.0-131.0","battery-v0.2","","""event"",""trial"",""time""
""fullscreenenter"",""1"",""5643""
","
","
","""event"",""trial"",""time""
""fullscreenenter"",""1"",""5643""
","
","","","-1","","","25","1011","374","y","elianto","#3366ff99","-1","-1","1","+10","[]","0","2","","","1011","127","9","2","win","no-go","0","0"
"pit-trial","196","1329473","0.0-132.0","battery-v0.2","","""event"",""trial"",""time""
""fullscreenenter"",""1"",""5643""
","
","
","""event"",""trial"",""time""
""fullscreenenter"",""1"",""5643""
","
","","","-1","","","25","1011","374","m","elianto","#f73b6a7A","-1","-1","1","0","[]","0","2","","","1011","128","11","4","lose","no-go","0","0"
"pit-trial","197","1334327","0.0-133.0","battery-v0.2","","""event"",""trial"",""time""
""fullscreenenter"",""1"",""5643""
","
","
","""event"",""trial"",""time""
""fullscreenenter"",""1"",""5643""
","
","","","-1","","","25","1011","374","m","elianto","#f73b6a7A","-1","-1","1","0","[]","0","2","","","1011","129","11","4","lose","no-go","0","0"
"pit-trial","198","1338185","0.0-134.0","battery-v0.2","","""event"",""trial"",""time""
""fullscreenenter"",""1"",""5643""
","
","
","""event"",""trial"",""time""
""fullscreenenter"",""1"",""5643""
","
","","","1002.5999999940395","","","25","1011","374","r","elianto","#f73b6a7A"," "," ","1","-10","[1853.5999999940395]","1","2","","","1011","130","10","3","lose","go","1","0"
"pit-trial","199","1343040","0.0-135.0","battery-v0.2","","""event"",""trial"",""time""
""fullscreenenter"",""1"",""5643""
","
","
","""event"",""trial"",""time""
""fullscreenenter"",""1"",""5643""
","
","","","-1","","","25","1011","374","y","elianto","#3366ff99","-1","-1","1","+10","[]","0","2","","","1011","131","9","2","win","no-go","0","0"
"pit-trial","200","1347344","0.0-136.0","battery-v0.2","","""event"",""trial"",""time""
""fullscreenenter"",""1"",""5643""
","
","
","""event"",""trial"",""time""
""fullscreenenter"",""1"",""5643""
","
","","","1450.5","","","25","1011","374","h","elianto","#3366ff99"," "," ","1","0","[2301.2999999821186]","1","2","","","1011","132","8","1","win","go","1","0"
"pit-trial","201","1352199","0.0-137.0","battery-v0.2","","""event"",""trial"",""time""
""fullscreenenter"",""1"",""5643""
","
","
","""event"",""trial"",""time""
""fullscreenenter"",""1"",""5643""
","
","","","-1","","","25","1011","374","y","elianto","#3366ff99","-1","-1","1","0","[]","0","2","","","1011","133","9","2","win","no-go","1","0"
"pit-trial","202","1357068","0.0-138.0","battery-v0.2","","""event"",""trial"",""time""
""fullscreenenter"",""1"",""5643""
","
","
","""event"",""trial"",""time""
""fullscreenenter"",""1"",""5643""
","
","","","-1","","","25","1011","374","r","elianto","#f73b6a7A"," ","-1","0","-10","[]","0","2","","","1011","134","10","3","lose","go","0","0"
"pit-trial","203","1361924","0.0-139.0","battery-v0.2","","""event"",""trial"",""time""
""fullscreenenter"",""1"",""5643""
","
","
","""event"",""trial"",""time""
""fullscreenenter"",""1"",""5643""
","
","","","-1","","","25","1011","374","m","elianto","#f73b6a7A","-1","-1","1","0","[]","0","2","","","1011","135","11","4","lose","no-go","0","0"
"pit-trial","204","1366641","0.0-140.0","battery-v0.2","","""event"",""trial"",""time""
""fullscreenenter"",""1"",""5643""
","
","
","""event"",""trial"",""time""
""fullscreenenter"",""1"",""5643""
","
","","","1862.7999999821186","","","25","1011","374","h","elianto","#3366ff99"," "," ","1","+10","[2713]","1","2","","","1011","136","8","1","win","go","0","0"
"pit-trial","205","1371497","0.0-141.0","battery-v0.2","","""event"",""trial"",""time""
""fullscreenenter"",""1"",""5643""
","
","
","""event"",""trial"",""time""
""fullscreenenter"",""1"",""5643""
","
","","","-1","","","25","1011","374","m","elianto","#f73b6a7A","-1","-1","1","0","[]","0","2","","","1011","137","11","4","lose","no-go","0","0"
"pit-trial","206","1374898","0.0-142.0","battery-v0.2","","""event"",""trial"",""time""
""fullscreenenter"",""1"",""5643""
","
","
","""event"",""trial"",""time""
""fullscreenenter"",""1"",""5643""
","
","","","545.8000000119209","","","25","1011","374","r","elianto","#f73b6a7A"," "," ","1","0","[1397.5]","1","2","","","1011","138","10","3","lose","go","0","0"
"pit-trial","207","1379751","0.0-143.0","battery-v0.2","","""event"",""trial"",""time""
""fullscreenenter"",""1"",""5643""
","
","
","""event"",""trial"",""time""
""fullscreenenter"",""1"",""5643""
","
","","","-1","","","25","1011","374","y","elianto","#3366ff99","-1","-1","1","+10","[]","0","2","","","1011","139","9","2","win","no-go","0","0"
"pit-trial","208","1383531","0.0-144.0","battery-v0.2","","""event"",""trial"",""time""
""fullscreenenter"",""1"",""5643""
","
","
","""event"",""trial"",""time""
""fullscreenenter"",""1"",""5643""
","
","","","924.7000000178814","","","25","1011","374","h","elianto","#3366ff99"," "," ","1","+10","[1776.5]","1","2","","","1011","140","8","1","win","go","0","0"
"pit-instructions","209","1412514","0.0-145.0","battery-v0.2","","""event"",""trial"",""time""
""fullscreenenter"",""1"",""5643""
","
","
","""event"",""trial"",""time""
""fullscreenenter"",""1"",""5643""
","
","","[{""page_index"":0,""viewing_time"":13470},{""page_index"":1,""viewing_time"":15510.700000017881}]","28980.90000000596","","","","","","","","","","","","","","","","","","","","","","","","",""
"pit-trial","210","1416950","0.0-146.0","battery-v0.2","","""event"",""trial"",""time""
""fullscreenenter"",""1"",""5643""
","
","
","""event"",""trial"",""time""
""fullscreenenter"",""1"",""5643""
","
","","","1565.3999999761581","","","25","1011","374","d","elianto","#3366ff99"," "," ","1","0","[2416.9000000059605]","1","3","","","1011","141","2","1","win","go","1","0"
"pit-trial","211","1420802","0.0-147.0","battery-v0.2","","""event"",""trial"",""time""
""fullscreenenter"",""1"",""5643""
","
","
","""event"",""trial"",""time""
""fullscreenenter"",""1"",""5643""
","
","","","990.6999999880791","","","25","1011","374","k","elianto","#f73b6a7A"," "," ","1","-10","[1847.0999999940395]","1","3","","","1011","142","3","3","lose","go","1","0"
"pit-trial","212","1424765","0.0-148.0","battery-v0.2","","""event"",""trial"",""time""
""fullscreenenter"",""1"",""5643""
","
","
","""event"",""trial"",""time""
""fullscreenenter"",""1"",""5643""
","
","","","1103.5","","","25","1011","374","j","elianto","#3366ff99","-1"," ","0","0","[1954.9000000059605]","1","3","","","1011","143","1","2","win","no-go","0","0"
"pit-trial","213","1429637","0.0-149.0","battery-v0.2","","""event"",""trial"",""time""
""fullscreenenter"",""1"",""5643""
","
","
","""event"",""trial"",""time""
""fullscreenenter"",""1"",""5643""
","
","","","-1","","","25","1011","374","v","elianto","#3366ff99","-1","-1","1","+10","[]","0","3","","","1011","144","0","2","win","no-go","0","0"
"pit-trial","214","1434502","0.0-150.0","battery-v0.2","","""event"",""trial"",""time""
""fullscreenenter"",""1"",""5643""
","
","
","""event"",""trial"",""time""
""fullscreenenter"",""1"",""5643""
","
","","","-1","","","25","1011","374","j","elianto","#3366ff99","-1","-1","1","+10","[]","0","3","","","1011","145","1","2","win","no-go","0","0"
"pit-trial","215","1439355","0.0-151.0","battery-v0.2","","""event"",""trial"",""time""
""fullscreenenter"",""1"",""5643""
","
","
","""event"",""trial"",""time""
""fullscreenenter"",""1"",""5643""
","
","","","-1","","","25","1011","374","v","elianto","#3366ff99","-1","-1","1","+10","[]","0","3","","","1011","146","0","2","win","no-go","0","0"
"pit-trial","216","1444211","0.0-152.0","battery-v0.2","","""event"",""trial"",""time""
""fullscreenenter"",""1"",""5643""
","
","
","""event"",""trial"",""time""
""fullscreenenter"",""1"",""5643""
","
","","","-1","","","25","1011","374","d","elianto","#3366ff99"," ","-1","0","0","[]","0","3","","","1011","147","2","1","win","go","0","0"
"pit-trial","217","1449065","0.0-153.0","battery-v0.2","","""event"",""trial"",""time""
""fullscreenenter"",""1"",""5643""
","
","
","""event"",""trial"",""time""
""fullscreenenter"",""1"",""5643""
","
","","","-1","","","25","1011","374","k","elianto","#f73b6a7A"," ","-1","0","0","[]","0","3","","","1011","148","3","3","lose","go","1","0"
"pit-trial","218","1453920","0.0-154.0","battery-v0.2","","""event"",""trial"",""time""
""fullscreenenter"",""1"",""5643""
","
","
","""event"",""trial"",""time""
""fullscreenenter"",""1"",""5643""
","
","","","-1","","","25","1011","374","j","elianto","#3366ff99","-1","-1","1","+10","[]","0","3","","","1011","149","1","2","win","no-go","0","0"
"pit-trial","219","1458775","0.0-155.0","battery-v0.2","","""event"",""trial"",""time""
""fullscreenenter"",""1"",""5643""
","
","
","""event"",""trial"",""time""
""fullscreenenter"",""1"",""5643""
","
","","","-1","","","25","1011","374","k","elianto","#f73b6a7A"," ","-1","0","-10","[]","0","3","","","1011","150","3","3","lose","go","0","0"
"pit-trial","220","1463629","0.0-156.0","battery-v0.2","","""event"",""trial"",""time""
""fullscreenenter"",""1"",""5643""
","
","
","""event"",""trial"",""time""
""fullscreenenter"",""1"",""5643""
","
","","","-1","","","25","1011","374","d","elianto","#3366ff99"," ","-1","0","+10","[]","0","3","","","1011","151","2","1","win","go","1","0"
"pit-trial","221","1468485","0.0-157.0","battery-v0.2","","""event"",""trial"",""time""
""fullscreenenter"",""1"",""5643""
","
","
","""event"",""trial"",""time""
""fullscreenenter"",""1"",""5643""
","
","","","-1","","","25","1011","374","v","elianto","#3366ff99","-1","-1","1","+10","[]","0","3","","","1011","152","0","2","win","no-go","0","0"
"pit-trial","222","1473340","0.0-158.0","battery-v0.2","","""event"",""trial"",""time""
""fullscreenenter"",""1"",""5643""
","
","
","""event"",""trial"",""time""
""fullscreenenter"",""1"",""5643""
","
","","","-1","","","25","1011","374","k","elianto","#f73b6a7A"," ","-1","0","0","[]","0","3","","","1011","153","3","3","lose","go","1","0"
"pit-trial","223","1478196","0.0-159.0","battery-v0.2","","""event"",""trial"",""time""
""fullscreenenter"",""1"",""5643""
","
","
","""event"",""trial"",""time""
""fullscreenenter"",""1"",""5643""
","
","","","-1","","","25","1011","374","d","elianto","#3366ff99"," ","-1","0","0","[]","0","3","","","1011","154","2","1","win","go","0","0"
"pit-trial","224","1483050","0.0-160.0","battery-v0.2","","""event"",""trial"",""time""
""fullscreenenter"",""1"",""5643""
","
","
","""event"",""trial"",""time""
""fullscreenenter"",""1"",""5643""
","
","","","-1","","","25","1011","374","v","elianto","#3366ff99","-1","-1","1","+10","[]","0","3","","","1011","155","0","2","win","no-go","0","0"
"pit-trial","225","1487906","0.0-161.0","battery-v0.2","","""event"",""trial"",""time""
""fullscreenenter"",""1"",""5643""
","
","
","""event"",""trial"",""time""
""fullscreenenter"",""1"",""5643""
","
","","","-1","","","25","1011","374","j","elianto","#3366ff99","-1","-1","1","+10","[]","0","3","","","1011","156","1","2","win","no-go","0","0"
"pit-trial","226","1491388","0.0-162.0","battery-v0.2","","""event"",""trial"",""time""
""fullscreenenter"",""1"",""5643""
","
","
","""event"",""trial"",""time""
""fullscreenenter"",""1"",""5643""
","
","","","623.9000000059605","","","25","1011","374","d","elianto","#3366ff99"," "," ","1","+10","[1475.5]","1","3","","","1011","157","2","1","win","go","0","0"
"pit-trial","227","1496241","0.0-163.0","battery-v0.2","","""event"",""trial"",""time""
""fullscreenenter"",""1"",""5643""
","
","
","""event"",""trial"",""time""
""fullscreenenter"",""1"",""5643""
","
","","","-1","","","25","1011","374","v","elianto","#3366ff99","-1","-1","1","+10","[]","0","3","","","1011","158","0","2","win","no-go","0","0"
"pit-trial","228","1501095","0.0-164.0","battery-v0.2","","""event"",""trial"",""time""
""fullscreenenter"",""1"",""5643""
","
","
","""event"",""trial"",""time""
""fullscreenenter"",""1"",""5643""
","
","","","-1","","","25","1011","374","j","elianto","#3366ff99","-1","-1","1","0","[]","0","3","","","1011","159","1","2","win","no-go","1","0"
"pit-trial","229","1505951","0.0-165.0","battery-v0.2","","""event"",""trial"",""time""
""fullscreenenter"",""1"",""5643""
","
","
","""event"",""trial"",""time""
""fullscreenenter"",""1"",""5643""
","
","","","-1","","","25","1011","374","k","elianto","#f73b6a7A"," ","-1","0","-10","[]","0","3","","","1011","160","3","3","lose","go","0","0"
"pit-trial","230","1510805","0.0-166.0","battery-v0.2","","""event"",""trial"",""time""
""fullscreenenter"",""1"",""5643""
","
","
","""event"",""trial"",""time""
""fullscreenenter"",""1"",""5643""
","
","","","-1","","","25","1011","374","d","elianto","#3366ff99"," ","-1","0","0","[]","0","3","","","1011","161","2","1","win","go","0","0"
"pit-trial","231","1514329","0.0-167.0","battery-v0.2","","""event"",""trial"",""time""
""fullscreenenter"",""1"",""5643""
","
","
","""event"",""trial"",""time""
""fullscreenenter"",""1"",""5643""
","
","","","669","","","25","1011","374","k","elianto","#f73b6a7A"," "," ","1","0","[1520.199999988079]","1","3","","","1011","162","3","3","lose","go","0","0"
"pit-trial","232","1519183","0.0-168.0","battery-v0.2","","""event"",""trial"",""time""
""fullscreenenter"",""1"",""5643""
","
","
","""event"",""trial"",""time""
""fullscreenenter"",""1"",""5643""
","
","","","-1","","","25","1011","374","j","elianto","#3366ff99","-1","-1","1","0","[]","0","3","","","1011","163","1","2","win","no-go","1","0"
"pit-trial","233","1524037","0.0-169.0","battery-v0.2","","""event"",""trial"",""time""
""fullscreenenter"",""1"",""5643""
","
","
","""event"",""trial"",""time""
""fullscreenenter"",""1"",""5643""
","
","","","-1","","","25","1011","374","v","elianto","#3366ff99","-1","-1","1","0","[]","0","3","","","1011","164","0","2","win","no-go","1","0"
"pit-trial","234","1528210","0.0-170.0","battery-v0.2","","""event"",""trial"",""time""
""fullscreenenter"",""1"",""5643""
","
","
","""event"",""trial"",""time""
""fullscreenenter"",""1"",""5643""
","
","","","1317.4000000059605","","","25","1011","374","j","elianto","#3366ff99","-1"," ","0","0","[2167.699999988079]","1","3","","","1011","165","1","2","win","no-go","0","0"
"pit-trial","235","1531756","0.0-171.0","battery-v0.2","","""event"",""trial"",""time""
""fullscreenenter"",""1"",""5643""
","
","
","""event"",""trial"",""time""
""fullscreenenter"",""1"",""5643""
","
","","","689.9000000059605","","","25","1011","374","v","elianto","#3366ff99","-1"," ","0","0","[1541.1000000238419]","1","3","","","1011","166","0","2","win","no-go","0","0"
"pit-trial","236","1535322","0.0-172.0","battery-v0.2","","""event"",""trial"",""time""
""fullscreenenter"",""1"",""5643""
","
","
","""event"",""trial"",""time""
""fullscreenenter"",""1"",""5643""
","
","","","712.5999999940395","","","25","1011","374","k","elianto","#f73b6a7A"," "," ","1","0","[1563.0999999940395]","1","3","","","1011","167","3","3","lose","go","0","0"
"pit-trial","237","1539598","0.0-173.0","battery-v0.2","","""event"",""trial"",""time""
""fullscreenenter"",""1"",""5643""
","
","
","""event"",""trial"",""time""
""fullscreenenter"",""1"",""5643""
","
","","","1421.2999999821186","","","25","1011","374","d","elianto","#3366ff99"," "," ","1","+10","[2272.4000000059605]","1","3","","","1011","168","2","1","win","go","0","0"
"pit-trial","238","1543119","0.0-174.0","battery-v0.2","","""event"",""trial"",""time""
""fullscreenenter"",""1"",""5643""
","
","
","""event"",""trial"",""time""
""fullscreenenter"",""1"",""5643""
","
","","","667.4000000059605","","","25","1011","374","k","elianto","#f73b6a7A"," "," ","1","-10","[1517.7999999821186]","1","3","","","1011","169","3","3","lose","go","1","0"
"pit-trial","239","1547973","0.0-175.0","battery-v0.2","","""event"",""trial"",""time""
""fullscreenenter"",""1"",""5643""
","
","
","""event"",""trial"",""time""
""fullscreenenter"",""1"",""5643""
","
","","","-1","","","25","1011","374","v","elianto","#3366ff99","-1","-1","1","+10","[]","0","3","","","1011","170","0","2","win","no-go","0","0"
"pit-trial","240","1552827","0.0-176.0","battery-v0.2","","""event"",""trial"",""time""
""fullscreenenter"",""1"",""5643""
","
","
","""event"",""trial"",""time""
""fullscreenenter"",""1"",""5643""
","
","","","-1","","","25","1011","374","j","elianto","#3366ff99","-1","-1","1","+10","[]","0","3","","","1011","171","1","2","win","no-go","0","0"
"pit-trial","241","1556407","0.0-177.0","battery-v0.2","","""event"",""trial"",""time""
""fullscreenenter"",""1"",""5643""
","
","
","""event"",""trial"",""time""
""fullscreenenter"",""1"",""5643""
","
","","","726.2999999821186","","","25","1011","374","d","elianto","#3366ff99"," "," ","1","+10","[1577.0999999940395]","1","3","","","1011","172","2","1","win","go","0","0"
"pit-trial","242","1560127","0.0-178.0","battery-v0.2","","""event"",""trial"",""time""
""fullscreenenter"",""1"",""5643""
","
","
","""event"",""trial"",""time""
""fullscreenenter"",""1"",""5643""
","
","","","866.0999999940395","","","25","1011","374","d","elianto","#3366ff99"," "," ","1","+10","[1716.4000000059605]","1","3","","","1011","173","2","1","win","go","0","0"
"pit-trial","243","1564980","0.0-179.0","battery-v0.2","","""event"",""trial"",""time""
""fullscreenenter"",""1"",""5643""
","
","
","""event"",""trial"",""time""
""fullscreenenter"",""1"",""5643""
","
","","","-1","","","25","1011","374","e","elianto","#f73b6a7A","-1","-1","1","-10","[]","0","3","","","1011","174","4","4","lose","no-go","1","0"
"pit-trial","244","1569075","0.0-180.0","battery-v0.2","","""event"",""trial"",""time""
""fullscreenenter"",""1"",""5643""
","
","
","""event"",""trial"",""time""
""fullscreenenter"",""1"",""5643""
","
","","","1240.5999999940395","","","25","1011","374","w","elianto","#f73b6a7A"," "," ","1","0","[2091.5]","1","3","","","1011","175","5","3","lose","go","0","0"
"pit-trial","245","1573930","0.0-181.0","battery-v0.2","","""event"",""trial"",""time""
""fullscreenenter"",""1"",""5643""
","
","
","""event"",""trial"",""time""
""fullscreenenter"",""1"",""5643""
","
","","","-1","","","25","1011","374","v","elianto","#3366ff99","-1","-1","1","+10","[]","0","3","","","1011","176","0","2","win","no-go","0","0"
"pit-trial","246","1578275","0.0-182.0","battery-v0.2","","""event"",""trial"",""time""
""fullscreenenter"",""1"",""5643""
","
","
","""event"",""trial"",""time""
""fullscreenenter"",""1"",""5643""
","
","","","1491.7000000178814","","","25","1011","374","d","elianto","#3366ff99"," "," ","1","+10","[2342.0999999940395]","1","3","","","1011","177","2","1","win","go","0","0"
"pit-trial","247","1583131","0.0-183.0","battery-v0.2","","""event"",""trial"",""time""
""fullscreenenter"",""1"",""5643""
","
","
","""event"",""trial"",""time""
""fullscreenenter"",""1"",""5643""
","
","","","-1","","","25","1011","374","v","elianto","#3366ff99","-1","-1","1","+10","[]","0","3","","","1011","178","0","2","win","no-go","0","0"
"pit-trial","248","1586599","0.0-184.0","battery-v0.2","","""event"",""trial"",""time""
""fullscreenenter"",""1"",""5643""
","
","
","""event"",""trial"",""time""
""fullscreenenter"",""1"",""5643""
","
","","","613.6999999880791","","","25","1011","374","w","elianto","#f73b6a7A"," "," ","1","-10","[1464.0999999940395]","1","3","","","1011","179","5","3","lose","go","1","0"
"pit-trial","249","1590420","0.0-185.0","battery-v0.2","","""event"",""trial"",""time""
""fullscreenenter"",""1"",""5643""
","
","
","""event"",""trial"",""time""
""fullscreenenter"",""1"",""5643""
","
","","","965","","","25","1011","374","e","elianto","#f73b6a7A","-1"," ","0","-10","[1816.300000011921]","1","3","","","1011","180","4","4","lose","no-go","0","0"
"pit-trial","250","1594280","0.0-186.0","battery-v0.2","","""event"",""trial"",""time""
""fullscreenenter"",""1"",""5643""
","
","
","""event"",""trial"",""time""
""fullscreenenter"",""1"",""5643""
","
","","","1004.6999999880791","","","25","1011","374","d","elianto","#3366ff99"," "," ","1","+10","[1855.5999999940395]","1","3","","","1011","181","2","1","win","go","0","0"
"pit-trial","251","1599134","0.0-187.0","battery-v0.2","","""event"",""trial"",""time""
""fullscreenenter"",""1"",""5643""
","
","
","""event"",""trial"",""time""
""fullscreenenter"",""1"",""5643""
","
","","","-1","","","25","1011","374","w","elianto","#f73b6a7A"," ","-1","0","-10","[]","0","3","","","1011","182","5","3","lose","go","0","0"
"pit-trial","252","1603391","0.0-188.0","battery-v0.2","","""event"",""trial"",""time""
""fullscreenenter"",""1"",""5643""
","
","
","""event"",""trial"",""time""
""fullscreenenter"",""1"",""5643""
","
","","","1403.300000011921","","","25","1011","374","s","elianto","#3366ff99","-1"," ","0","+10","[2253.9000000059605]","1","3","","","1011","183","6","2","win","no-go","1","0"
"pit-trial","253","1608246","0.0-189.0","battery-v0.2","","""event"",""trial"",""time""
""fullscreenenter"",""1"",""5643""
","
","
","""event"",""trial"",""time""
""fullscreenenter"",""1"",""5643""
","
","","","-1","","","25","1011","374","e","elianto","#f73b6a7A","-1","-1","1","0","[]","0","3","","","1011","184","4","4","lose","no-go","0","0"
"pit-trial","254","1611786","0.0-190.0","battery-v0.2","","""event"",""trial"",""time""
""fullscreenenter"",""1"",""5643""
","
","
","""event"",""trial"",""time""
""fullscreenenter"",""1"",""5643""
","
","","","685.7999999821186","","","25","1011","374","s","elianto","#3366ff99","-1"," ","0","0","[1536.300000011921]","1","3","","","1011","185","6","2","win","no-go","0","0"
"pit-trial","255","1615367","0.0-191.0","battery-v0.2","","""event"",""trial"",""time""
""fullscreenenter"",""1"",""5643""
","
","
","""event"",""trial"",""time""
""fullscreenenter"",""1"",""5643""
","
","","","721.7999999821186","","","25","1011","374","d","elianto","#3366ff99"," "," ","1","+10","[1577.199999988079]","1","3","","","1011","186","2","1","win","go","0","0"
"pit-trial","256","1620223","0.0-192.0","battery-v0.2","","""event"",""trial"",""time""
""fullscreenenter"",""1"",""5643""
","
","
","""event"",""trial"",""time""
""fullscreenenter"",""1"",""5643""
","
","","","-1","","","25","1011","374","e","elianto","#f73b6a7A","-1","-1","1","0","[]","0","3","","","1011","187","4","4","lose","no-go","0","0"
"pit-trial","257","1625079","0.0-193.0","battery-v0.2","","""event"",""trial"",""time""
""fullscreenenter"",""1"",""5643""
","
","
","""event"",""trial"",""time""
""fullscreenenter"",""1"",""5643""
","
","","","-1","","","25","1011","374","w","elianto","#f73b6a7A"," ","-1","0","-10","[]","0","3","","","1011","188","5","3","lose","go","0","0"
"pit-trial","258","1629934","0.0-194.0","battery-v0.2","","""event"",""trial"",""time""
""fullscreenenter"",""1"",""5643""
","
","
","""event"",""trial"",""time""
""fullscreenenter"",""1"",""5643""
","
","","","-1","","","25","1011","374","e","elianto","#f73b6a7A","-1","-1","1","0","[]","0","3","","","1011","189","4","4","lose","no-go","0","0"
"pit-trial","259","1634228","0.0-195.0","battery-v0.2","","""event"",""trial"",""time""
""fullscreenenter"",""1"",""5643""
","
","
","""event"",""trial"",""time""
""fullscreenenter"",""1"",""5643""
","
","","","1440.0999999940395","","","25","1011","374","p","elianto","#f73b6a7A","-1"," ","0","-10","[2290.300000011921]","1","3","","","1011","190","7","4","lose","no-go","0","0"
"pit-trial","260","1637978","0.0-196.0","battery-v0.2","","""event"",""trial"",""time""
""fullscreenenter"",""1"",""5643""
","
","
","""event"",""trial"",""time""
""fullscreenenter"",""1"",""5643""
","
","","","895.9000000059605","","","25","1011","374","s","elianto","#3366ff99","-1"," ","0","0","[1746]","1","3","","","1011","191","6","2","win","no-go","0","0"
"pit-trial","261","1641937","0.0-197.0","battery-v0.2","","""event"",""trial"",""time""
""fullscreenenter"",""1"",""5643""
","
","
","""event"",""trial"",""time""
""fullscreenenter"",""1"",""5643""
","
","","","1104.0999999940395","","","25","1011","374","w","elianto","#f73b6a7A"," "," ","1","0","[1955.199999988079]","1","3","","","1011","192","5","3","lose","go","0","0"
"pit-trial","262","1646806","0.0-198.0","battery-v0.2","","""event"",""trial"",""time""
""fullscreenenter"",""1"",""5643""
","
","
","""event"",""trial"",""time""
""fullscreenenter"",""1"",""5643""
","
","","","-1","","","25","1011","374","s","elianto","#3366ff99","-1","-1","1","+10","[]","0","3","","","1011","193","6","2","win","no-go","0","0"
"pit-trial","263","1650780","0.0-199.0","battery-v0.2","","""event"",""trial"",""time""
""fullscreenenter"",""1"",""5643""
","
","
","""event"",""trial"",""time""
""fullscreenenter"",""1"",""5643""
","
","","","1118.199999988079","","","25","1011","374","w","elianto","#f73b6a7A"," "," ","1","0","[1969.199999988079]","1","3","","","1011","194","5","3","lose","go","0","0"
"pit-trial","264","1655634","0.0-200.0","battery-v0.2","","""event"",""trial"",""time""
""fullscreenenter"",""1"",""5643""
","
","
","""event"",""trial"",""time""
""fullscreenenter"",""1"",""5643""
","
","","","-1","","","25","1011","374","p","elianto","#f73b6a7A","-1","-1","1","0","[]","0","3","","","1011","195","7","4","lose","no-go","0","0"
