"trial_type","trial_index","time_elapsed","internal_node_id","task_version","success","view_history","rt","rune","rune_set","hex","correct","choice","accuracy","outcome","keys","total_keys","block","practice","subject","participantId","value","responses","num_errors","sub","trial","stimulus","robot","valence","action","sham"
"pavlovia","0","90","0.0-0.0","battery-v0.2","","","","","","","","","","","","","","","","","","","","","","","","","",""
"fullscreen","1","3460","0.0-1.0","battery-v0.2","true","","","","","","","","","","","","","","","","","","","","","","","","",""
"pit-instructions","2","68967","0.0-2.0-0.0","battery-v0.2","","[{""page_index"":0,""viewing_time"":4779.60000000149},{""page_index"":1,""viewing_time"":5665.80000000447},{""page_index"":2,""viewing_time"":4033.7999999970198},{""page_index"":3,""viewing_time"":2199.7999999970198},{""page_index"":4,""viewing_time"":2091.60000000149},{""page_index"":5,""viewing_time"":2875.8000000044703},{""page_index"":6,""viewing_time"":2736.89999999851},{""page_index"":7,""viewing_time"":3117.60000000149},{""page_index"":8,""viewing_time"":3138.7999999970198},{""page_index"":9,""viewing_time"":3124.7999999970198},{""page_index"":10,""viewing_time"":13250.80000000447},{""page_index"":11,""viewing_time"":3892},{""page_index"":12,""viewing_time"":7426.69999999553},{""page_index"":13,""viewing_time"":3399.9000000059605},{""page_index"":14,""viewing_time"":3764.2999999970198}]","65499.30000000447","","","","","","","","","","","","","","","","","","","","","","",""
"pit-trial","3","71985","0.0-2.0-1.0-0.0","battery-v0.2","","","154.5","&#9784;","elianto","#FFFFF080","32","32","1","&#10004","1009.2000000029802","1","0","0","60fc54305e6e0e773a9e6c17&order=&STUDY_ID=61f02a8661f82b834564f044","999","","","","","","","","","",""
"pit-trial","4","75196","0.0-2.0-1.1-0.1","battery-v0.2","","","353.19999999552965","&#9784;","elianto","#FFFFF080","32","32","1","&#10004","1205.3000000044703","1","0","0","60fc54305e6e0e773a9e6c17&order=&STUDY_ID=61f02a8661f82b834564f044","999","","","","","","","","","",""
"pit-trial","5","78441","0.0-2.0-1.2-0.2","battery-v0.2","","","389.8999999985099","&#9784;","elianto","#FFFFF080","32","32","1","&#10004","1240.3999999985099","1","0","0","60fc54305e6e0e773a9e6c17&order=&STUDY_ID=61f02a8661f82b834564f044","999","","","","","","","","","",""
"pit-trial","6","81728","0.0-2.0-1.3-0.3","battery-v0.2","","","432","&#9784;","elianto","#FFFFF080","32","32","1","&#10004","1282.1000000014901","1","0","0","60fc54305e6e0e773a9e6c17&order=&STUDY_ID=61f02a8661f82b834564f044","999","","","","","","","","","",""
"pit-trial","7","84980","0.0-2.0-1.4-0.4","battery-v0.2","","","394.80000000447035","&#9784;","elianto","#FFFFF080","32","32","1","&#10004","1245.3000000044703","1","0","0","60fc54305e6e0e773a9e6c17&order=&STUDY_ID=61f02a8661f82b834564f044","999","","","","","","","","","",""
"pit-instructions","8","100171","0.0-2.0-2.0","battery-v0.2","","[{""page_index"":0,""viewing_time"":1848.1000000014901},{""page_index"":1,""viewing_time"":2172.2999999970198},{""page_index"":2,""viewing_time"":7094},{""page_index"":3,""viewing_time"":4072.60000000149}]","15187.39999999851","","","","","","","","","","","","","","","","","","","","","","",""
"pit-trial","9","105028","0.0-2.0-3.0-0.0","battery-v0.2","","","-1","&#9854;","elianto","#FFFFF080","-1","-1","1","&#10004","","0","0","1","60fc54305e6e0e773a9e6c17&order=&STUDY_ID=61f02a8661f82b834564f044","999","","","","","","","","","",""
"pit-trial","10","109884","0.0-2.0-3.1-0.1","battery-v0.2","","","-1","&#9854;","elianto","#FFFFF080","-1","-1","1","&#10004","","0","0","1","60fc54305e6e0e773a9e6c17&order=&STUDY_ID=61f02a8661f82b834564f044","999","","","","","","","","","",""
"pit-trial","11","114744","0.0-2.0-3.2-0.2","battery-v0.2","","","-1","&#9854;","elianto","#FFFFF080","-1","-1","1","&#10004","","0","0","1","60fc54305e6e0e773a9e6c17&order=&STUDY_ID=61f02a8661f82b834564f044","999","","","","","","","","","",""
"pit-trial","12","119602","0.0-2.0-3.3-0.3","battery-v0.2","","","-1","&#9854;","elianto","#FFFFF080","-1","-1","1","&#10004","","0","0","1","60fc54305e6e0e773a9e6c17&order=&STUDY_ID=61f02a8661f82b834564f044","999","","","","","","","","","",""
"pit-trial","13","124465","0.0-2.0-3.4-0.4","battery-v0.2","","","-1","&#9854;","elianto","#FFFFF080","-1","-1","1","&#10004","","0","0","1","60fc54305e6e0e773a9e6c17&order=&STUDY_ID=61f02a8661f82b834564f044","999","","","","","","","","","",""
"pit-instructions","14","177772","0.0-2.0-4.0","battery-v0.2","","[{""page_index"":0,""viewing_time"":1870.2000000029802},{""page_index"":1,""viewing_time"":3644},{""page_index"":2,""viewing_time"":4351.60000000149},{""page_index"":3,""viewing_time"":2321.2999999970198},{""page_index"":4,""viewing_time"":2019.6000000014901},{""page_index"":5,""viewing_time"":1994.1000000014901},{""page_index"":6,""viewing_time"":3574},{""page_index"":7,""viewing_time"":3675.0999999940395},{""page_index"":8,""viewing_time"":3222.4000000059605},{""page_index"":9,""viewing_time"":2760.39999999851},{""page_index"":10,""viewing_time"":2705.60000000149},{""page_index"":11,""viewing_time"":2055.1999999955297},{""page_index"":12,""viewing_time"":3229.8000000044703},{""page_index"":13,""viewing_time"":3510.39999999851},{""page_index"":14,""viewing_time"":2399.7999999970198},{""page_index"":15,""viewing_time"":3085.7000000029802},{""page_index"":16,""viewing_time"":4572.29999999702},{""page_index"":17,""viewing_time"":2308.7000000029802}]","53300.5","","","","","","","","","","","","","","","","","","","","","","",""
"pit-trial","15","181355","0.0-2.0-5.0-0.0","battery-v0.2","","","725.2999999970198","&#9776;","elianto","#3366ff99","32","32","1","+10","1575.7999999970198","1","0","1","60fc54305e6e0e773a9e6c17&order=&STUDY_ID=61f02a8661f82b834564f044","999","","","","","","","","","",""
"pit-trial","16","185007","0.0-2.0-5.0-1.0","battery-v0.2","","","792.5","&#9776;","elianto","#3366ff99","32","32","1","+10","1643.5","1","0","1","60fc54305e6e0e773a9e6c17&order=&STUDY_ID=61f02a8661f82b834564f044","999","","","","","","","","","",""
"pit-trial","17","188393","0.0-2.0-5.0-2.0","battery-v0.2","","","531.3999999985099","&#9776;","elianto","#3366ff99","32","32","1","+10","1381.6999999955297","1","0","1","60fc54305e6e0e773a9e6c17&order=&STUDY_ID=61f02a8661f82b834564f044","999","","","","","","","","","",""
"pit-trial","18","191939","0.0-2.0-5.0-3.0","battery-v0.2","","","686.7999999970198","&#9776;","elianto","#3366ff99","32","32","1","0","1538.3999999985099","1","0","1","60fc54305e6e0e773a9e6c17&order=&STUDY_ID=61f02a8661f82b834564f044","999","","","","","","","","","",""
"pit-trial","19","195250","0.0-2.0-5.0-4.0","battery-v0.2","","","458.29999999701977","&#9776;","elianto","#3366ff99","32","32","1","+10","1308.6999999955297","1","0","1","60fc54305e6e0e773a9e6c17&order=&STUDY_ID=61f02a8661f82b834564f044","999","","","","","","","","","",""
"call-function","20","195254","0.0-2.0-6.0","battery-v0.2","","","","","","","","","","","","","","","","","","","","","","","","","",""
"pit-instructions","21","230614","0.0-2.0-7.0","battery-v0.2","","[{""page_index"":0,""viewing_time"":2784},{""page_index"":1,""viewing_time"":4750.70000000298},{""page_index"":2,""viewing_time"":2455.7999999970198},{""page_index"":3,""viewing_time"":2715.89999999851},{""page_index"":4,""viewing_time"":4082.39999999851},{""page_index"":5,""viewing_time"":18569.60000000149}]","35358.70000000298","","","","","","","","","","","","","","","","","","","","","","",""
"pit-trial","22","234493","0.0-2.0-8.0-0.0","battery-v0.2","","","1019.5","&#9761;","elianto","#3366ff99","-1","32","0","0","1871.3999999985099","1","0","2","60fc54305e6e0e773a9e6c17&order=&STUDY_ID=61f02a8661f82b834564f044","999","","","","","","","","","",""
"pit-trial","23","238032","0.0-2.0-8.0-1.0","battery-v0.2","","","685","&#9761;","elianto","#3366ff99","-1","32","0","0","1535.6000000014901","1","0","2","60fc54305e6e0e773a9e6c17&order=&STUDY_ID=61f02a8661f82b834564f044","999","","","","","","","","","",""
"pit-trial","24","242887","0.0-2.0-8.0-2.0","battery-v0.2","","","-1","&#9761;","elianto","#3366ff99","-1","-1","1","+10","","0","0","2","60fc54305e6e0e773a9e6c17&order=&STUDY_ID=61f02a8661f82b834564f044","999","","","","","","","","","",""
"pit-trial","25","247748","0.0-2.0-8.0-3.0","battery-v0.2","","","-1","&#9761;","elianto","#3366ff99","-1","-1","1","0","","0","0","2","60fc54305e6e0e773a9e6c17&order=&STUDY_ID=61f02a8661f82b834564f044","999","","","","","","","","","",""
"pit-trial","26","252607","0.0-2.0-8.0-4.0","battery-v0.2","","","-1","&#9761;","elianto","#3366ff99","-1","-1","1","+10","","0","0","2","60fc54305e6e0e773a9e6c17&order=&STUDY_ID=61f02a8661f82b834564f044","999","","","","","","","","","",""
"pit-trial","27","257462","0.0-2.0-8.1-0.1","battery-v0.2","","","-1","&#9761;","elianto","#3366ff99","-1","-1","1","+10","","0","0","2","60fc54305e6e0e773a9e6c17&order=&STUDY_ID=61f02a8661f82b834564f044","999","","","","","","","","","",""
"pit-trial","28","262325","0.0-2.0-8.1-1.1","battery-v0.2","","","-1","&#9761;","elianto","#3366ff99","-1","-1","1","+10","","0","0","2","60fc54305e6e0e773a9e6c17&order=&STUDY_ID=61f02a8661f82b834564f044","999","","","","","","","","","",""
"pit-trial","29","267188","0.0-2.0-8.1-2.1","battery-v0.2","","","-1","&#9761;","elianto","#3366ff99","-1","-1","1","+10","","0","0","2","60fc54305e6e0e773a9e6c17&order=&STUDY_ID=61f02a8661f82b834564f044","999","","","","","","","","","",""
"pit-trial","30","272048","0.0-2.0-8.1-3.1","battery-v0.2","","","-1","&#9761;","elianto","#3366ff99","-1","-1","1","0","","0","0","2","60fc54305e6e0e773a9e6c17&order=&STUDY_ID=61f02a8661f82b834564f044","999","","","","","","","","","",""
"pit-trial","31","276905","0.0-2.0-8.1-4.1","battery-v0.2","","","-1","&#9761;","elianto","#3366ff99","-1","-1","1","+10","","0","0","2","60fc54305e6e0e773a9e6c17&order=&STUDY_ID=61f02a8661f82b834564f044","999","","","","","","","","","",""
"call-function","32","276906","0.0-2.0-9.0","battery-v0.2","","","","","","","","","","","","","","","","","","","","","","","","","",""
"pit-instructions","33","289112","0.0-2.0-10.0","battery-v0.2","","[{""page_index"":0,""viewing_time"":2955.60000000149},{""page_index"":1,""viewing_time"":3985.10000000149},{""page_index"":2,""viewing_time"":1418},{""page_index"":3,""viewing_time"":3134.10000000149},{""page_index"":4,""viewing_time"":712}]","12205.10000000149","","","","","","","","","","","","","","","","","","","","","","",""
"pit-trial","34","293973","0.0-2.0-11.0-0.0","battery-v0.2","","","-1","&#9826;","elianto","#f73b6a7A","-1","-1","1","0","","0","0","3","60fc54305e6e0e773a9e6c17&order=&STUDY_ID=61f02a8661f82b834564f044","999","","","","","","","","","",""
"pit-trial","35","298829","0.0-2.0-11.0-1.0","battery-v0.2","","","-1","&#9826;","elianto","#f73b6a7A","-1","-1","1","0","","0","0","3","60fc54305e6e0e773a9e6c17&order=&STUDY_ID=61f02a8661f82b834564f044","999","","","","","","","","","",""
"pit-trial","36","303687","0.0-2.0-11.0-2.0","battery-v0.2","","","-1","&#9826;","elianto","#f73b6a7A","-1","-1","1","0","","0","0","3","60fc54305e6e0e773a9e6c17&order=&STUDY_ID=61f02a8661f82b834564f044","999","","","","","","","","","",""
"pit-trial","37","308546","0.0-2.0-11.0-3.0","battery-v0.2","","","-1","&#9826;","elianto","#f73b6a7A","-1","-1","1","-10","3655","1","0","3","60fc54305e6e0e773a9e6c17&order=&STUDY_ID=61f02a8661f82b834564f044","999","","","","","","","","","",""
"pit-trial","38","312053","0.0-2.0-11.0-4.0","battery-v0.2","","","651.2999999970198","&#9826;","elianto","#f73b6a7A","-1","32","0","-10","1503.8999999985099","1","0","3","60fc54305e6e0e773a9e6c17&order=&STUDY_ID=61f02a8661f82b834564f044","999","","","","","","","","","",""
"pit-trial","39","316914","0.0-2.0-11.1-0.1","battery-v0.2","","","-1","&#9826;","elianto","#f73b6a7A","-1","-1","1","0","","0","0","3","60fc54305e6e0e773a9e6c17&order=&STUDY_ID=61f02a8661f82b834564f044","999","","","","","","","","","",""
"pit-trial","40","321774","0.0-2.0-11.1-1.1","battery-v0.2","","","-1","&#9826;","elianto","#f73b6a7A","-1","-1","1","0","","0","0","3","60fc54305e6e0e773a9e6c17&order=&STUDY_ID=61f02a8661f82b834564f044","999","","","","","","","","","",""
"pit-trial","41","326637","0.0-2.0-11.1-2.1","battery-v0.2","","","-1","&#9826;","elianto","#f73b6a7A","-1","-1","1","0","","0","0","3","60fc54305e6e0e773a9e6c17&order=&STUDY_ID=61f02a8661f82b834564f044","999","","","","","","","","","",""
"pit-trial","42","331495","0.0-2.0-11.1-3.1","battery-v0.2","","","-1","&#9826;","elianto","#f73b6a7A","-1","-1","1","-10","","0","0","3","60fc54305e6e0e773a9e6c17&order=&STUDY_ID=61f02a8661f82b834564f044","999","","","","","","","","","",""
"pit-trial","43","336351","0.0-2.0-11.1-4.1","battery-v0.2","","","-1","&#9826;","elianto","#f73b6a7A","-1","-1","1","0","","0","0","3","60fc54305e6e0e773a9e6c17&order=&STUDY_ID=61f02a8661f82b834564f044","999","","","","","","","","","",""
"call-function","44","336352","0.0-2.0-12.0","battery-v0.2","","","","","","","","","","","","","","","","","","","","","","","","","",""
"pit-instructions","45","354650","0.0-2.0-13.0","battery-v0.2","","[{""page_index"":0,""viewing_time"":6387.79999999702},{""page_index"":1,""viewing_time"":4511.5},{""page_index"":2,""viewing_time"":2803.10000000149},{""page_index"":3,""viewing_time"":4593.89999999851}]","18296.70000000298","","","","","","","","","","","","","","","","","","","","","","",""
"pit-trial","46","358212","0.0-2.0-14.0-0.0","battery-v0.2","","","700.9000000059605","&#9789;","elianto","#f73b6a7A","32","32","1","0","1554.3000000044703","1","0","4","60fc54305e6e0e773a9e6c17&order=&STUDY_ID=61f02a8661f82b834564f044","999","","","","","","","","","",""
"pit-trial","47","361802","0.0-2.0-14.0-1.0","battery-v0.2","","","731.1000000014901","&#9789;","elianto","#f73b6a7A","32","32","1","0","1583.3999999985099","1","0","4","60fc54305e6e0e773a9e6c17&order=&STUDY_ID=61f02a8661f82b834564f044","999","","","","","","","","","",""
"pit-trial","48","365060","0.0-2.0-14.0-2.0","battery-v0.2","","","400.5","&#9789;","elianto","#f73b6a7A","32","32","1","0","1251","1","0","4","60fc54305e6e0e773a9e6c17&order=&STUDY_ID=61f02a8661f82b834564f044","999","","","","","","","","","",""
"pit-trial","49","368275","0.0-2.0-14.0-3.0","battery-v0.2","","","357.29999999701977","&#9789;","elianto","#f73b6a7A","32","32","1","-10","1208.6999999955297","1","0","4","60fc54305e6e0e773a9e6c17&order=&STUDY_ID=61f02a8661f82b834564f044","999","","","","","","","","","",""
"pit-trial","50","371515","0.0-2.0-14.0-4.0","battery-v0.2","","","386.5","&#9789;","elianto","#f73b6a7A","32","32","1","0","1236.8999999985099","1","0","4","60fc54305e6e0e773a9e6c17&order=&STUDY_ID=61f02a8661f82b834564f044","999","","","","","","","","","",""
"call-function","51","371517","0.0-2.0-15.0","battery-v0.2","","","","","","","","","","","","","","","","","","","","","","","","","",""
"pit-instructions","52","400401","0.0-2.0-16.0","battery-v0.2","","[{""page_index"":0,""viewing_time"":2258.6999999955297},{""page_index"":1,""viewing_time"":1466.1000000014901},{""page_index"":2,""viewing_time"":5567.60000000149},{""page_index"":3,""viewing_time"":3949.39999999851},{""page_index"":4,""viewing_time"":4495},{""page_index"":5,""viewing_time"":2099.10000000149},{""page_index"":6,""viewing_time"":4187.79999999702},{""page_index"":7,""viewing_time"":3531.60000000149},{""page_index"":8,""viewing_time"":1327.2000000029802}]","28883","","","","","","","","","","","","","","","","","","","","","","",""
"pit-comprehension","53","404145","0.0-2.0-17.0-0.0","battery-v0.2","","","3729.3000000044703","","","","","","","","","","","","","","","SPACE","0","","","","","","",""
"pit-instructions","54","405391","0.0-2.0-17.0-1.0","battery-v0.2","","[{""page_index"":0,""viewing_time"":1205.5999999940395}]","1206.0999999940395","","","","","","","","","","","","","","","","","","","","","","",""
"pit-comprehension","55","410716","0.0-2.0-18.0-0.0","battery-v0.2","","","5319.80000000447","","","","","","","","","","","","","","","10","0","","","","","","",""
"pit-instructions","56","411854","0.0-2.0-18.0-1.0","battery-v0.2","","[{""page_index"":0,""viewing_time"":1118}]","1118.3000000044703","","","","","","","","","","","","","","","","","","","","","","",""
"pit-comprehension","57","419885","0.0-2.0-19.0-0.0","battery-v0.2","","","8028.0999999940395","","","","","","","","","","","","","","","0","0","","","","","","",""
"pit-instructions","58","420886","0.0-2.0-19.0-1.0","battery-v0.2","","[{""page_index"":0,""viewing_time"":982.7000000029802}]","983.1000000014901","","","","","","","","","","","","","","","","","","","","","","",""
"pit-comprehension","59","428100","0.0-2.0-20.0-0.0","battery-v0.2","","","7210.0999999940395","","","","","","","","","","","","","","","True","0","","","","","","",""
"pit-instructions","60","429270","0.0-2.0-20.0-1.0","battery-v0.2","","[{""page_index"":0,""viewing_time"":1151.3000000044703}]","1151.7000000029802","","","","","","","","","","","","","","","","","","","","","","",""
"pit-comprehension","61","434671","0.0-2.0-21.0-0.0","battery-v0.2","","","5398.29999999702","","","","","","","","","","","","","","","True","0","","","","","","",""
"pit-instructions","62","435721","0.0-2.0-21.0-1.0","battery-v0.2","","[{""page_index"":0,""viewing_time"":1030.3999999985099}]","1030.8999999985099","","","","","","","","","","","","","","","","","","","","","","",""
"pit-comprehension","63","439758","0.0-2.0-22.0-0.0","battery-v0.2","","","4034.5","","","","","","","","","","","","","","","True","0","","","","","","",""
"pit-instructions","64","440779","0.0-2.0-22.0-1.0","battery-v0.2","","[{""page_index"":0,""viewing_time"":1002.7999999970198}]","1003.3999999985099","","","","","","","","","","","","","","","","","","","","","","",""
"pit-comprehension","65","444646","0.0-2.0-23.0-0.0","battery-v0.2","","","3864.5","","","","","","","","","","","","","","","False","0","","","","","","",""
"pit-instructions","66","445665","0.0-2.0-23.0-1.0","battery-v0.2","","[{""page_index"":0,""viewing_time"":994.2000000029802}]","994.7999999970198","","","","","","","","","","","","","","","","","","","","","","",""
"pit-instructions","67","453070","0.0-3.0","battery-v0.2","","[{""page_index"":0,""viewing_time"":1533.7999999970198},{""page_index"":1,""viewing_time"":1959.5},{""page_index"":2,""viewing_time"":3908.39999999851}]","7402","","","","","","","","","","","","","","","","","","","","","","",""
"pit-trial","68","456467","0.0-4.0","battery-v0.2","","","541","&#9733;","elianto","#3366ff99","-1","32","0","0","1392.8999999985099","1","1","","","","","","","60fc54305e6e0e773a9e6c17&order=&STUDY_ID=61f02a8661f82b834564f044","1","2","2","win","no-go","0"
"pit-trial","69","461328","0.0-5.0","battery-v0.2","","","-1","&#9728;","elianto","#f73b6a7A","-1","-1","1","0","","0","1","","","","","","","60fc54305e6e0e773a9e6c17&order=&STUDY_ID=61f02a8661f82b834564f044","2","0","4","lose","no-go","0"
"pit-trial","70","465078","0.0-6.0","battery-v0.2","","","893.6999999955297","&#9752;","elianto","#f73b6a7A","32","32","1","0","1744","1","1","","","","","","","60fc54305e6e0e773a9e6c17&order=&STUDY_ID=61f02a8661f82b834564f044","3","3","3","lose","go","0"
"pit-trial","71","468812","0.0-7.0","battery-v0.2","","","879.4000000059605","&#9730;","elianto","#3366ff99","32","32","1","+10","1730.4000000059605","1","1","","","","","","","60fc54305e6e0e773a9e6c17&order=&STUDY_ID=61f02a8661f82b834564f044","4","1","1","win","go","0"
"pit-trial","72","472626","0.0-8.0","battery-v0.2","","","959.7000000029802","&#9730;","elianto","#3366ff99","32","32","1","+10","1810.2999999970198","1","1","","","","","","","60fc54305e6e0e773a9e6c17&order=&STUDY_ID=61f02a8661f82b834564f044","5","1","1","win","go","0"
"pit-trial","73","476274","0.0-9.0","battery-v0.2","","","790.3000000044703","&#9733;","elianto","#3366ff99","-1","32","0","+10","1643.8999999985099","1","1","","","","","","","60fc54305e6e0e773a9e6c17&order=&STUDY_ID=61f02a8661f82b834564f044","6","2","2","win","no-go","1"
"pit-trial","74","480436","0.0-10.0","battery-v0.2","","","1305.5","&#9728;","elianto","#f73b6a7A","-1","32","0","0","2157.8000000044703","1","1","","","","","","","60fc54305e6e0e773a9e6c17&order=&STUDY_ID=61f02a8661f82b834564f044","7","0","4","lose","no-go","1"
"pit-trial","75","485291","0.0-11.0","battery-v0.2","","","-1","&#9752;","elianto","#f73b6a7A","32","-1","0","0","","0","1","","","","","","","60fc54305e6e0e773a9e6c17&order=&STUDY_ID=61f02a8661f82b834564f044","8","3","3","lose","go","1"
"pit-trial","76","489019","0.0-12.0","battery-v0.2","","","866.7999999970198","&#9733;","elianto","#3366ff99","-1","32","0","+10","1723.6000000014901","1","1","","","","","","","60fc54305e6e0e773a9e6c17&order=&STUDY_ID=61f02a8661f82b834564f044","9","2","2","win","no-go","1"
"pit-trial","77","493875","0.0-13.0","battery-v0.2","","","-1","&#9752;","elianto","#f73b6a7A","32","-1","0","-10","","0","1","","","","","","","60fc54305e6e0e773a9e6c17&order=&STUDY_ID=61f02a8661f82b834564f044","10","3","3","lose","go","0"
"pit-trial","78","497420","0.0-14.0","battery-v0.2","","","681.5","&#9728;","elianto","#f73b6a7A","-1","32","0","-10","1540.6999999955297","1","1","","","","","","","60fc54305e6e0e773a9e6c17&order=&STUDY_ID=61f02a8661f82b834564f044","11","0","4","lose","no-go","0"
"pit-trial","79","500921","0.0-15.0","battery-v0.2","","","644.2000000029802","&#9730;","elianto","#3366ff99","32","32","1","+10","1495.4000000059605","1","1","","","","","","","60fc54305e6e0e773a9e6c17&order=&STUDY_ID=61f02a8661f82b834564f044","12","1","1","win","go","0"
"pit-trial","80","504416","0.0-16.0","battery-v0.2","","","637","&#9728;","elianto","#f73b6a7A","-1","32","0","-10","1487.4000000059605","1","1","","","","","","","60fc54305e6e0e773a9e6c17&order=&STUDY_ID=61f02a8661f82b834564f044","13","0","4","lose","no-go","0"
"pit-trial","81","508029","0.0-17.0","battery-v0.2","","","759","&#9752;","elianto","#f73b6a7A","32","32","1","0","1609.3999999985099","1","1","","","","","","","60fc54305e6e0e773a9e6c17&order=&STUDY_ID=61f02a8661f82b834564f044","14","3","3","lose","go","0"
"pit-trial","82","511740","0.0-18.0","battery-v0.2","","","852.8999999985099","&#9730;","elianto","#3366ff99","32","32","1","+10","1703.1999999955297","1","1","","","","","","","60fc54305e6e0e773a9e6c17&order=&STUDY_ID=61f02a8661f82b834564f044","15","1","1","win","go","0"
"pit-trial","83","515421","0.0-19.0","battery-v0.2","","","827.1999999955297","&#9733;","elianto","#3366ff99","-1","32","0","0","1678.6000000014901","1","1","","","","","","","60fc54305e6e0e773a9e6c17&order=&STUDY_ID=61f02a8661f82b834564f044","16","2","2","win","no-go","0"
"pit-trial","84","519258","0.0-20.0","battery-v0.2","","","978","&#9733;","elianto","#3366ff99","-1","32","0","0","1829.3999999985099","1","1","","","","","","","60fc54305e6e0e773a9e6c17&order=&STUDY_ID=61f02a8661f82b834564f044","17","2","2","win","no-go","0"
"pit-trial","85","523480","0.0-21.0","battery-v0.2","","","1364.3999999985099","&#9752;","elianto","#f73b6a7A","32","32","1","0","2215.60000000149","1","1","","","","","","","60fc54305e6e0e773a9e6c17&order=&STUDY_ID=61f02a8661f82b834564f044","18","3","3","lose","go","0"
"pit-trial","86","527288","0.0-22.0","battery-v0.2","","","948.0999999940395","&#9730;","elianto","#3366ff99","32","32","1","+10","1804.7999999970198","1","1","","","","","","","60fc54305e6e0e773a9e6c17&order=&STUDY_ID=61f02a8661f82b834564f044","19","1","1","win","go","0"
"pit-trial","87","531327","0.0-23.0","battery-v0.2","","","1184.6000000014901","&#9728;","elianto","#f73b6a7A","-1","32","0","0","2034.8999999985099","1","1","","","","","","","60fc54305e6e0e773a9e6c17&order=&STUDY_ID=61f02a8661f82b834564f044","20","0","4","lose","no-go","1"
"pit-instructions","88","536442","0.0-24.0","battery-v0.2","","[{""page_index"":0,""viewing_time"":2051.5999999940395},{""page_index"":1,""viewing_time"":3060.60000000149}]","5112.5999999940395","","","","","","","","","","","","","","","","","","","","","","",""
"pit-trial","89","540306","0.0-25.0","battery-v0.2","","","1003.1999999955297","r","elianto","#3366ff99","-1","32","0","0","1855.2999999970198","1","2","","","","","","","60fc54305e6e0e773a9e6c17&order=&STUDY_ID=61f02a8661f82b834564f044","21","1","2","win","no-go","0"
"pit-trial","90","543909","0.0-26.0","battery-v0.2","","","745.3999999985099","m","elianto","#3366ff99","-1","32","0","0","1595.6999999955297","1","2","","","","","","","60fc54305e6e0e773a9e6c17&order=&STUDY_ID=61f02a8661f82b834564f044","22","0","2","win","no-go","0"
"pit-trial","91","547608","0.0-27.0","battery-v0.2","","","840.8999999985099","y","elianto","#3366ff99","32","32","1","+10","1691.7000000029802","1","2","","","","","","","60fc54305e6e0e773a9e6c17&order=&STUDY_ID=61f02a8661f82b834564f044","23","2","1","win","go","0"
"pit-trial","92","552469","0.0-28.0","battery-v0.2","","","-1","h","elianto","#f73b6a7A","32","-1","0","-10","","0","2","","","","","","","60fc54305e6e0e773a9e6c17&order=&STUDY_ID=61f02a8661f82b834564f044","24","3","3","lose","go","0"
"pit-trial","93","556595","0.0-29.0","battery-v0.2","","","1267.5","y","elianto","#3366ff99","32","32","1","+10","2118.7999999970198","1","2","","","","","","","60fc54305e6e0e773a9e6c17&order=&STUDY_ID=61f02a8661f82b834564f044","25","2","1","win","go","0"
"pit-trial","94","560718","0.0-30.0","battery-v0.2","","","1266.6000000014901","h","elianto","#f73b6a7A","32","32","1","0","2117.39999999851","1","2","","","","","","","60fc54305e6e0e773a9e6c17&order=&STUDY_ID=61f02a8661f82b834564f044","26","3","3","lose","go","0"
"pit-trial","95","565572","0.0-31.0","battery-v0.2","","","-1","r","elianto","#3366ff99","-1","-1","1","+10","","0","2","","","","","","","60fc54305e6e0e773a9e6c17&order=&STUDY_ID=61f02a8661f82b834564f044","27","1","2","win","no-go","0"
"pit-trial","96","570432","0.0-32.0","battery-v0.2","","","-1","m","elianto","#3366ff99","-1","-1","1","+10","","0","2","","","","","","","60fc54305e6e0e773a9e6c17&order=&STUDY_ID=61f02a8661f82b834564f044","28","0","2","win","no-go","0"
"pit-trial","97","574113","0.0-33.0","battery-v0.2","","","826.1000000014901","y","elianto","#3366ff99","32","32","1","+10","1677.2000000029802","1","2","","","","","","","60fc54305e6e0e773a9e6c17&order=&STUDY_ID=61f02a8661f82b834564f044","29","2","1","win","go","0"
"pit-trial","98","578970","0.0-34.0","battery-v0.2","","","-1","m","elianto","#3366ff99","-1","-1","1","+10","","0","2","","","","","","","60fc54305e6e0e773a9e6c17&order=&STUDY_ID=61f02a8661f82b834564f044","30","0","2","win","no-go","0"
"pit-trial","99","583832","0.0-35.0","battery-v0.2","","","-1","r","elianto","#3366ff99","-1","-1","1","0","","0","2","","","","","","","60fc54305e6e0e773a9e6c17&order=&STUDY_ID=61f02a8661f82b834564f044","31","1","2","win","no-go","1"
"pit-trial","100","588268","0.0-36.0","battery-v0.2","","","1582.0999999940395","h","elianto","#f73b6a7A","32","32","1","-10","2432.2999999970198","1","2","","","","","","","60fc54305e6e0e773a9e6c17&order=&STUDY_ID=61f02a8661f82b834564f044","32","3","3","lose","go","1"
"pit-trial","101","593131","0.0-37.0","battery-v0.2","","","-1","r","elianto","#3366ff99","-1","-1","1","+10","","0","2","","","","","","","60fc54305e6e0e773a9e6c17&order=&STUDY_ID=61f02a8661f82b834564f044","33","1","2","win","no-go","0"
"pit-trial","102","597167","0.0-38.0","battery-v0.2","","","1181.7999999970198","h","elianto","#f73b6a7A","32","32","1","0","2031.8999999985099","1","2","","","","","","","60fc54305e6e0e773a9e6c17&order=&STUDY_ID=61f02a8661f82b834564f044","34","3","3","lose","go","0"
"pit-trial","103","600937","0.0-39.0","battery-v0.2","","","915.7000000029802","y","elianto","#3366ff99","32","32","1","+10","1765.7000000029802","1","2","","","","","","","60fc54305e6e0e773a9e6c17&order=&STUDY_ID=61f02a8661f82b834564f044","35","2","1","win","go","0"
"pit-trial","104","605796","0.0-40.0","battery-v0.2","","","-1","m","elianto","#3366ff99","-1","-1","1","+10","","0","2","","","","","","","60fc54305e6e0e773a9e6c17&order=&STUDY_ID=61f02a8661f82b834564f044","36","0","2","win","no-go","0"
"pit-trial","105","610657","0.0-41.0","battery-v0.2","","","-1","r","elianto","#3366ff99","-1","-1","1","+10","","0","2","","","","","","","60fc54305e6e0e773a9e6c17&order=&STUDY_ID=61f02a8661f82b834564f044","37","1","2","win","no-go","0"
"pit-trial","106","615168","0.0-42.0","battery-v0.2","","","1656.5999999940395","h","elianto","#f73b6a7A","32","32","1","0","2506.60000000149","1","2","","","","","","","60fc54305e6e0e773a9e6c17&order=&STUDY_ID=61f02a8661f82b834564f044","38","3","3","lose","go","0"
"pit-trial","107","620023","0.0-43.0","battery-v0.2","","","-1","m","elianto","#3366ff99","-1","-1","1","+10","","0","2","","","","","","","60fc54305e6e0e773a9e6c17&order=&STUDY_ID=61f02a8661f82b834564f044","39","0","2","win","no-go","0"
"pit-trial","108","623669","0.0-44.0","battery-v0.2","","","789.1999999955297","y","elianto","#3366ff99","32","32","1","0","1642.5","1","2","","","","","","","60fc54305e6e0e773a9e6c17&order=&STUDY_ID=61f02a8661f82b834564f044","40","2","1","win","go","1"
"pit-trial","109","628530","0.0-45.0","battery-v0.2","","","-1","m","elianto","#3366ff99","-1","-1","1","+10","","0","2","","","","","","","60fc54305e6e0e773a9e6c17&order=&STUDY_ID=61f02a8661f82b834564f044","41","0","2","win","no-go","0"
"pit-trial","110","632548","0.0-46.0","battery-v0.2","","","1160.3000000044703","y","elianto","#3366ff99","32","32","1","+10","2010.7000000029802","1","2","","","","","","","60fc54305e6e0e773a9e6c17&order=&STUDY_ID=61f02a8661f82b834564f044","42","2","1","win","go","0"
"pit-trial","111","637406","0.0-47.0","battery-v0.2","","","-1","r","elianto","#3366ff99","-1","-1","1","0","","0","2","","","","","","","60fc54305e6e0e773a9e6c17&order=&STUDY_ID=61f02a8661f82b834564f044","43","1","2","win","no-go","1"
"pit-trial","112","641093","0.0-48.0","battery-v0.2","","","826","h","elianto","#f73b6a7A","32","32","1","-10","1677.8000000044703","1","2","","","","","","","60fc54305e6e0e773a9e6c17&order=&STUDY_ID=61f02a8661f82b834564f044","44","3","3","lose","go","1"
"pit-trial","113","645956","0.0-49.0","battery-v0.2","","","-1","m","elianto","#3366ff99","-1","-1","1","+10","","0","2","","","","","","","60fc54305e6e0e773a9e6c17&order=&STUDY_ID=61f02a8661f82b834564f044","45","0","2","win","no-go","0"
"pit-trial","114","649750","0.0-50.0","battery-v0.2","","","934.6000000014901","h","elianto","#f73b6a7A","32","32","1","0","1786.7999999970198","1","2","","","","","","","60fc54305e6e0e773a9e6c17&order=&STUDY_ID=61f02a8661f82b834564f044","46","3","3","lose","go","0"
"pit-trial","115","654613","0.0-51.0","battery-v0.2","","","-1","r","elianto","#3366ff99","-1","-1","1","0","","0","2","","","","","","","60fc54305e6e0e773a9e6c17&order=&STUDY_ID=61f02a8661f82b834564f044","47","1","2","win","no-go","1"
"pit-trial","116","658464","0.0-52.0","battery-v0.2","","","994","y","elianto","#3366ff99","32","32","1","0","1845.6000000014901","1","2","","","","","","","60fc54305e6e0e773a9e6c17&order=&STUDY_ID=61f02a8661f82b834564f044","48","2","1","win","go","1"
"pit-trial","117","662023","0.0-53.0","battery-v0.2","","","700.5","y","elianto","#3366ff99","32","32","1","+10","1551.5","1","2","","","","","","","60fc54305e6e0e773a9e6c17&order=&STUDY_ID=61f02a8661f82b834564f044","49","2","1","win","go","0"
"pit-trial","118","666879","0.0-54.0","battery-v0.2","","","-1","r","elianto","#3366ff99","-1","-1","1","+10","","0","2","","","","","","","60fc54305e6e0e773a9e6c17&order=&STUDY_ID=61f02a8661f82b834564f044","50","1","2","win","no-go","0"
"pit-trial","119","670403","0.0-55.0","battery-v0.2","","","666.1000000014901","h","elianto","#f73b6a7A","32","32","1","0","1521.4000000059605","1","2","","","","","","","60fc54305e6e0e773a9e6c17&order=&STUDY_ID=61f02a8661f82b834564f044","51","3","3","lose","go","0"
"pit-trial","120","675261","0.0-56.0","battery-v0.2","","","-1","m","elianto","#3366ff99","-1","-1","1","+10","","0","2","","","","","","","60fc54305e6e0e773a9e6c17&order=&STUDY_ID=61f02a8661f82b834564f044","52","0","2","win","no-go","0"
"pit-trial","121","680122","0.0-57.0","battery-v0.2","","","-1","c","elianto","#f73b6a7A","32","-1","0","-10","","0","2","","","","","","","60fc54305e6e0e773a9e6c17&order=&STUDY_ID=61f02a8661f82b834564f044","53","5","3","lose","go","0"
"pit-trial","122","683790","0.0-58.0","battery-v0.2","","","812.1000000014901","y","elianto","#3366ff99","32","32","1","+10","1662.6000000014901","1","2","","","","","","","60fc54305e6e0e773a9e6c17&order=&STUDY_ID=61f02a8661f82b834564f044","54","2","1","win","go","0"
"pit-trial","123","688309","0.0-59.0","battery-v0.2","","","1664.1999999955297","z","elianto","#f73b6a7A","-1","32","0","-10","2515.39999999851","1","2","","","","","","","60fc54305e6e0e773a9e6c17&order=&STUDY_ID=61f02a8661f82b834564f044","55","4","4","lose","no-go","0"
"pit-trial","124","693168","0.0-60.0","battery-v0.2","","","-1","m","elianto","#3366ff99","-1","-1","1","+10","","0","2","","","","","","","60fc54305e6e0e773a9e6c17&order=&STUDY_ID=61f02a8661f82b834564f044","56","0","2","win","no-go","0"
"pit-trial","125","696741","0.0-61.0","battery-v0.2","","","715.7000000029802","y","elianto","#3366ff99","32","32","1","+10","1568.1000000014901","1","2","","","","","","","60fc54305e6e0e773a9e6c17&order=&STUDY_ID=61f02a8661f82b834564f044","57","2","1","win","go","0"
"pit-trial","126","701603","0.0-62.0","battery-v0.2","","","-1","m","elianto","#3366ff99","-1","-1","1","+10","","0","2","","","","","","","60fc54305e6e0e773a9e6c17&order=&STUDY_ID=61f02a8661f82b834564f044","58","0","2","win","no-go","0"
"pit-trial","127","706398","0.0-63.0","battery-v0.2","","","-1","z","elianto","#f73b6a7A","-1","-1","1","0","","0","2","","","","","","","60fc54305e6e0e773a9e6c17&order=&STUDY_ID=61f02a8661f82b834564f044","59","4","4","lose","no-go","0"
"pit-trial","128","710034","0.0-64.0","battery-v0.2","","","778.8000000044703","c","elianto","#f73b6a7A","32","32","1","0","1628.8999999985099","1","2","","","","","","","60fc54305e6e0e773a9e6c17&order=&STUDY_ID=61f02a8661f82b834564f044","60","5","3","lose","go","0"
"pit-trial","129","714890","0.0-65.0","battery-v0.2","","","-1","z","elianto","#f73b6a7A","-1","-1","1","-10","","0","2","","","","","","","60fc54305e6e0e773a9e6c17&order=&STUDY_ID=61f02a8661f82b834564f044","61","4","4","lose","no-go","1"
"pit-trial","130","718559","0.0-66.0","battery-v0.2","","","809.5999999940395","y","elianto","#3366ff99","32","32","1","+10","1660.8999999985099","1","2","","","","","","","60fc54305e6e0e773a9e6c17&order=&STUDY_ID=61f02a8661f82b834564f044","62","2","1","win","go","0"
"pit-trial","131","723420","0.0-67.0","battery-v0.2","","","-1","b","elianto","#3366ff99","-1","-1","1","+10","","0","2","","","","","","","60fc54305e6e0e773a9e6c17&order=&STUDY_ID=61f02a8661f82b834564f044","63","6","2","win","no-go","0"
"pit-trial","132","727017","0.0-68.0","battery-v0.2","","","740.6000000014901","c","elianto","#f73b6a7A","32","32","1","0","1591.2000000029802","1","2","","","","","","","60fc54305e6e0e773a9e6c17&order=&STUDY_ID=61f02a8661f82b834564f044","64","5","3","lose","go","0"
"pit-trial","133","731875","0.0-69.0","battery-v0.2","","","-1","b","elianto","#3366ff99","-1","-1","1","+10","","0","2","","","","","","","60fc54305e6e0e773a9e6c17&order=&STUDY_ID=61f02a8661f82b834564f044","65","6","2","win","no-go","0"
"pit-trial","134","736736","0.0-70.0","battery-v0.2","","","-1","z","elianto","#f73b6a7A","-1","-1","1","0","","0","2","","","","","","","60fc54305e6e0e773a9e6c17&order=&STUDY_ID=61f02a8661f82b834564f044","66","4","4","lose","no-go","0"
"pit-trial","135","740533","0.0-71.0","battery-v0.2","","","940.8999999985099","y","elianto","#3366ff99","32","32","1","+10","1791.6000000014901","1","2","","","","","","","60fc54305e6e0e773a9e6c17&order=&STUDY_ID=61f02a8661f82b834564f044","67","2","1","win","go","0"
"pit-trial","136","744241","0.0-72.0","battery-v0.2","","","853.2999999970198","c","elianto","#f73b6a7A","32","32","1","0","1703.5","1","2","","","","","","","60fc54305e6e0e773a9e6c17&order=&STUDY_ID=61f02a8661f82b834564f044","68","5","3","lose","go","0"
"pit-trial","137","749098","0.0-73.0","battery-v0.2","","","-1","b","elianto","#3366ff99","-1","-1","1","+10","","0","2","","","","","","","60fc54305e6e0e773a9e6c17&order=&STUDY_ID=61f02a8661f82b834564f044","69","6","2","win","no-go","0"
"pit-trial","138","753601","0.0-74.0","battery-v0.2","","","1642.1999999955297","z","elianto","#f73b6a7A","-1","32","0","0","2499.2999999970198","1","2","","","","","","","60fc54305e6e0e773a9e6c17&order=&STUDY_ID=61f02a8661f82b834564f044","70","4","4","lose","no-go","1"
"pit-trial","139","757193","0.0-75.0","battery-v0.2","","","732","c","elianto","#f73b6a7A","32","32","1","-10","1585.2000000029802","1","2","","","","","","","60fc54305e6e0e773a9e6c17&order=&STUDY_ID=61f02a8661f82b834564f044","71","5","3","lose","go","1"
"pit-trial","140","762054","0.0-76.0","battery-v0.2","","","-1","t","elianto","#f73b6a7A","-1","-1","1","0","","0","2","","","","","","","60fc54305e6e0e773a9e6c17&order=&STUDY_ID=61f02a8661f82b834564f044","72","7","4","lose","no-go","0"
"pit-trial","141","765684","0.0-77.0","battery-v0.2","","","775","c","elianto","#f73b6a7A","32","32","1","0","1625.7000000029802","1","2","","","","","","","60fc54305e6e0e773a9e6c17&order=&STUDY_ID=61f02a8661f82b834564f044","73","5","3","lose","go","0"
"pit-trial","142","769800","0.0-78.0","battery-v0.2","","","1257","z","elianto","#f73b6a7A","-1","32","0","-10","2110.39999999851","1","2","","","","","","","60fc54305e6e0e773a9e6c17&order=&STUDY_ID=61f02a8661f82b834564f044","74","4","4","lose","no-go","0"
"pit-trial","143","774659","0.0-79.0","battery-v0.2","","","-1","t","elianto","#f73b6a7A","-1","-1","1","0","","0","2","","","","","","","60fc54305e6e0e773a9e6c17&order=&STUDY_ID=61f02a8661f82b834564f044","75","7","4","lose","no-go","0"
"pit-trial","144","779520","0.0-80.0","battery-v0.2","","","-1","b","elianto","#3366ff99","-1","-1","1","+10","","0","2","","","","","","","60fc54305e6e0e773a9e6c17&order=&STUDY_ID=61f02a8661f82b834564f044","76","6","2","win","no-go","0"
"pit-trial","145","784379","0.0-81.0","battery-v0.2","","","-1","z","elianto","#f73b6a7A","-1","-1","1","0","","0","2","","","","","","","60fc54305e6e0e773a9e6c17&order=&STUDY_ID=61f02a8661f82b834564f044","77","4","4","lose","no-go","0"
"pit-trial","146","789237","0.0-82.0","battery-v0.2","","","-1","b","elianto","#3366ff99","-1","-1","1","+10","","0","2","","","","","","","60fc54305e6e0e773a9e6c17&order=&STUDY_ID=61f02a8661f82b834564f044","78","6","2","win","no-go","0"
"pit-trial","147","794091","0.0-83.0","battery-v0.2","","","-1","t","elianto","#f73b6a7A","-1","-1","1","0","","0","2","","","","","","","60fc54305e6e0e773a9e6c17&order=&STUDY_ID=61f02a8661f82b834564f044","79","7","4","lose","no-go","0"
"pit-trial","148","798048","0.0-84.0","battery-v0.2","","","1104.1000000014901","c","elianto","#f73b6a7A","32","32","1","0","1954.8999999985099","1","2","","","","","","","60fc54305e6e0e773a9e6c17&order=&STUDY_ID=61f02a8661f82b834564f044","80","5","3","lose","go","0"
"pit-trial","149","802908","0.0-85.0","battery-v0.2","","","-1","z","elianto","#f73b6a7A","-1","-1","1","-10","","0","2","","","","","","","60fc54305e6e0e773a9e6c17&order=&STUDY_ID=61f02a8661f82b834564f044","81","4","4","lose","no-go","1"
"pit-trial","150","807769","0.0-86.0","battery-v0.2","","","-1","t","elianto","#f73b6a7A","-1","-1","1","0","","0","2","","","","","","","60fc54305e6e0e773a9e6c17&order=&STUDY_ID=61f02a8661f82b834564f044","82","7","4","lose","no-go","0"
"pit-trial","151","811419","0.0-87.0","battery-v0.2","","","792.2000000029802","c","elianto","#f73b6a7A","32","32","1","0","1645.1000000014901","1","2","","","","","","","60fc54305e6e0e773a9e6c17&order=&STUDY_ID=61f02a8661f82b834564f044","83","5","3","lose","go","0"
"pit-trial","152","816277","0.0-88.0","battery-v0.2","","","-1","b","elianto","#3366ff99","-1","-1","1","+10","","0","2","","","","","","","60fc54305e6e0e773a9e6c17&order=&STUDY_ID=61f02a8661f82b834564f044","84","6","2","win","no-go","0"
"pit-trial","153","821131","0.0-89.0","battery-v0.2","","","-1","t","elianto","#f73b6a7A","-1","-1","1","0","","0","2","","","","","","","60fc54305e6e0e773a9e6c17&order=&STUDY_ID=61f02a8661f82b834564f044","85","7","4","lose","no-go","0"
"pit-trial","154","825986","0.0-90.0","battery-v0.2","","","-1","b","elianto","#3366ff99","-1","-1","1","+10","","0","2","","","","","","","60fc54305e6e0e773a9e6c17&order=&STUDY_ID=61f02a8661f82b834564f044","86","6","2","win","no-go","0"
"pit-trial","155","830841","0.0-91.0","battery-v0.2","","","-1","z","elianto","#f73b6a7A","-1","-1","1","0","","0","2","","","","","","","60fc54305e6e0e773a9e6c17&order=&STUDY_ID=61f02a8661f82b834564f044","87","4","4","lose","no-go","0"
"pit-trial","156","834513","0.0-92.0","battery-v0.2","","","814.4000000059605","c","elianto","#f73b6a7A","32","32","1","0","1665.3000000044703","1","2","","","","","","","60fc54305e6e0e773a9e6c17&order=&STUDY_ID=61f02a8661f82b834564f044","88","5","3","lose","go","0"
"pit-trial","157","839367","0.0-93.0","battery-v0.2","","","-1","b","elianto","#3366ff99","-1","-1","1","+10","","0","2","","","","","","","60fc54305e6e0e773a9e6c17&order=&STUDY_ID=61f02a8661f82b834564f044","89","6","2","win","no-go","0"
"pit-trial","158","844221","0.0-94.0","battery-v0.2","","","-1","z","elianto","#f73b6a7A","-1","-1","1","-10","","0","2","","","","","","","60fc54305e6e0e773a9e6c17&order=&STUDY_ID=61f02a8661f82b834564f044","90","4","4","lose","no-go","1"
"pit-trial","159","848248","0.0-95.0","battery-v0.2","","","1171.5","c","elianto","#f73b6a7A","32","32","1","0","2024.1000000014901","1","2","","","","","","","60fc54305e6e0e773a9e6c17&order=&STUDY_ID=61f02a8661f82b834564f044","91","5","3","lose","go","0"
"pit-trial","160","853108","0.0-96.0","battery-v0.2","","","-1","t","elianto","#f73b6a7A","-1","-1","1","0","","0","2","","","","","","","60fc54305e6e0e773a9e6c17&order=&STUDY_ID=61f02a8661f82b834564f044","92","7","4","lose","no-go","0"
"pit-trial","161","857968","0.0-97.0","battery-v0.2","","","-1","x","elianto","#f73b6a7A","-1","-1","1","0","","0","2","","","","","","","60fc54305e6e0e773a9e6c17&order=&STUDY_ID=61f02a8661f82b834564f044","93","8","4","lose","no-go","0"
"pit-trial","162","862826","0.0-98.0","battery-v0.2","","","-1","b","elianto","#3366ff99","-1","-1","1","+10","","0","2","","","","","","","60fc54305e6e0e773a9e6c17&order=&STUDY_ID=61f02a8661f82b834564f044","94","6","2","win","no-go","0"
"pit-trial","163","867689","0.0-99.0","battery-v0.2","","","-1","t","elianto","#f73b6a7A","-1","-1","1","0","","0","2","","","","","","","60fc54305e6e0e773a9e6c17&order=&STUDY_ID=61f02a8661f82b834564f044","95","7","4","lose","no-go","0"
"pit-trial","164","871458","0.0-100.0","battery-v0.2","","","911.1000000014901","c","elianto","#f73b6a7A","32","32","1","-10","1765.2999999970198","1","2","","","","","","","60fc54305e6e0e773a9e6c17&order=&STUDY_ID=61f02a8661f82b834564f044","96","5","3","lose","go","1"
"pit-trial","165","876318","0.0-101.0","battery-v0.2","","","-1","x","elianto","#f73b6a7A","-1","-1","1","-10","","0","2","","","","","","","60fc54305e6e0e773a9e6c17&order=&STUDY_ID=61f02a8661f82b834564f044","97","8","4","lose","no-go","1"
"pit-trial","166","881172","0.0-102.0","battery-v0.2","","","-1","b","elianto","#3366ff99","-1","-1","1","+10","","0","2","","","","","","","60fc54305e6e0e773a9e6c17&order=&STUDY_ID=61f02a8661f82b834564f044","98","6","2","win","no-go","0"
"pit-trial","167","885466","0.0-103.0","battery-v0.2","","","1439","c","elianto","#f73b6a7A","32","32","1","-10","2291.10000000149","1","2","","","","","","","60fc54305e6e0e773a9e6c17&order=&STUDY_ID=61f02a8661f82b834564f044","99","5","3","lose","go","1"
"pit-trial","168","890323","0.0-104.0","battery-v0.2","","","-1","t","elianto","#f73b6a7A","-1","-1","1","-10","","0","2","","","","","","","60fc54305e6e0e773a9e6c17&order=&STUDY_ID=61f02a8661f82b834564f044","100","7","4","lose","no-go","1"
"pit-trial","169","894589","0.0-105.0","battery-v0.2","","","1406.3000000044703","n","elianto","#f73b6a7A","32","32","1","0","2258.5","1","2","","","","","","","60fc54305e6e0e773a9e6c17&order=&STUDY_ID=61f02a8661f82b834564f044","101","10","3","lose","go","0"
"pit-trial","170","899450","0.0-106.0","battery-v0.2","","","-1","b","elianto","#3366ff99","-1","-1","1","+10","","0","2","","","","","","","60fc54305e6e0e773a9e6c17&order=&STUDY_ID=61f02a8661f82b834564f044","102","6","2","win","no-go","0"
"pit-trial","171","904307","0.0-107.0","battery-v0.2","","","-1","f","elianto","#3366ff99","32","-1","0","0","","0","2","","","","","","","60fc54305e6e0e773a9e6c17&order=&STUDY_ID=61f02a8661f82b834564f044","103","9","1","win","go","0"
"pit-trial","172","909165","0.0-108.0","battery-v0.2","","","-1","x","elianto","#f73b6a7A","-1","-1","1","0","","0","2","","","","","","","60fc54305e6e0e773a9e6c17&order=&STUDY_ID=61f02a8661f82b834564f044","104","8","4","lose","no-go","0"
"pit-trial","173","913005","0.0-109.0","battery-v0.2","","","981.6000000014901","n","elianto","#f73b6a7A","32","32","1","0","1832.1000000014901","1","2","","","","","","","60fc54305e6e0e773a9e6c17&order=&STUDY_ID=61f02a8661f82b834564f044","105","10","3","lose","go","0"
"pit-trial","174","917867","0.0-110.0","battery-v0.2","","","-1","f","elianto","#3366ff99","32","-1","0","0","","0","2","","","","","","","60fc54305e6e0e773a9e6c17&order=&STUDY_ID=61f02a8661f82b834564f044","106","9","1","win","go","0"
"pit-trial","175","922729","0.0-111.0","battery-v0.2","","","-1","x","elianto","#f73b6a7A","-1","-1","1","-10","","0","2","","","","","","","60fc54305e6e0e773a9e6c17&order=&STUDY_ID=61f02a8661f82b834564f044","107","8","4","lose","no-go","1"
"pit-trial","176","927587","0.0-112.0","battery-v0.2","","","-1","b","elianto","#3366ff99","-1","-1","1","+10","","0","2","","","","","","","60fc54305e6e0e773a9e6c17&order=&STUDY_ID=61f02a8661f82b834564f044","108","6","2","win","no-go","0"
"pit-trial","177","931392","0.0-113.0","battery-v0.2","","","947.5","n","elianto","#f73b6a7A","32","32","1","0","1797.8999999985099","1","2","","","","","","","60fc54305e6e0e773a9e6c17&order=&STUDY_ID=61f02a8661f82b834564f044","109","10","3","lose","go","0"
"pit-trial","178","935686","0.0-114.0","battery-v0.2","","","1435.1000000014901","q","elianto","#3366ff99","32","32","1","0","2286.1999999955297","1","2","","","","","","","60fc54305e6e0e773a9e6c17&order=&STUDY_ID=61f02a8661f82b834564f044","110","11","1","win","go","1"
"pit-trial","179","939485","0.0-115.0","battery-v0.2","","","945.2000000029802","f","elianto","#3366ff99","32","32","1","+10","1796.5","1","2","","","","","","","60fc54305e6e0e773a9e6c17&order=&STUDY_ID=61f02a8661f82b834564f044","111","9","1","win","go","0"
"pit-trial","180","943241","0.0-116.0","battery-v0.2","","","897.3999999985099","x","elianto","#f73b6a7A","-1","32","0","-10","1748.1999999955297","1","2","","","","","","","60fc54305e6e0e773a9e6c17&order=&STUDY_ID=61f02a8661f82b834564f044","112","8","4","lose","no-go","0"
"pit-trial","181","947413","0.0-117.0","battery-v0.2","","","1314","x","elianto","#f73b6a7A","-1","32","0","-10","2167.7000000029802","1","2","","","","","","","60fc54305e6e0e773a9e6c17&order=&STUDY_ID=61f02a8661f82b834564f044","113","8","4","lose","no-go","0"
"pit-trial","182","951050","0.0-118.0","battery-v0.2","","","779.7999999970198","n","elianto","#f73b6a7A","32","32","1","-10","1630.0999999940395","1","2","","","","","","","60fc54305e6e0e773a9e6c17&order=&STUDY_ID=61f02a8661f82b834564f044","114","10","3","lose","go","1"
"pit-trial","183","954735","0.0-119.0","battery-v0.2","","","828.5","f","elianto","#3366ff99","32","32","1","0","1679.3000000044703","1","2","","","","","","","60fc54305e6e0e773a9e6c17&order=&STUDY_ID=61f02a8661f82b834564f044","115","9","1","win","go","1"
"pit-trial","184","958634","0.0-120.0","battery-v0.2","","","1041.3999999985099","q","elianto","#3366ff99","32","32","1","+10","1892.1000000014901","1","2","","","","","","","60fc54305e6e0e773a9e6c17&order=&STUDY_ID=61f02a8661f82b834564f044","116","11","1","win","go","0"
"pit-trial","185","962634","0.0-121.0","battery-v0.2","","","1142.5","n","elianto","#f73b6a7A","32","32","1","0","1992.7999999970198","1","2","","","","","","","60fc54305e6e0e773a9e6c17&order=&STUDY_ID=61f02a8661f82b834564f044","117","10","3","lose","go","0"
"pit-trial","186","966566","0.0-122.0","battery-v0.2","","","1073.5","q","elianto","#3366ff99","32","32","1","+10","1924.4000000059605","1","2","","","","","","","60fc54305e6e0e773a9e6c17&order=&STUDY_ID=61f02a8661f82b834564f044","118","11","1","win","go","0"
"pit-trial","187","971419","0.0-123.0","battery-v0.2","","","-1","x","elianto","#f73b6a7A","-1","-1","1","0","","0","2","","","","","","","60fc54305e6e0e773a9e6c17&order=&STUDY_ID=61f02a8661f82b834564f044","119","8","4","lose","no-go","0"
"pit-trial","188","975176","0.0-124.0","battery-v0.2","","","898.8999999985099","f","elianto","#3366ff99","32","32","1","+10","1749.2999999970198","1","2","","","","","","","60fc54305e6e0e773a9e6c17&order=&STUDY_ID=61f02a8661f82b834564f044","120","9","1","win","go","0"
"pit-trial","189","978890","0.0-125.0","battery-v0.2","","","855.8999999985099","q","elianto","#3366ff99","32","32","1","+10","1707.2999999970198","1","2","","","","","","","60fc54305e6e0e773a9e6c17&order=&STUDY_ID=61f02a8661f82b834564f044","121","11","1","win","go","0"
"pit-trial","190","982578","0.0-126.0","battery-v0.2","","","831","f","elianto","#3366ff99","32","32","1","+10","1682.7000000029802","1","2","","","","","","","60fc54305e6e0e773a9e6c17&order=&STUDY_ID=61f02a8661f82b834564f044","122","9","1","win","go","0"
"pit-trial","191","987435","0.0-127.0","battery-v0.2","","","-1","x","elianto","#f73b6a7A","-1","-1","1","0","","0","2","","","","","","","60fc54305e6e0e773a9e6c17&order=&STUDY_ID=61f02a8661f82b834564f044","123","8","4","lose","no-go","0"
"pit-trial","192","990964","0.0-128.0","battery-v0.2","","","670.2000000029802","n","elianto","#f73b6a7A","32","32","1","0","1521.3000000044703","1","2","","","","","","","60fc54305e6e0e773a9e6c17&order=&STUDY_ID=61f02a8661f82b834564f044","124","10","3","lose","go","0"
"pit-trial","193","995821","0.0-129.0","battery-v0.2","","","-1","x","elianto","#f73b6a7A","-1","-1","1","0","","0","2","","","","","","","60fc54305e6e0e773a9e6c17&order=&STUDY_ID=61f02a8661f82b834564f044","125","8","4","lose","no-go","0"
"pit-trial","194","999472","0.0-130.0","battery-v0.2","","","793.8000000044703","n","elianto","#f73b6a7A","32","32","1","0","1644.3000000044703","1","2","","","","","","","60fc54305e6e0e773a9e6c17&order=&STUDY_ID=61f02a8661f82b834564f044","126","10","3","lose","go","0"
"pit-trial","195","1003049","0.0-131.0","battery-v0.2","","","721.2000000029802","q","elianto","#3366ff99","32","32","1","+10","1573.2000000029802","1","2","","","","","","","60fc54305e6e0e773a9e6c17&order=&STUDY_ID=61f02a8661f82b834564f044","127","11","1","win","go","0"
"pit-trial","196","1006744","0.0-132.0","battery-v0.2","","","840.9000000059605","f","elianto","#3366ff99","32","32","1","+10","1691.4000000059605","1","2","","","","","","","60fc54305e6e0e773a9e6c17&order=&STUDY_ID=61f02a8661f82b834564f044","128","9","1","win","go","0"
"pit-trial","197","1010931","0.0-133.0","battery-v0.2","","","1330.7999999970198","n","elianto","#f73b6a7A","32","32","1","0","2183.7999999970198","1","2","","","","","","","60fc54305e6e0e773a9e6c17&order=&STUDY_ID=61f02a8661f82b834564f044","129","10","3","lose","go","0"
"pit-trial","198","1014518","0.0-134.0","battery-v0.2","","","729.6000000014901","q","elianto","#3366ff99","32","32","1","+10","1580.3999999985099","1","2","","","","","","","60fc54305e6e0e773a9e6c17&order=&STUDY_ID=61f02a8661f82b834564f044","130","11","1","win","go","0"
"pit-trial","199","1019376","0.0-135.0","battery-v0.2","","","-1","x","elianto","#f73b6a7A","-1","-1","1","0","","0","2","","","","","","","60fc54305e6e0e773a9e6c17&order=&STUDY_ID=61f02a8661f82b834564f044","131","8","4","lose","no-go","0"
"pit-trial","200","1023054","0.0-136.0","battery-v0.2","","","819.1000000014901","f","elianto","#3366ff99","32","32","1","+10","1671.3999999985099","1","2","","","","","","","60fc54305e6e0e773a9e6c17&order=&STUDY_ID=61f02a8661f82b834564f044","132","9","1","win","go","0"
"pit-trial","201","1026817","0.0-137.0","battery-v0.2","","","907.2999999970198","n","elianto","#f73b6a7A","32","32","1","0","1758.1000000014901","1","2","","","","","","","60fc54305e6e0e773a9e6c17&order=&STUDY_ID=61f02a8661f82b834564f044","133","10","3","lose","go","0"
"pit-trial","202","1031678","0.0-138.0","battery-v0.2","","","-1","x","elianto","#f73b6a7A","-1","-1","1","0","","0","2","","","","","","","60fc54305e6e0e773a9e6c17&order=&STUDY_ID=61f02a8661f82b834564f044","134","8","4","lose","no-go","0"
"pit-trial","203","1035752","0.0-139.0","battery-v0.2","","","1217","f","elianto","#3366ff99","32","32","1","+10","2068.7000000029802","1","2","","","","","","","60fc54305e6e0e773a9e6c17&order=&STUDY_ID=61f02a8661f82b834564f044","135","9","1","win","go","0"
"pit-trial","204","1039308","0.0-140.0","battery-v0.2","","","698","q","elianto","#3366ff99","32","32","1","+10","1548.3999999985099","1","2","","","","","","","60fc54305e6e0e773a9e6c17&order=&STUDY_ID=61f02a8661f82b834564f044","136","11","1","win","go","0"
"pit-trial","205","1044163","0.0-141.0","battery-v0.2","","","-1","x","elianto","#f73b6a7A","-1","-1","1","0","","0","2","","","","","","","60fc54305e6e0e773a9e6c17&order=&STUDY_ID=61f02a8661f82b834564f044","137","8","4","lose","no-go","0"
"pit-trial","206","1047792","0.0-142.0","battery-v0.2","","","770.1000000014901","q","elianto","#3366ff99","32","32","1","0","1621.9000000059605","1","2","","","","","","","60fc54305e6e0e773a9e6c17&order=&STUDY_ID=61f02a8661f82b834564f044","138","11","1","win","go","1"
"pit-trial","207","1052650","0.0-143.0","battery-v0.2","","","-1","f","elianto","#3366ff99","32","-1","0","0","","0","2","","","","","","","60fc54305e6e0e773a9e6c17&order=&STUDY_ID=61f02a8661f82b834564f044","139","9","1","win","go","0"
"pit-trial","208","1056375","0.0-144.0","battery-v0.2","","","868.6000000014901","n","elianto","#f73b6a7A","32","32","1","0","1719.8000000044703","1","2","","","","","","","60fc54305e6e0e773a9e6c17&order=&STUDY_ID=61f02a8661f82b834564f044","140","10","3","lose","go","0"
"pit-instructions","209","2169382","0.0-145.0","battery-v0.2","","[{""page_index"":0,""viewing_time"":659452.1000000015},{""page_index"":1,""viewing_time"":345302.200000003},{""page_index"":0,""viewing_time"":101791.59999999404},{""page_index"":1,""viewing_time"":6485.70000000298}]","1113032","","","","","","","","","","","","","","","","","","","","","","",""
"pit-trial","210","2173068","0.0-146.0","battery-v0.2","","","825.6000000014901","g","elianto","#3366ff99","32","32","1","+10","1676.3000000044703","1","3","","","","","","","60fc54305e6e0e773a9e6c17&order=&STUDY_ID=61f02a8661f82b834564f044","141","3","1","win","go","0"
"pit-trial","211","2177925","0.0-147.0","battery-v0.2","","","-1","a","elianto","#f73b6a7A","-1","-1","1","0","","0","3","","","","","","","60fc54305e6e0e773a9e6c17&order=&STUDY_ID=61f02a8661f82b834564f044","142","2","4","lose","no-go","0"
"pit-trial","212","2181905","0.0-148.0","battery-v0.2","","","1125.6000000014901","l","elianto","#f73b6a7A","32","32","1","-10","1976.3999999985099","1","3","","","","","","","60fc54305e6e0e773a9e6c17&order=&STUDY_ID=61f02a8661f82b834564f044","143","1","3","lose","go","1"
"pit-trial","213","2185627","0.0-149.0","battery-v0.2","","","867.5999999940395","u","elianto","#3366ff99","-1","32","0","0","1718.2999999970198","1","3","","","","","","","60fc54305e6e0e773a9e6c17&order=&STUDY_ID=61f02a8661f82b834564f044","144","0","2","win","no-go","0"
"pit-trial","214","2189137","0.0-150.0","battery-v0.2","","","652.3999999985099","g","elianto","#3366ff99","32","32","1","+10","1502.6000000014901","1","3","","","","","","","60fc54305e6e0e773a9e6c17&order=&STUDY_ID=61f02a8661f82b834564f044","145","3","1","win","go","0"
"pit-trial","215","2193996","0.0-151.0","battery-v0.2","","","-1","a","elianto","#f73b6a7A","-1","-1","1","0","","0","3","","","","","","","60fc54305e6e0e773a9e6c17&order=&STUDY_ID=61f02a8661f82b834564f044","146","2","4","lose","no-go","0"
"pit-trial","216","2198181","0.0-152.0","battery-v0.2","","","1330.5","u","elianto","#3366ff99","-1","32","0","0","2181.9000000059605","1","3","","","","","","","60fc54305e6e0e773a9e6c17&order=&STUDY_ID=61f02a8661f82b834564f044","147","0","2","win","no-go","0"
"pit-trial","217","2203040","0.0-153.0","battery-v0.2","","","-1","l","elianto","#f73b6a7A","32","-1","0","-10","","0","3","","","","","","","60fc54305e6e0e773a9e6c17&order=&STUDY_ID=61f02a8661f82b834564f044","148","1","3","lose","go","0"
"pit-trial","218","2207903","0.0-154.0","battery-v0.2","","","-1","a","elianto","#f73b6a7A","-1","-1","1","0","","0","3","","","","","","","60fc54305e6e0e773a9e6c17&order=&STUDY_ID=61f02a8661f82b834564f044","149","2","4","lose","no-go","0"
"pit-trial","219","2211468","0.0-155.0","battery-v0.2","","","710.5","g","elianto","#3366ff99","32","32","1","+10","1560.8000000044703","1","3","","","","","","","60fc54305e6e0e773a9e6c17&order=&STUDY_ID=61f02a8661f82b834564f044","150","3","1","win","go","0"
"pit-trial","220","2216328","0.0-156.0","battery-v0.2","","","-1","u","elianto","#3366ff99","-1","-1","1","+10","","0","3","","","","","","","60fc54305e6e0e773a9e6c17&order=&STUDY_ID=61f02a8661f82b834564f044","151","0","2","win","no-go","0"
"pit-trial","221","2220197","0.0-157.0","battery-v0.2","","","1013.5","l","elianto","#f73b6a7A","32","32","1","-10","1864.2999999970198","1","3","","","","","","","60fc54305e6e0e773a9e6c17&order=&STUDY_ID=61f02a8661f82b834564f044","152","1","3","lose","go","1"
"pit-trial","222","2225052","0.0-158.0","battery-v0.2","","","-1","u","elianto","#3366ff99","-1","-1","1","0","","0","3","","","","","","","60fc54305e6e0e773a9e6c17&order=&STUDY_ID=61f02a8661f82b834564f044","153","0","2","win","no-go","1"
"pit-trial","223","2228786","0.0-159.0","battery-v0.2","","","868.7999999970198","l","elianto","#f73b6a7A","32","32","1","0","1725.7000000029802","1","3","","","","","","","60fc54305e6e0e773a9e6c17&order=&STUDY_ID=61f02a8661f82b834564f044","154","1","3","lose","go","0"
"pit-trial","224","2232700","0.0-160.0","battery-v0.2","","","1055.7999999970198","g","elianto","#3366ff99","32","32","1","+10","1907","1","3","","","","","","","60fc54305e6e0e773a9e6c17&order=&STUDY_ID=61f02a8661f82b834564f044","155","3","1","win","go","0"
"pit-trial","225","2237555","0.0-161.0","battery-v0.2","","","-1","a","elianto","#f73b6a7A","-1","-1","1","0","","0","3","","","","","","","60fc54305e6e0e773a9e6c17&order=&STUDY_ID=61f02a8661f82b834564f044","156","2","4","lose","no-go","0"
"pit-trial","226","2241069","0.0-162.0","battery-v0.2","","","659.4000000059605","g","elianto","#3366ff99","32","32","1","+10","1509.8000000044703","1","3","","","","","","","60fc54305e6e0e773a9e6c17&order=&STUDY_ID=61f02a8661f82b834564f044","157","3","1","win","go","0"
"pit-trial","227","2244673","0.0-163.0","battery-v0.2","","","750.8999999985099","l","elianto","#f73b6a7A","32","32","1","0","1601.2000000029802","1","3","","","","","","","60fc54305e6e0e773a9e6c17&order=&STUDY_ID=61f02a8661f82b834564f044","158","1","3","lose","go","0"
"pit-trial","228","2249529","0.0-164.0","battery-v0.2","","","-1","a","elianto","#f73b6a7A","-1","-1","1","0","","0","3","","","","","","","60fc54305e6e0e773a9e6c17&order=&STUDY_ID=61f02a8661f82b834564f044","159","2","4","lose","no-go","0"
"pit-trial","229","2254386","0.0-165.0","battery-v0.2","","","-1","u","elianto","#3366ff99","-1","-1","1","+10","","0","3","","","","","","","60fc54305e6e0e773a9e6c17&order=&STUDY_ID=61f02a8661f82b834564f044","160","0","2","win","no-go","0"
"pit-trial","230","2259244","0.0-166.0","battery-v0.2","","","-1","u","elianto","#3366ff99","-1","-1","1","+10","","0","3","","","","","","","60fc54305e6e0e773a9e6c17&order=&STUDY_ID=61f02a8661f82b834564f044","161","0","2","win","no-go","0"
"pit-trial","231","2264102","0.0-167.0","battery-v0.2","","","-1","l","elianto","#f73b6a7A","32","-1","0","-10","","0","3","","","","","","","60fc54305e6e0e773a9e6c17&order=&STUDY_ID=61f02a8661f82b834564f044","162","1","3","lose","go","0"
"pit-trial","232","2268961","0.0-168.0","battery-v0.2","","","-1","a","elianto","#f73b6a7A","-1","-1","1","0","","0","3","","","","","","","60fc54305e6e0e773a9e6c17&order=&STUDY_ID=61f02a8661f82b834564f044","163","2","4","lose","no-go","0"
"pit-trial","233","2272807","0.0-169.0","battery-v0.2","","","992.2000000029802","g","elianto","#3366ff99","32","32","1","+10","1843","1","3","","","","","","","60fc54305e6e0e773a9e6c17&order=&STUDY_ID=61f02a8661f82b834564f044","164","3","1","win","go","0"
"pit-trial","234","2277668","0.0-170.0","battery-v0.2","","","-1","u","elianto","#3366ff99","-1","-1","1","0","","0","3","","","","","","","60fc54305e6e0e773a9e6c17&order=&STUDY_ID=61f02a8661f82b834564f044","165","0","2","win","no-go","1"
"pit-trial","235","2282524","0.0-171.0","battery-v0.2","","","1998.7999999970198","l","elianto","#f73b6a7A","32","32","1","0","2849.60000000149","1","3","","","","","","","60fc54305e6e0e773a9e6c17&order=&STUDY_ID=61f02a8661f82b834564f044","166","1","3","lose","go","0"
"pit-trial","236","2287385","0.0-172.0","battery-v0.2","","","-1","a","elianto","#f73b6a7A","-1","-1","1","0","","0","3","","","","","","","60fc54305e6e0e773a9e6c17&order=&STUDY_ID=61f02a8661f82b834564f044","167","2","4","lose","no-go","0"
"pit-trial","237","2291006","0.0-173.0","battery-v0.2","","","766.8999999985099","g","elianto","#3366ff99","32","32","1","+10","1617.6000000014901","1","3","","","","","","","60fc54305e6e0e773a9e6c17&order=&STUDY_ID=61f02a8661f82b834564f044","168","3","1","win","go","0"
"pit-trial","238","2295862","0.0-174.0","battery-v0.2","","","-1","u","elianto","#3366ff99","-1","-1","1","0","","0","3","","","","","","","60fc54305e6e0e773a9e6c17&order=&STUDY_ID=61f02a8661f82b834564f044","169","0","2","win","no-go","1"
"pit-trial","239","2300720","0.0-175.0","battery-v0.2","","","-1","a","elianto","#f73b6a7A","-1","-1","1","0","","0","3","","","","","","","60fc54305e6e0e773a9e6c17&order=&STUDY_ID=61f02a8661f82b834564f044","170","2","4","lose","no-go","0"
"pit-trial","240","2304246","0.0-176.0","battery-v0.2","","","665.1999999955297","g","elianto","#3366ff99","32","32","1","+10","1519.1000000014901","1","3","","","","","","","60fc54305e6e0e773a9e6c17&order=&STUDY_ID=61f02a8661f82b834564f044","171","3","1","win","go","0"
"pit-trial","241","2307985","0.0-177.0","battery-v0.2","","","884.2000000029802","l","elianto","#f73b6a7A","32","32","1","0","1734.8999999985099","1","3","","","","","","","60fc54305e6e0e773a9e6c17&order=&STUDY_ID=61f02a8661f82b834564f044","172","1","3","lose","go","0"
"pit-trial","242","2312359","0.0-178.0","battery-v0.2","","","1518.2000000029802","s","elianto","#f73b6a7A","-1","32","0","0","2369.7000000029802","1","3","","","","","","","60fc54305e6e0e773a9e6c17&order=&STUDY_ID=61f02a8661f82b834564f044","173","5","4","lose","no-go","1"
"pit-trial","243","2316010","0.0-179.0","battery-v0.2","","","793.6999999955297","l","elianto","#f73b6a7A","32","32","1","-10","1643.8999999985099","1","3","","","","","","","60fc54305e6e0e773a9e6c17&order=&STUDY_ID=61f02a8661f82b834564f044","174","1","3","lose","go","1"
"pit-trial","244","2320866","0.0-180.0","battery-v0.2","","","-1","p","elianto","#f73b6a7A","32","-1","0","-10","","0","3","","","","","","","60fc54305e6e0e773a9e6c17&order=&STUDY_ID=61f02a8661f82b834564f044","175","4","3","lose","go","0"
"pit-trial","245","2325728","0.0-181.0","battery-v0.2","","","-1","a","elianto","#f73b6a7A","-1","-1","1","0","","0","3","","","","","","","60fc54305e6e0e773a9e6c17&order=&STUDY_ID=61f02a8661f82b834564f044","176","2","4","lose","no-go","0"
"pit-trial","246","2330581","0.0-182.0","battery-v0.2","","","-1","a","elianto","#f73b6a7A","-1","-1","1","-10","","0","3","","","","","","","60fc54305e6e0e773a9e6c17&order=&STUDY_ID=61f02a8661f82b834564f044","177","2","4","lose","no-go","1"
"pit-trial","247","2334446","0.0-183.0","battery-v0.2","","","1009.2000000029802","s","elianto","#f73b6a7A","-1","32","0","-10","1859.6000000014901","1","3","","","","","","","60fc54305e6e0e773a9e6c17&order=&STUDY_ID=61f02a8661f82b834564f044","178","5","4","lose","no-go","0"
"pit-trial","248","2338194","0.0-184.0","battery-v0.2","","","891.3999999985099","l","elianto","#f73b6a7A","32","32","1","0","1742.8999999985099","1","3","","","","","","","60fc54305e6e0e773a9e6c17&order=&STUDY_ID=61f02a8661f82b834564f044","179","1","3","lose","go","0"
"pit-trial","249","2341978","0.0-185.0","battery-v0.2","","","926.2999999970198","p","elianto","#f73b6a7A","32","32","1","0","1777.2999999970198","1","3","","","","","","","60fc54305e6e0e773a9e6c17&order=&STUDY_ID=61f02a8661f82b834564f044","180","4","3","lose","go","0"
"pit-trial","250","2345646","0.0-186.0","battery-v0.2","","","811.7000000029802","s","elianto","#f73b6a7A","-1","32","0","-10","1661.8000000044703","1","3","","","","","","","60fc54305e6e0e773a9e6c17&order=&STUDY_ID=61f02a8661f82b834564f044","181","5","4","lose","no-go","0"
"pit-trial","251","2350504","0.0-187.0","battery-v0.2","","","-1","a","elianto","#f73b6a7A","-1","-1","1","-10","","0","3","","","","","","","60fc54305e6e0e773a9e6c17&order=&STUDY_ID=61f02a8661f82b834564f044","182","2","4","lose","no-go","1"
"pit-trial","252","2354402","0.0-188.0","battery-v0.2","","","1040.5","p","elianto","#f73b6a7A","32","32","1","-10","1892.5","1","3","","","","","","","60fc54305e6e0e773a9e6c17&order=&STUDY_ID=61f02a8661f82b834564f044","183","4","3","lose","go","1"
"pit-trial","253","2358227","0.0-189.0","battery-v0.2","","","966.5999999940395","w","elianto","#3366ff99","-1","32","0","0","1821.2000000029802","1","3","","","","","","","60fc54305e6e0e773a9e6c17&order=&STUDY_ID=61f02a8661f82b834564f044","184","6","2","win","no-go","0"
"pit-trial","254","2363086","0.0-190.0","battery-v0.2","","","-1","a","elianto","#f73b6a7A","-1","-1","1","0","","0","3","","","","","","","60fc54305e6e0e773a9e6c17&order=&STUDY_ID=61f02a8661f82b834564f044","185","2","4","lose","no-go","0"
"pit-trial","255","2367482","0.0-191.0","battery-v0.2","","","1538.5","s","elianto","#f73b6a7A","-1","32","0","0","2390.7999999970198","1","3","","","","","","","60fc54305e6e0e773a9e6c17&order=&STUDY_ID=61f02a8661f82b834564f044","186","5","4","lose","no-go","1"
"pit-trial","256","2371751","0.0-192.0","battery-v0.2","","","1411.6000000014901","w","elianto","#3366ff99","-1","32","0","+10","2262.10000000149","1","3","","","","","","","60fc54305e6e0e773a9e6c17&order=&STUDY_ID=61f02a8661f82b834564f044","187","6","2","win","no-go","1"
"pit-trial","257","2375764","0.0-193.0","battery-v0.2","","","1154.8999999985099","p","elianto","#f73b6a7A","32","32","1","0","2006.5","1","3","","","","","","","60fc54305e6e0e773a9e6c17&order=&STUDY_ID=61f02a8661f82b834564f044","188","4","3","lose","go","0"
"pit-trial","258","2380627","0.0-194.0","battery-v0.2","","","-1","e","elianto","#3366ff99","32","-1","0","0","","0","3","","","","","","","60fc54305e6e0e773a9e6c17&order=&STUDY_ID=61f02a8661f82b834564f044","189","7","1","win","go","0"
"pit-trial","259","2384561","0.0-195.0","battery-v0.2","","","1076","s","elianto","#f73b6a7A","-1","32","0","0","1926.6000000014901","1","3","","","","","","","60fc54305e6e0e773a9e6c17&order=&STUDY_ID=61f02a8661f82b834564f044","190","5","4","lose","no-go","1"
"pit-trial","260","2388177","0.0-196.0","battery-v0.2","","","763.3000000044703","p","elianto","#f73b6a7A","32","32","1","0","1613.8000000044703","1","3","","","","","","","60fc54305e6e0e773a9e6c17&order=&STUDY_ID=61f02a8661f82b834564f044","191","4","3","lose","go","0"
"pit-trial","261","2391840","0.0-197.0","battery-v0.2","","","808.3999999985099","w","elianto","#3366ff99","-1","32","0","+10","1659","1","3","","","","","","","60fc54305e6e0e773a9e6c17&order=&STUDY_ID=61f02a8661f82b834564f044","192","6","2","win","no-go","1"
"pit-trial","262","2395284","0.0-198.0","battery-v0.2","","","584.8999999985099","p","elianto","#f73b6a7A","32","32","1","0","1437.6999999955297","1","3","","","","","","","60fc54305e6e0e773a9e6c17&order=&STUDY_ID=61f02a8661f82b834564f044","193","4","3","lose","go","0"
"pit-trial","263","2399000","0.0-199.0","battery-v0.2","","","859.6999999955297","s","elianto","#f73b6a7A","-1","32","0","-10","1710.6999999955297","1","3","","","","","","","60fc54305e6e0e773a9e6c17&order=&STUDY_ID=61f02a8661f82b834564f044","194","5","4","lose","no-go","0"
"pit-trial","264","2402647","0.0-200.0","battery-v0.2","","","790.7000000029802","w","elianto","#3366ff99","-1","32","0","0","1641.2999999970198","1","3","","","","","","","60fc54305e6e0e773a9e6c17&order=&STUDY_ID=61f02a8661f82b834564f044","195","6","2","win","no-go","0"
"pit-trial","265","2407506","0.0-201.0","battery-v0.2","","","-1","e","elianto","#3366ff99","32","-1","0","0","","0","3","","","","","","","60fc54305e6e0e773a9e6c17&order=&STUDY_ID=61f02a8661f82b834564f044","196","7","1","win","go","0"
"pit-trial","266","2411092","0.0-202.0","battery-v0.2","","","726.8999999985099","e","elianto","#3366ff99","32","32","1","+10","1578","1","3","","","","","","","60fc54305e6e0e773a9e6c17&order=&STUDY_ID=61f02a8661f82b834564f044","197","7","1","win","go","0"
"pit-trial","267","2415075","0.0-203.0","battery-v0.2","","","1128.2000000029802","s","elianto","#f73b6a7A","-1","32","0","-10","1978.8999999985099","1","3","","","","","","","60fc54305e6e0e773a9e6c17&order=&STUDY_ID=61f02a8661f82b834564f044","198","5","4","lose","no-go","0"
"pit-trial","268","2418715","0.0-204.0","battery-v0.2","","","783.1000000014901","w","elianto","#3366ff99","-1","32","0","0","1637.7000000029802","1","3","","","","","","","60fc54305e6e0e773a9e6c17&order=&STUDY_ID=61f02a8661f82b834564f044","199","6","2","win","no-go","0"
"pit-trial","269","2422454","0.0-205.0","battery-v0.2","","","885.4000000059605","p","elianto","#f73b6a7A","32","32","1","0","1735.6000000014901","1","3","","","","","","","60fc54305e6e0e773a9e6c17&order=&STUDY_ID=61f02a8661f82b834564f044","200","4","3","lose","go","0"
"pit-trial","270","2426091","0.0-206.0","battery-v0.2","","","778.7999999970198","e","elianto","#3366ff99","32","32","1","+10","1629.6000000014901","1","3","","","","","","","60fc54305e6e0e773a9e6c17&order=&STUDY_ID=61f02a8661f82b834564f044","201","7","1","win","go","0"
"pit-trial","271","2429772","0.0-207.0","battery-v0.2","","","821.3999999985099","s","elianto","#f73b6a7A","-1","32","0","-10","1673.6000000014901","1","3","","","","","","","60fc54305e6e0e773a9e6c17&order=&STUDY_ID=61f02a8661f82b834564f044","202","5","4","lose","no-go","0"
"pit-trial","272","2433296","0.0-208.0","battery-v0.2","","","668.6000000014901","w","elianto","#3366ff99","-1","32","0","0","1520.2999999970198","1","3","","","","","","","60fc54305e6e0e773a9e6c17&order=&STUDY_ID=61f02a8661f82b834564f044","203","6","2","win","no-go","0"
"pit-trial","273","2437021","0.0-209.0","battery-v0.2","","","871.1000000014901","p","elianto","#f73b6a7A","32","32","1","-10","1722","1","3","","","","","","","60fc54305e6e0e773a9e6c17&order=&STUDY_ID=61f02a8661f82b834564f044","204","4","3","lose","go","1"
"pit-trial","274","2440608","0.0-210.0","battery-v0.2","","","731.2000000029802","e","elianto","#3366ff99","32","32","1","+10","1582.7000000029802","1","3","","","","","","","60fc54305e6e0e773a9e6c17&order=&STUDY_ID=61f02a8661f82b834564f044","205","7","1","win","go","0"
"pit-trial","275","2444637","0.0-211.0","battery-v0.2","","","1176.0999999940395","p","elianto","#f73b6a7A","32","32","1","0","2027","1","3","","","","","","","60fc54305e6e0e773a9e6c17&order=&STUDY_ID=61f02a8661f82b834564f044","206","4","3","lose","go","0"
"pit-trial","276","2448285","0.0-212.0","battery-v0.2","","","791.8999999985099","w","elianto","#3366ff99","-1","32","0","0","1643.6000000014901","1","3","","","","","","","60fc54305e6e0e773a9e6c17&order=&STUDY_ID=61f02a8661f82b834564f044","207","6","2","win","no-go","0"
"pit-trial","277","2453145","0.0-213.0","battery-v0.2","","","-1","s","elianto","#f73b6a7A","-1","-1","1","0","","0","3","","","","","","","60fc54305e6e0e773a9e6c17&order=&STUDY_ID=61f02a8661f82b834564f044","208","5","4","lose","no-go","0"
"pit-trial","278","2456867","0.0-214.0","battery-v0.2","","","863.5","p","elianto","#f73b6a7A","32","32","1","0","1715","1","3","","","","","","","60fc54305e6e0e773a9e6c17&order=&STUDY_ID=61f02a8661f82b834564f044","209","4","3","lose","go","0"
"pit-trial","279","2460287","0.0-215.0","battery-v0.2","","","567.2000000029802","w","elianto","#3366ff99","-1","32","0","0","1417.5","1","3","","","","","","","60fc54305e6e0e773a9e6c17&order=&STUDY_ID=61f02a8661f82b834564f044","210","6","2","win","no-go","0"
"pit-trial","280","2464273","0.0-216.0","battery-v0.2","","","1127.5","e","elianto","#3366ff99","32","32","1","+10","1978","1","3","","","","","","","60fc54305e6e0e773a9e6c17&order=&STUDY_ID=61f02a8661f82b834564f044","211","7","1","win","go","0"
"pit-trial","281","2469131","0.0-217.0","battery-v0.2","","","-1","s","elianto","#f73b6a7A","-1","-1","1","0","","0","3","","","","","","","60fc54305e6e0e773a9e6c17&order=&STUDY_ID=61f02a8661f82b834564f044","212","5","4","lose","no-go","0"
"pit-trial","282","2472675","0.0-218.0","battery-v0.2","","","685.5","e","elianto","#3366ff99","32","32","1","+10","1536.3999999985099","1","3","","","","","","","60fc54305e6e0e773a9e6c17&order=&STUDY_ID=61f02a8661f82b834564f044","213","7","1","win","go","0"
"pit-trial","283","2477147","0.0-219.0","battery-v0.2","","","1616.0999999940395","p","elianto","#f73b6a7A","32","32","1","0","2468.39999999851","1","3","","","","","","","60fc54305e6e0e773a9e6c17&order=&STUDY_ID=61f02a8661f82b834564f044","214","4","3","lose","go","0"
"pit-trial","284","2480535","0.0-220.0","battery-v0.2","","","530.0999999940395","w","elianto","#3366ff99","-1","32","0","0","1380.6000000014901","1","3","","","","","","","60fc54305e6e0e773a9e6c17&order=&STUDY_ID=61f02a8661f82b834564f044","215","6","2","win","no-go","0"
"pit-trial","285","2484567","0.0-221.0","battery-v0.2","","","1175.8999999985099","k","elianto","#3366ff99","32","32","1","0","2027","1","3","","","","","","","60fc54305e6e0e773a9e6c17&order=&STUDY_ID=61f02a8661f82b834564f044","216","8","1","win","go","1"
"pit-trial","286","2488733","0.0-222.0","battery-v0.2","","","1313.0999999940395","p","elianto","#f73b6a7A","32","32","1","-10","2163.6999999955297","1","3","","","","","","","60fc54305e6e0e773a9e6c17&order=&STUDY_ID=61f02a8661f82b834564f044","217","4","3","lose","go","1"
"pit-trial","287","2492516","0.0-223.0","battery-v0.2","","","930.8000000044703","w","elianto","#3366ff99","-1","32","0","0","1781.1000000014901","1","3","","","","","","","60fc54305e6e0e773a9e6c17&order=&STUDY_ID=61f02a8661f82b834564f044","218","6","2","win","no-go","0"
"pit-trial","288","2497374","0.0-224.0","battery-v0.2","","","-1","k","elianto","#3366ff99","32","-1","0","0","","0","3","","","","","","","60fc54305e6e0e773a9e6c17&order=&STUDY_ID=61f02a8661f82b834564f044","219","8","1","win","go","0"
"pit-trial","289","2501041","0.0-225.0","battery-v0.2","","","811.3999999985099","e","elianto","#3366ff99","32","32","1","+10","1661.8999999985099","1","3","","","","","","","60fc54305e6e0e773a9e6c17&order=&STUDY_ID=61f02a8661f82b834564f044","220","7","1","win","go","0"
"pit-trial","290","2504658","0.0-226.0","battery-v0.2","","","761.8999999985099","w","elianto","#3366ff99","-1","32","0","+10","1613.8000000044703","1","3","","","","","","","60fc54305e6e0e773a9e6c17&order=&STUDY_ID=61f02a8661f82b834564f044","221","6","2","win","no-go","1"
"pit-trial","291","2509520","0.0-227.0","battery-v0.2","","","-1","k","elianto","#3366ff99","32","-1","0","0","","0","3","","","","","","","60fc54305e6e0e773a9e6c17&order=&STUDY_ID=61f02a8661f82b834564f044","222","8","1","win","go","0"
"pit-trial","292","2513032","0.0-228.0","battery-v0.2","","","653.9000000059605","e","elianto","#3366ff99","32","32","1","+10","1504.3000000044703","1","3","","","","","","","60fc54305e6e0e773a9e6c17&order=&STUDY_ID=61f02a8661f82b834564f044","223","7","1","win","go","0"
"pit-trial","293","2517894","0.0-229.0","battery-v0.2","","","-1","d","elianto","#3366ff99","-1","-1","1","+10","","0","3","","","","","","","60fc54305e6e0e773a9e6c17&order=&STUDY_ID=61f02a8661f82b834564f044","224","9","2","win","no-go","0"
"pit-trial","294","2521265","0.0-230.0","battery-v0.2","","","513","e","elianto","#3366ff99","32","32","1","+10","1368.1000000014901","1","3","","","","","","","60fc54305e6e0e773a9e6c17&order=&STUDY_ID=61f02a8661f82b834564f044","225","7","1","win","go","0"
"pit-trial","295","2526123","0.0-231.0","battery-v0.2","","","-1","d","elianto","#3366ff99","-1","-1","1","+10","","0","3","","","","","","","60fc54305e6e0e773a9e6c17&order=&STUDY_ID=61f02a8661f82b834564f044","226","9","2","win","no-go","0"
"pit-trial","296","2530418","0.0-232.0","battery-v0.2","","","1439.7999999970198","w","elianto","#3366ff99","-1","32","0","0","2290.7999999970198","1","3","","","","","","","60fc54305e6e0e773a9e6c17&order=&STUDY_ID=61f02a8661f82b834564f044","227","6","2","win","no-go","0"
"pit-trial","297","2535273","0.0-233.0","battery-v0.2","","","-1","k","elianto","#3366ff99","32","-1","0","0","","0","3","","","","","","","60fc54305e6e0e773a9e6c17&order=&STUDY_ID=61f02a8661f82b834564f044","228","8","1","win","go","0"
"pit-trial","298","2540132","0.0-234.0","battery-v0.2","","","-1","k","elianto","#3366ff99","32","-1","0","+10","","0","3","","","","","","","60fc54305e6e0e773a9e6c17&order=&STUDY_ID=61f02a8661f82b834564f044","229","8","1","win","go","1"
"pit-trial","299","2544342","0.0-235.0","battery-v0.2","","","1344.5","v","elianto","#f73b6a7A","-1","32","0","-10","2202.39999999851","1","3","","","","","","","60fc54305e6e0e773a9e6c17&order=&STUDY_ID=61f02a8661f82b834564f044","230","11","4","lose","no-go","0"
"pit-trial","300","2548640","0.0-236.0","battery-v0.2","","","1440.3000000044703","j","elianto","#f73b6a7A","32","32","1","0","2290.7000000029802","1","3","","","","","","","60fc54305e6e0e773a9e6c17&order=&STUDY_ID=61f02a8661f82b834564f044","231","10","3","lose","go","0"
"pit-trial","301","2553503","0.0-237.0","battery-v0.2","","","-1","d","elianto","#3366ff99","-1","-1","1","0","","0","3","","","","","","","60fc54305e6e0e773a9e6c17&order=&STUDY_ID=61f02a8661f82b834564f044","232","9","2","win","no-go","1"
"pit-trial","302","2558362","0.0-238.0","battery-v0.2","","","-1","k","elianto","#3366ff99","32","-1","0","0","","0","3","","","","","","","60fc54305e6e0e773a9e6c17&order=&STUDY_ID=61f02a8661f82b834564f044","233","8","1","win","go","0"
"pit-trial","303","2563218","0.0-239.0","battery-v0.2","","","-1","v","elianto","#f73b6a7A","-1","-1","1","0","","0","3","","","","","","","60fc54305e6e0e773a9e6c17&order=&STUDY_ID=61f02a8661f82b834564f044","234","11","4","lose","no-go","0"
"pit-trial","304","2567182","0.0-240.0","battery-v0.2","","","1108.1999999955297","j","elianto","#f73b6a7A","32","32","1","-10","1959.0999999940395","1","3","","","","","","","60fc54305e6e0e773a9e6c17&order=&STUDY_ID=61f02a8661f82b834564f044","235","10","3","lose","go","1"
"pit-trial","305","2572045","0.0-241.0","battery-v0.2","","","-1","d","elianto","#3366ff99","-1","-1","1","0","","0","3","","","","","","","60fc54305e6e0e773a9e6c17&order=&STUDY_ID=61f02a8661f82b834564f044","236","9","2","win","no-go","1"
"pit-trial","306","2576901","0.0-242.0","battery-v0.2","","","-1","k","elianto","#3366ff99","32","-1","0","0","","0","3","","","","","","","60fc54305e6e0e773a9e6c17&order=&STUDY_ID=61f02a8661f82b834564f044","237","8","1","win","go","0"
"pit-trial","307","2581756","0.0-243.0","battery-v0.2","","","-1","j","elianto","#f73b6a7A","32","-1","0","0","","0","3","","","","","","","60fc54305e6e0e773a9e6c17&order=&STUDY_ID=61f02a8661f82b834564f044","238","10","3","lose","go","1"
"pit-trial","308","2586617","0.0-244.0","battery-v0.2","","","-1","v","elianto","#f73b6a7A","-1","-1","1","-10","","0","3","","","","","","","60fc54305e6e0e773a9e6c17&order=&STUDY_ID=61f02a8661f82b834564f044","239","11","4","lose","no-go","1"
"pit-trial","309","2591476","0.0-245.0","battery-v0.2","","","-1","d","elianto","#3366ff99","-1","-1","1","+10","","0","3","","","","","","","60fc54305e6e0e773a9e6c17&order=&STUDY_ID=61f02a8661f82b834564f044","240","9","2","win","no-go","0"
"pit-trial","310","2595089","0.0-246.0","battery-v0.2","","","757.7000000029802","v","elianto","#f73b6a7A","-1","32","0","0","1608.8000000044703","1","3","","","","","","","60fc54305e6e0e773a9e6c17&order=&STUDY_ID=61f02a8661f82b834564f044","241","11","4","lose","no-go","1"
"pit-trial","311","2599952","0.0-247.0","battery-v0.2","","","-1","k","elianto","#3366ff99","32","-1","0","0","","0","3","","","","","","","60fc54305e6e0e773a9e6c17&order=&STUDY_ID=61f02a8661f82b834564f044","242","8","1","win","go","0"
"pit-trial","312","2604806","0.0-248.0","battery-v0.2","","","-1","j","elianto","#f73b6a7A","32","-1","0","-10","","0","3","","","","","","","60fc54305e6e0e773a9e6c17&order=&STUDY_ID=61f02a8661f82b834564f044","243","10","3","lose","go","0"
"pit-trial","313","2609659","0.0-249.0","battery-v0.2","","","-1","d","elianto","#3366ff99","-1","-1","1","+10","","0","3","","","","","","","60fc54305e6e0e773a9e6c17&order=&STUDY_ID=61f02a8661f82b834564f044","244","9","2","win","no-go","0"
"pit-trial","314","2614517","0.0-250.0","battery-v0.2","","","-1","v","elianto","#f73b6a7A","-1","-1","1","0","","0","3","","","","","","","60fc54305e6e0e773a9e6c17&order=&STUDY_ID=61f02a8661f82b834564f044","245","11","4","lose","no-go","0"
"pit-trial","315","2619373","0.0-251.0","battery-v0.2","","","-1","k","elianto","#3366ff99","32","-1","0","+10","","0","3","","","","","","","60fc54305e6e0e773a9e6c17&order=&STUDY_ID=61f02a8661f82b834564f044","246","8","1","win","go","1"
"pit-trial","316","2624227","0.0-252.0","battery-v0.2","","","-1","d","elianto","#3366ff99","-1","-1","1","+10","","0","3","","","","","","","60fc54305e6e0e773a9e6c17&order=&STUDY_ID=61f02a8661f82b834564f044","247","9","2","win","no-go","0"
"pit-trial","317","2627905","0.0-253.0","battery-v0.2","","","821.6000000014901","j","elianto","#f73b6a7A","32","32","1","0","1672.4000000059605","1","3","","","","","","","60fc54305e6e0e773a9e6c17&order=&STUDY_ID=61f02a8661f82b834564f044","248","10","3","lose","go","0"
"pit-trial","318","2632763","0.0-254.0","battery-v0.2","","","-1","d","elianto","#3366ff99","-1","-1","1","+10","","0","3","","","","","","","60fc54305e6e0e773a9e6c17&order=&STUDY_ID=61f02a8661f82b834564f044","249","9","2","win","no-go","0"
"pit-trial","319","2637618","0.0-255.0","battery-v0.2","","","-1","k","elianto","#3366ff99","32","-1","0","0","","0","3","","","","","","","60fc54305e6e0e773a9e6c17&order=&STUDY_ID=61f02a8661f82b834564f044","250","8","1","win","go","0"
"pit-trial","320","2641281","0.0-256.0","battery-v0.2","","","806.2000000029802","j","elianto","#f73b6a7A","32","32","1","0","1658.8000000044703","1","3","","","","","","","60fc54305e6e0e773a9e6c17&order=&STUDY_ID=61f02a8661f82b834564f044","251","10","3","lose","go","0"
"pit-trial","321","2644943","0.0-257.0","battery-v0.2","","","801.2000000029802","v","elianto","#f73b6a7A","-1","32","0","-10","1653.8999999985099","1","3","","","","","","","60fc54305e6e0e773a9e6c17&order=&STUDY_ID=61f02a8661f82b834564f044","252","11","4","lose","no-go","0"
"pit-trial","322","2649799","0.0-258.0","battery-v0.2","","","-1","d","elianto","#3366ff99","-1","-1","1","+10","","0","3","","","","","","","60fc54305e6e0e773a9e6c17&order=&STUDY_ID=61f02a8661f82b834564f044","253","9","2","win","no-go","0"
"pit-trial","323","2654660","0.0-259.0","battery-v0.2","","","-1","k","elianto","#3366ff99","32","-1","0","0","","0","3","","","","","","","60fc54305e6e0e773a9e6c17&order=&STUDY_ID=61f02a8661f82b834564f044","254","8","1","win","go","0"
"pit-trial","324","2659514","0.0-260.0","battery-v0.2","","","-1","v","elianto","#f73b6a7A","-1","-1","1","0","","0","3","","","","","","","60fc54305e6e0e773a9e6c17&order=&STUDY_ID=61f02a8661f82b834564f044","255","11","4","lose","no-go","0"
"pit-trial","325","2663654","0.0-261.0","battery-v0.2","","","1282.7000000029802","j","elianto","#f73b6a7A","32","32","1","0","2132.89999999851","1","3","","","","","","","60fc54305e6e0e773a9e6c17&order=&STUDY_ID=61f02a8661f82b834564f044","256","10","3","lose","go","0"
"pit-trial","326","2668512","0.0-262.0","battery-v0.2","","","-1","k","elianto","#3366ff99","32","-1","0","0","","0","3","","","","","","","60fc54305e6e0e773a9e6c17&order=&STUDY_ID=61f02a8661f82b834564f044","257","8","1","win","go","0"
"pit-trial","327","2673375","0.0-263.0","battery-v0.2","","","-1","v","elianto","#f73b6a7A","-1","-1","1","0","","0","3","","","","","","","60fc54305e6e0e773a9e6c17&order=&STUDY_ID=61f02a8661f82b834564f044","258","11","4","lose","no-go","0"
"pit-trial","328","2678234","0.0-264.0","battery-v0.2","","","-1","d","elianto","#3366ff99","-1","-1","1","0","","0","3","","","","","","","60fc54305e6e0e773a9e6c17&order=&STUDY_ID=61f02a8661f82b834564f044","259","9","2","win","no-go","1"
"pit-trial","329","2682287","0.0-265.0","battery-v0.2","","","1196","j","elianto","#f73b6a7A","32","32","1","0","2046.2999999970198","1","3","","","","","","","60fc54305e6e0e773a9e6c17&order=&STUDY_ID=61f02a8661f82b834564f044","260","10","3","lose","go","0"
