"trial_type","trial_index","time_elapsed","internal_node_id","task_version","success","view_history","rt","responses","num_errors","age","subject","participantId","rune","rune_set","hex","correct","choice","accuracy","outcome","keys","total_keys","block","practice","value","sub","trial","stimulus","robot","valence","action","sham","browser_interactions"
"pavlovia","0","6","0.0-0.0","battery-v0.2","","","","","","","","","","","","","","","","","","","","","","","","","","","",""
"fullscreen","1","4585","0.0-1.0","battery-v0.2","true","","","","","","","","","","","","","","","","","","","","","","","","","","",""
"pit-instructions","2","9613","0.0-2.0-0.0","battery-v0.2","","[{""page_index"":0,""viewing_time"":5023.79999999702}]","5024.4000000059605","","","","","","","","","","","","","","","","","","","","","","","","",""
"pit-comprehension","3","12278","0.0-2.0-1.0-0.0","battery-v0.2","","","2659.2000000029802","[""shark""]","0","20","847","14","","","","","","","","","","","","","","","","","","","",""
"pit-instructions","4","17936","0.0-2.0-1.0-1.0","battery-v0.2","","[{""page_index"":0,""viewing_time"":5638.5999999940395}]","5639.399999991059","","","","","","","","","","","","","","","","","","","","","","","","",""
"pit-comprehension","5","23476","0.0-2.0-2.0-0.0","battery-v0.2","","","5519.9000000059605","[""tiger""]","0","20","847","14","","","","","","","","","","","","","","","","","","","",""
"pit-instructions","6","24721","0.0-2.0-2.0-1.0","battery-v0.2","","[{""page_index"":0,""viewing_time"":1227.5999999940395}]","1228.3999999910593","","","","","","","","","","","","","","","","","","","","","","","","",""
"pit-instructions","7","111290","0.0-2.0-3.0","battery-v0.2","","[{""page_index"":0,""viewing_time"":7640.399999991059},{""page_index"":1,""viewing_time"":5937.70000000298},{""page_index"":2,""viewing_time"":6033},{""page_index"":3,""viewing_time"":5312.29999999702},{""page_index"":4,""viewing_time"":5058.5},{""page_index"":5,""viewing_time"":5066.9000000059605},{""page_index"":6,""viewing_time"":5770.79999999702},{""page_index"":7,""viewing_time"":6040.4000000059605},{""page_index"":8,""viewing_time"":6121.29999999702},{""page_index"":9,""viewing_time"":7129},{""page_index"":10,""viewing_time"":7890.79999999702},{""page_index"":11,""viewing_time"":7050.4000000059605},{""page_index"":12,""viewing_time"":6526.899999991059},{""page_index"":13,""viewing_time"":4972}]","86551.09999999404","","","","","","","","","","","","","","","","","","","","","","","","",""
"pit-trial","8","114865","0.0-2.0-4.0-0.0","battery-v0.2","","","694","","","20","847","14","&#9784;","elianto","#FFFFF080"," "," ","1","&#10004","[1546.5999999940395]","1","0","0","","","","","","","","",""
"pit-trial","9","118334","0.0-2.0-4.1-0.1","battery-v0.2","","","600.8999999910593","","","20","847","14","&#9784;","elianto","#FFFFF080"," "," ","1","&#10004","[1458.0999999940395]","1","0","0","","","","","","","","",""
"pit-trial","10","121792","0.0-2.0-4.2-0.2","battery-v0.2","","","589.7999999970198","","","20","847","14","&#9784;","elianto","#FFFFF080"," "," ","1","&#10004","[1440.8999999910593]","1","0","0","","","","","","","","",""
"pit-trial","11","125374","0.0-2.0-4.3-0.3","battery-v0.2","","","703.0999999940395","","","20","847","14","&#9784;","elianto","#FFFFF080"," "," ","1","&#10004","[1554.6000000089407]","1","0","0","","","","","","","","",""
"pit-trial","12","129004","0.0-2.0-4.4-0.4","battery-v0.2","","","747.8999999910593","","","20","847","14","&#9784;","elianto","#FFFFF080"," "," ","1","&#10004","[1602.7999999970198]","1","0","0","","","","","","","","",""
"pit-instructions","13","148002","0.0-2.0-5.0","battery-v0.2","","[{""page_index"":0,""viewing_time"":4457.5999999940395},{""page_index"":1,""viewing_time"":5076.20000000298},{""page_index"":2,""viewing_time"":4408.9000000059605},{""page_index"":3,""viewing_time"":5041}]","18985.09999999404","","","","","","","","","","","","","","","","","","","","","","","","",""
"pit-trial","14","152893","0.0-2.0-6.0-0.0","battery-v0.2","","","-1","","","20","847","14","&#9854;","elianto","#FFFFF080","-1","-1","1","&#10004","[]","0","0","1","","","","","","","","",""
"pit-trial","15","157765","0.0-2.0-6.1-0.1","battery-v0.2","","","-1","","","20","847","14","&#9854;","elianto","#FFFFF080","-1","-1","1","&#10004","[]","0","0","1","","","","","","","","",""
"pit-trial","16","162656","0.0-2.0-6.2-0.2","battery-v0.2","","","-1","","","20","847","14","&#9854;","elianto","#FFFFF080","-1","-1","1","&#10004","[]","0","0","1","","","","","","","","",""
"pit-trial","17","167540","0.0-2.0-6.3-0.3","battery-v0.2","","","-1","","","20","847","14","&#9854;","elianto","#FFFFF080","-1","-1","1","&#10004","[]","0","0","1","","","","","","","","",""
"pit-trial","18","172444","0.0-2.0-6.4-0.4","battery-v0.2","","","-1","","","20","847","14","&#9854;","elianto","#FFFFF080","-1","-1","1","&#10004","[]","0","0","1","","","","","","","","",""
"pit-instructions","19","290023","0.0-2.0-7.0","battery-v0.2","","[{""page_index"":0,""viewing_time"":5482.899999991059},{""page_index"":1,""viewing_time"":8291.40000000596},{""page_index"":2,""viewing_time"":8062.0999999940395},{""page_index"":3,""viewing_time"":8501.10000000894},{""page_index"":4,""viewing_time"":5117.29999999702},{""page_index"":5,""viewing_time"":5767.0999999940395},{""page_index"":6,""viewing_time"":5630.79999999702},{""page_index"":7,""viewing_time"":7230.300000011921},{""page_index"":8,""viewing_time"":6027.5},{""page_index"":9,""viewing_time"":5128.5999999940395},{""page_index"":10,""viewing_time"":6097.0999999940395},{""page_index"":11,""viewing_time"":5036.600000008941},{""page_index"":12,""viewing_time"":6686.399999991059},{""page_index"":13,""viewing_time"":9463.20000000298},{""page_index"":14,""viewing_time"":6217.4000000059605},{""page_index"":15,""viewing_time"":6177.399999991059},{""page_index"":16,""viewing_time"":6552.70000000298},{""page_index"":17,""viewing_time"":6088.100000008941}]","117559","","","","","","","","","","","","","","","","","","","","","","","","",""
"pit-trial","20","293390","0.0-2.0-8.0-0.0","battery-v0.2","","","495.90000000596046","","","20","847","14","&#9776;","elianto","#3366ff99"," "," ","1","+10","[1347.1000000089407]","1","0","1","","","","","","","","",""
"pit-trial","21","296754","0.0-2.0-8.0-1.0","battery-v0.2","","","490.3999999910593","","","20","847","14","&#9776;","elianto","#3366ff99"," "," ","1","+10","[1343.4000000059605]","1","0","1","","","","","","","","",""
"pit-trial","22","300095","0.0-2.0-8.0-2.0","battery-v0.2","","","469.40000000596046","","","20","847","14","&#9776;","elianto","#3366ff99"," "," ","1","+10","[1320.7999999970198]","1","0","1","","","","","","","","",""
"pit-trial","23","303414","0.0-2.0-8.0-3.0","battery-v0.2","","","434.5","","","20","847","14","&#9776;","elianto","#3366ff99"," "," ","1","0","[1295.7999999970198]","1","0","1","","","","","","","","",""
"pit-trial","24","306794","0.0-2.0-8.0-4.0","battery-v0.2","","","511.40000000596046","","","20","847","14","&#9776;","elianto","#3366ff99"," "," ","1","+10","[1367.9000000059605]","1","0","1","","","","","","","","",""
"call-function","25","306805","0.0-2.0-9.0","battery-v0.2","","","","","","","","","","","","","","","","","","","","","","","","","","","",""
"pit-instructions","26","342958","0.0-2.0-10.0","battery-v0.2","","[{""page_index"":0,""viewing_time"":5660.4000000059605},{""page_index"":1,""viewing_time"":6188.4000000059605},{""page_index"":2,""viewing_time"":9155.39999999106},{""page_index"":3,""viewing_time"":8134.70000000298},{""page_index"":4,""viewing_time"":7012}]","36152.30000001192","","","","","","","","","","","","","","","","","","","","","","","","",""
"pit-trial","27","347844","0.0-2.0-11.0-0.0","battery-v0.2","","","-1","","","20","847","14","&#9761;","elianto","#3366ff99","-1","-1","1","+10","[]","0","0","2","","","","","","","","",""
"pit-trial","28","352714","0.0-2.0-11.0-1.0","battery-v0.2","","","-1","","","20","847","14","&#9761;","elianto","#3366ff99","-1","-1","1","+10","[]","0","0","2","","","","","","","","",""
"pit-trial","29","357604","0.0-2.0-11.0-2.0","battery-v0.2","","","-1","","","20","847","14","&#9761;","elianto","#3366ff99","-1","-1","1","+10","[]","0","0","2","","","","","","","","",""
"pit-trial","30","362494","0.0-2.0-11.0-3.0","battery-v0.2","","","-1","","","20","847","14","&#9761;","elianto","#3366ff99","-1","-1","1","0","[]","0","0","2","","","","","","","","",""
"pit-trial","31","367364","0.0-2.0-11.0-4.0","battery-v0.2","","","-1","","","20","847","14","&#9761;","elianto","#3366ff99","-1","-1","1","+10","[]","0","0","2","","","","","","","","",""
"call-function","32","367372","0.0-2.0-12.0","battery-v0.2","","","","","","","","","","","","","","","","","","","","","","","","","","","",""
"pit-instructions","33","395622","0.0-2.0-13.0","battery-v0.2","","[{""page_index"":0,""viewing_time"":4698.5},{""page_index"":1,""viewing_time"":6131.0999999940395},{""page_index"":2,""viewing_time"":3125.6000000089407},{""page_index"":3,""viewing_time"":10206.699999988079},{""page_index"":4,""viewing_time"":4086}]","28248.89999999106","","","","","","","","","","","","","","","","","","","","","","","","",""
"pit-trial","34","400504","0.0-2.0-14.0-0.0","battery-v0.2","","","-1","","","20","847","14","&#9826;","elianto","#f73b6a7A","-1","-1","1","0","[]","0","0","3","","","","","","","","",""
"pit-trial","35","405384","0.0-2.0-14.0-1.0","battery-v0.2","","","-1","","","20","847","14","&#9826;","elianto","#f73b6a7A","-1","-1","1","0","[]","0","0","3","","","","","","","","",""
"pit-trial","36","410284","0.0-2.0-14.0-2.0","battery-v0.2","","","-1","","","20","847","14","&#9826;","elianto","#f73b6a7A","-1","-1","1","0","[]","0","0","3","","","","","","","","",""
"pit-trial","37","413674","0.0-2.0-14.0-3.0","battery-v0.2","","","515.2999999970198","","","20","847","14","&#9826;","elianto","#f73b6a7A","-1"," ","0","0","[1365.7000000029802]","1","0","3","","","","","","","","",""
"pit-trial","38","418564","0.0-2.0-14.0-4.0","battery-v0.2","","","-1","","","20","847","14","&#9826;","elianto","#f73b6a7A","-1","-1","1","0","[]","0","0","3","","","","","","","","",""
"pit-trial","39","423444","0.0-2.0-14.1-0.1","battery-v0.2","","","-1","","","20","847","14","&#9826;","elianto","#f73b6a7A","-1","-1","1","0","[]","0","0","3","","","","","","","","",""
"pit-trial","40","428312","0.0-2.0-14.1-1.1","battery-v0.2","","","-1","","","20","847","14","&#9826;","elianto","#f73b6a7A","-1","-1","1","0","[]","0","0","3","","","","","","","","",""
"pit-trial","41","433173","0.0-2.0-14.1-2.1","battery-v0.2","","","-1","","","20","847","14","&#9826;","elianto","#f73b6a7A","-1","-1","1","0","[]","0","0","3","","","","","","","","",""
"pit-trial","42","438034","0.0-2.0-14.1-3.1","battery-v0.2","","","-1","","","20","847","14","&#9826;","elianto","#f73b6a7A","-1","-1","1","-10","[]","0","0","3","","","","","","","","",""
"pit-trial","43","442895","0.0-2.0-14.1-4.1","battery-v0.2","","","-1","","","20","847","14","&#9826;","elianto","#f73b6a7A","-1","-1","1","0","[]","0","0","3","","","","","","","","",""
"call-function","44","442910","0.0-2.0-15.0","battery-v0.2","","","","","","","","","","","","","","","","","","","","","","","","","","","",""
"pit-instructions","45","466005","0.0-2.0-16.0","battery-v0.2","","[{""page_index"":0,""viewing_time"":6447.70000000298},{""page_index"":1,""viewing_time"":8448.60000000894},{""page_index"":2,""viewing_time"":4131.699999988079},{""page_index"":3,""viewing_time"":4064.300000011921}]","23093.60000000894","","","","","","","","","","","","","","","","","","","","","","","","",""
"pit-trial","46","469366","0.0-2.0-17.0-0.0","battery-v0.2","","","477.1000000089407","","","20","847","14","&#9789;","elianto","#f73b6a7A"," "," ","1","0","[1327.9000000059605]","1","0","4","","","","","","","","",""
"pit-trial","47","472665","0.0-2.0-17.0-1.0","battery-v0.2","","","428.29999999701977","","","20","847","14","&#9789;","elianto","#f73b6a7A"," "," ","1","0","[1280.2999999970198]","1","0","4","","","","","","","","",""
"pit-trial","48","476095","0.0-2.0-17.0-2.0","battery-v0.2","","","539.4000000059605","","","20","847","14","&#9789;","elianto","#f73b6a7A"," "," ","1","0","[1401.2999999970198]","1","0","4","","","","","","","","",""
"pit-trial","49","480966","0.0-2.0-17.0-3.0","battery-v0.2","","","-1","","","20","847","14","&#9789;","elianto","#f73b6a7A"," ","-1","0","0","[]","0","0","4","","","","","","","","",""
"pit-trial","50","484415","0.0-2.0-17.0-4.0","battery-v0.2","","","584.9000000059605","","","20","847","14","&#9789;","elianto","#f73b6a7A"," "," ","1","0","[1436]","1","0","4","","","","","","","","",""
"pit-trial","51","487905","0.0-2.0-17.1-0.1","battery-v0.2","","","603.8999999910593","","","20","847","14","&#9789;","elianto","#f73b6a7A"," "," ","1","0","[1464.5999999940395]","1","0","4","","","","","","","","",""
"pit-trial","52","491227","0.0-2.0-17.1-1.1","battery-v0.2","","","429","","","20","847","14","&#9789;","elianto","#f73b6a7A"," "," ","1","0","[1289.0999999940395]","1","0","4","","","","","","","","",""
"pit-trial","53","494515","0.0-2.0-17.1-2.1","battery-v0.2","","","399.20000000298023","","","20","847","14","&#9789;","elianto","#f73b6a7A"," "," ","1","0","[1251.5999999940395]","1","0","4","","","","","","","","",""
"pit-trial","54","499376","0.0-2.0-17.1-3.1","battery-v0.2","","","-1","","","20","847","14","&#9789;","elianto","#f73b6a7A"," ","-1","0","0","[]","0","0","4","","","","","","","","",""
"pit-trial","55","502650","0.0-2.0-17.1-4.1","battery-v0.2","","","413.70000000298023","","","20","847","14","&#9789;","elianto","#f73b6a7A"," "," ","1","0","[1264.2999999970198]","1","0","4","","","","","","","","",""
"pit-trial","56","505949","0.0-2.0-17.2-0.2","battery-v0.2","","","437.1000000089407","","","20","847","14","&#9789;","elianto","#f73b6a7A"," "," ","1","0","[1287.9000000059605]","1","0","4","","","","","","","","",""
"pit-trial","57","509328","0.0-2.0-17.2-1.2","battery-v0.2","","","511.90000000596046","","","20","847","14","&#9789;","elianto","#f73b6a7A"," "," ","1","0","[1361.9000000059605]","1","0","4","","","","","","","","",""
"pit-trial","58","512613","0.0-2.0-17.2-2.2","battery-v0.2","","","423.59999999403954","","","20","847","14","&#9789;","elianto","#f73b6a7A"," "," ","1","0","[1274]","1","0","4","","","","","","","","",""
"pit-trial","59","517481","0.0-2.0-17.2-3.2","battery-v0.2","","","-1","","","20","847","14","&#9789;","elianto","#f73b6a7A"," ","-1","0","0","[]","0","0","4","","","","","","","","",""
"pit-trial","60","520791","0.0-2.0-17.2-4.2","battery-v0.2","","","447.3999999910593","","","20","847","14","&#9789;","elianto","#f73b6a7A"," "," ","1","0","[1299.5999999940395]","1","0","4","","","","","","","","",""
"pit-trial","61","524084","0.0-2.0-17.3-0.3","battery-v0.2","","","432.79999999701977","","","20","847","14","&#9789;","elianto","#f73b6a7A"," "," ","1","0","[1283.6000000089407]","1","0","4","","","","","","","","",""
"pit-trial","62","528945","0.0-2.0-17.3-1.3","battery-v0.2","","","-1","","","20","847","14","&#9789;","elianto","#f73b6a7A"," ","-1","0","-10","[]","0","0","4","","","","","","","","",""
"pit-trial","63","532260","0.0-2.0-17.3-2.3","battery-v0.2","","","453.59999999403954","","","20","847","14","&#9789;","elianto","#f73b6a7A"," "," ","1","0","[1304.7000000029802]","1","0","4","","","","","","","","",""
"pit-trial","64","535544","0.0-2.0-17.3-3.3","battery-v0.2","","","422.5","","","20","847","14","&#9789;","elianto","#f73b6a7A"," "," ","1","-10","[1273.6000000089407]","1","0","4","","","","","","","","",""
"pit-trial","65","538821","0.0-2.0-17.3-4.3","battery-v0.2","","","416.5","","","20","847","14","&#9789;","elianto","#f73b6a7A"," "," ","1","0","[1267.300000011921]","1","0","4","","","","","","","","",""
"pit-trial","66","542100","0.0-2.0-17.4-0.4","battery-v0.2","","","418.5","","","20","847","14","&#9789;","elianto","#f73b6a7A"," "," ","1","0","[1268.8999999910593]","1","0","4","","","","","","","","",""
"pit-trial","67","545340","0.0-2.0-17.4-1.4","battery-v0.2","","","377.5","","","20","847","14","&#9789;","elianto","#f73b6a7A"," "," ","1","0","[1228]","1","0","4","","","","","","","","",""
"pit-trial","68","548507","0.0-2.0-17.4-2.4","battery-v0.2","","","305.29999999701977","","","20","847","14","&#9789;","elianto","#f73b6a7A"," "," ","1","0","[1157.5]","1","0","4","","","","","","","","",""
"pit-trial","69","551672","0.0-2.0-17.4-3.4","battery-v0.2","","","304.29999999701977","","","20","847","14","&#9789;","elianto","#f73b6a7A"," "," ","1","-10","[1154.7999999970198]","1","0","4","","","","","","","","",""
"pit-trial","70","554898","0.0-2.0-17.4-4.4","battery-v0.2","","","366","","","20","847","14","&#9789;","elianto","#f73b6a7A"," "," ","1","0","[1216.7000000029802]","1","0","4","","","","","","","","",""
"pit-instructions","71","572747","0.0-2.0-17.4-5.4-0.4","battery-v0.2","","[{""page_index"":0,""viewing_time"":5450.5999999940395},{""page_index"":1,""viewing_time"":5024.20000000298},{""page_index"":2,""viewing_time"":7365.0999999940395}]","17840.89999999106","","","","","","","","","","","","","","","","","","","","","","","","",""
"call-function","72","572765","0.0-2.0-18.0","battery-v0.2","","","","","","","","","","","","","","","","","","","","","","","","","","","",""
"pit-instructions","73","634497","0.0-2.0-19.0","battery-v0.2","","[{""page_index"":0,""viewing_time"":6441},{""page_index"":1,""viewing_time"":5204.79999999702},{""page_index"":2,""viewing_time"":8134.899999991059},{""page_index"":3,""viewing_time"":6400.4000000059605},{""page_index"":4,""viewing_time"":7582.4000000059605},{""page_index"":5,""viewing_time"":8939.5},{""page_index"":6,""viewing_time"":9023.79999999702},{""page_index"":7,""viewing_time"":6843.5},{""page_index"":8,""viewing_time"":3160.2000000029802}]","61731.5","","","","","","","","","","","","","","","","","","","","","","","","",""
"pit-comprehension","74","638594","0.0-2.0-20.0-0.0","battery-v0.2","","","4085.5","[""SPACE""]","0","20","847","14","","","","","","","","","","","","","","","","","","","",""
"pit-instructions","75","643546","0.0-2.0-20.0-1.0","battery-v0.2","","[{""page_index"":0,""viewing_time"":4912.0999999940395}]","4913","","","","","","","","","","","","","","","","","","","","","","","","",""
"pit-comprehension","76","648801","0.0-2.0-21.0-0.0","battery-v0.2","","","5234.9000000059605","[""10""]","0","20","847","14","","","","","","","","","","","","","","","","","","","",""
"pit-instructions","77","650694","0.0-2.0-21.0-1.0","battery-v0.2","","[{""page_index"":0,""viewing_time"":1844.5}]","1845.5999999940395","","","","","","","","","","","","","","","","","","","","","","","","",""
"pit-comprehension","78","657181","0.0-2.0-22.0-0.0","battery-v0.2","","","6467.5999999940395","[""0""]","0","20","847","14","","","","","","","","","","","","","","","","","","","",""
"pit-instructions","79","660348","0.0-2.0-22.0-1.0","battery-v0.2","","[{""page_index"":0,""viewing_time"":3119.2999999970198}]","3120.0999999940395","","","","","","","","","","","","","","","","","","","","","","","","",""
"pit-comprehension","80","668584","0.0-2.0-23.0-0.0","battery-v0.2","","","8216.20000000298","[""True""]","0","20","847","14","","","","","","","","","","","","","","","","","","","",""
"pit-instructions","81","670217","0.0-2.0-23.0-1.0","battery-v0.2","","[{""page_index"":0,""viewing_time"":1587.3999999910593}]","1588.199999988079","","","","","","","","","","","","","","","","","","","","","","","","",""
"pit-comprehension","82","677636","0.0-2.0-24.0-0.0","battery-v0.2","","","7398.800000011921","[""True""]","0","20","847","14","","","","","","","","","","","","","","","","","","","",""
"pit-instructions","83","679417","0.0-2.0-24.0-1.0","battery-v0.2","","[{""page_index"":0,""viewing_time"":1739.199999988079}]","1740.0999999940395","","","","","","","","","","","","","","","","","","","","","","","","",""
"pit-comprehension","84","685867","0.0-2.0-25.0-0.0","battery-v0.2","","","6429.5999999940395","[""True""]","0","20","847","14","","","","","","","","","","","","","","","","","","","",""
"pit-instructions","85","687724","0.0-2.0-25.0-1.0","battery-v0.2","","[{""page_index"":0,""viewing_time"":1807.7999999970198}]","1808.7999999970198","","","","","","","","","","","","","","","","","","","","","","","","",""
"pit-comprehension","86","692250","0.0-2.0-26.0-0.0","battery-v0.2","","","4505.600000008941","[""False""]","0","20","847","14","","","","","","","","","","","","","","","","","","","",""
"pit-instructions","87","693947","0.0-2.0-26.0-1.0","battery-v0.2","","[{""page_index"":0,""viewing_time"":1648.9000000059605}]","1649.9000000059605","","","","","","","","","","","","","","","","","","","","","","","","",""
"pit-instructions","88","709939","0.0-3.0","battery-v0.2","","[{""page_index"":0,""viewing_time"":3464.2000000029802},{""page_index"":1,""viewing_time"":5854.5},{""page_index"":2,""viewing_time"":6656.699999988079}]","15976.09999999404","","","","","","","","","","","","","","","","","","","","","","","","",""
"pit-trial","89","713415","0.0-4.0","battery-v0.2","","","590.1999999880791","","","20","847","14","&#9730;","elianto","#3366ff99"," "," ","1","+10","[1447]","1","1","","","847","1","1","1","win","go","0","[]"
"pit-trial","90","717185","0.0-5.0","battery-v0.2","","","885.2999999970198","","","20","847","14","&#9728;","elianto","#f73b6a7A","-1"," ","0","0","[1737.7999999970198]","1","1","","","847","2","0","4","lose","no-go","1","0"
"pit-trial","91","720664","0.0-6.0","battery-v0.2","","","595.5","","","20","847","14","&#9752;","elianto","#f73b6a7A"," "," ","1","0","[1452.2999999970198]","1","1","","","847","3","3","3","lose","go","0","0"
"pit-trial","92","724134","0.0-7.0","battery-v0.2","","","587.5999999940395","","","20","847","14","&#9733;","elianto","#3366ff99","-1"," ","0","0","[1440.800000011921]","1","1","","","847","4","2","2","win","no-go","0","0"
"pit-trial","93","727784","0.0-8.0","battery-v0.2","","","765.0999999940395","","","20","847","14","&#9730;","elianto","#3366ff99"," "," ","1","+10","[1625.7999999970198]","1","1","","","847","5","1","1","win","go","0","0"
"pit-trial","94","731334","0.0-9.0","battery-v0.2","","","667.5","","","20","847","14","&#9733;","elianto","#3366ff99","-1"," ","0","0","[1518]","1","1","","","847","6","2","2","win","no-go","0","0"
"pit-trial","95","734824","0.0-10.0","battery-v0.2","","","614.7000000029802","","","20","847","14","&#9728;","elianto","#f73b6a7A","-1"," ","0","-10","[1468.800000011921]","1","1","","","847","7","0","4","lose","no-go","0","0"
"pit-trial","96","738315","0.0-11.0","battery-v0.2","","","602.2000000029802","","","20","847","14","&#9752;","elianto","#f73b6a7A"," "," ","1","0","[1464.7000000029802]","1","1","","","847","8","3","3","lose","go","0","0"
"pit-trial","97","741980","0.0-12.0","battery-v0.2","","","778.0999999940395","","","20","847","14","&#9752;","elianto","#f73b6a7A"," "," ","1","0","[1635]","1","1","","","847","9","3","3","lose","go","0","0"
"pit-trial","98","745808","0.0-13.0","battery-v0.2","","","964.7000000029802","","","20","847","14","&#9733;","elianto","#3366ff99","-1"," ","0","0","[1815.5999999940395]","1","1","","","847","10","2","2","win","no-go","0","0"
"pit-trial","99","749190","0.0-14.0","battery-v0.2","","","521.6000000089407","","","20","847","14","&#9730;","elianto","#3366ff99"," "," ","1","+10","[1372.5]","1","1","","","847","11","1","1","win","go","0","0"
"pit-trial","100","752806","0.0-15.0","battery-v0.2","","","753","","","20","847","14","&#9728;","elianto","#f73b6a7A","-1"," ","0","-10","[1605.5]","1","1","","","847","12","0","4","lose","no-go","0","0"
"pit-trial","101","756265","0.0-16.0","battery-v0.2","","","591","","","20","847","14","&#9730;","elianto","#3366ff99"," "," ","1","+10","[1441.8999999910593]","1","1","","","847","13","1","1","win","go","0","0"
"pit-trial","102","761127","0.0-17.0","battery-v0.2","","","-1","","","20","847","14","&#9728;","elianto","#f73b6a7A","-1","-1","1","0","[]","0","1","","","847","14","0","4","lose","no-go","0","0"
"pit-trial","103","765989","0.0-18.0","battery-v0.2","","","-1","","","20","847","14","&#9733;","elianto","#3366ff99","-1","-1","1","+10","[]","0","1","","","847","15","2","2","win","no-go","0","0"
"pit-trial","104","769630","0.0-19.0","battery-v0.2","","","771.5","","","20","847","14","&#9752;","elianto","#f73b6a7A"," "," ","1","0","[1622]","1","1","","","847","16","3","3","lose","go","0","0"
"pit-trial","105","773151","0.0-20.0","battery-v0.2","","","660.9000000059605","","","20","847","14","&#9730;","elianto","#3366ff99"," "," ","1","+10","[1511]","1","1","","","847","17","1","1","win","go","0","0"
"pit-trial","106","776730","0.0-21.0","battery-v0.2","","","719.7999999970198","","","20","847","14","&#9752;","elianto","#f73b6a7A"," "," ","1","-10","[1570.5999999940395]","1","1","","","847","18","3","3","lose","go","1","0"
"pit-trial","107","780316","0.0-22.0","battery-v0.2","","","724.0999999940395","","","20","847","14","&#9728;","elianto","#f73b6a7A","-1"," ","0","-10","[1574.7999999970198]","1","1","","","847","19","0","4","lose","no-go","0","0"
"pit-trial","108","785178","0.0-23.0","battery-v0.2","","","-1","","","20","847","14","&#9733;","elianto","#3366ff99","-1","-1","1","+10","[]","0","1","","","847","20","2","2","win","no-go","0","0"
"pit-instructions","109","796924","0.0-24.0","battery-v0.2","","[{""page_index"":0,""viewing_time"":5479.100000008941},{""page_index"":1,""viewing_time"":6250.0999999940395}]","11730.20000000298","","","","","","","","","","","","","","","","","","","","","","","","",""
"pit-trial","110","800570","0.0-25.0","battery-v0.2","","","748.7000000029802","","","20","847","14","l","elianto","#3366ff99","-1"," ","0","0","[1607.6000000089407]","1","2","","","847","21","1","2","win","no-go","0","0"
"pit-trial","111","804038","0.0-26.0","battery-v0.2","","","577.7000000029802","","","20","847","14","u","elianto","#3366ff99","-1"," ","0","0","[1430.4000000059605]","1","2","","","847","22","0","2","win","no-go","0","0"
"pit-trial","112","807558","0.0-27.0","battery-v0.2","","","641.7999999970198","","","20","847","14","a","elianto","#3366ff99"," "," ","1","+10","[1500.2999999970198]","1","2","","","847","23","2","1","win","go","0","0"
"pit-trial","113","811107","0.0-28.0","battery-v0.2","","","660.7999999970198","","","20","847","14","g","elianto","#f73b6a7A"," "," ","1","0","[1522.5999999940395]","1","2","","","847","24","3","3","lose","go","0","0"
"pit-trial","114","814627","0.0-29.0","battery-v0.2","","","653.7000000029802","","","20","847","14","l","elianto","#3366ff99","-1"," ","0","+10","[1505]","1","2","","","847","25","1","2","win","no-go","1","0"
"pit-trial","115","818118","0.0-30.0","battery-v0.2","","","624.8999999910593","","","20","847","14","a","elianto","#3366ff99"," "," ","1","+10","[1480.2000000029802]","1","2","","","847","26","2","1","win","go","0","0"
"pit-trial","116","823007","0.0-31.0","battery-v0.2","","","-1","","","20","847","14","u","elianto","#3366ff99","-1","-1","1","+10","[]","0","2","","","847","27","0","2","win","no-go","0","0"
"pit-trial","117","826797","0.0-32.0","battery-v0.2","","","920.5","","","20","847","14","g","elianto","#f73b6a7A"," "," ","1","0","[1773.7000000029802]","1","2","","","847","28","3","3","lose","go","0","0"
"pit-trial","118","831666","0.0-33.0","battery-v0.2","","","-1","","","20","847","14","u","elianto","#3366ff99","-1","-1","1","+10","[]","0","2","","","847","29","0","2","win","no-go","0","0"
"pit-trial","119","835155","0.0-34.0","battery-v0.2","","","625.5999999940395","","","20","847","14","g","elianto","#f73b6a7A"," "," ","1","0","[1478.5999999940395]","1","2","","","847","30","3","3","lose","go","0","0"
"pit-trial","120","838899","0.0-35.0","battery-v0.2","","","875.7000000029802","","","20","847","14","a","elianto","#3366ff99"," "," ","1","+10","[1726.4000000059605]","1","2","","","847","31","2","1","win","go","0","0"
"pit-trial","121","842637","0.0-36.0","battery-v0.2","","","865","","","20","847","14","l","elianto","#3366ff99","-1"," ","0","0","[1716]","1","2","","","847","32","1","2","win","no-go","0","0"
"pit-trial","122","846412","0.0-37.0","battery-v0.2","","","904.2000000029802","","","20","847","14","g","elianto","#f73b6a7A"," "," ","1","0","[1755]","1","2","","","847","33","3","3","lose","go","0","0"
"pit-trial","123","849905","0.0-38.0","battery-v0.2","","","623.5999999940395","","","20","847","14","a","elianto","#3366ff99"," "," ","1","0","[1475.0999999940395]","1","2","","","847","34","2","1","win","go","1","0"
"pit-trial","124","853623","0.0-39.0","battery-v0.2","","","849.2000000029802","","","20","847","14","l","elianto","#3366ff99","-1"," ","0","0","[1700]","1","2","","","847","35","1","2","win","no-go","0","0"
"pit-trial","125","858485","0.0-40.0","battery-v0.2","","","-1","","","20","847","14","u","elianto","#3366ff99","-1","-1","1","0","[]","0","2","","","847","36","0","2","win","no-go","1","0"
"pit-trial","126","861873","0.0-41.0","battery-v0.2","","","529.0999999940395","","","20","847","14","g","elianto","#f73b6a7A"," "," ","1","0","[1379.7999999970198]","1","2","","","847","37","3","3","lose","go","0","0"
"pit-trial","127","865478","0.0-42.0","battery-v0.2","","","737.9000000059605","","","20","847","14","a","elianto","#3366ff99"," "," ","1","+10","[1589.7000000029802]","1","2","","","847","38","2","1","win","go","0","0"
"pit-trial","128","870339","0.0-43.0","battery-v0.2","","","-1","","","20","847","14","u","elianto","#3366ff99","-1","-1","1","+10","[]","0","2","","","847","39","0","2","win","no-go","0","0"
"pit-trial","129","875199","0.0-44.0","battery-v0.2","","","-1","","","20","847","14","l","elianto","#3366ff99","-1","-1","1","+10","[]","0","2","","","847","40","1","2","win","no-go","0","0"
"pit-trial","130","880060","0.0-45.0","battery-v0.2","","","-1","","","20","847","14","l","elianto","#3366ff99","-1","-1","1","0","[]","0","2","","","847","41","1","2","win","no-go","1","0"
"pit-trial","131","883514","0.0-46.0","battery-v0.2","","","593.8000000119209","","","20","847","14","g","elianto","#f73b6a7A"," "," ","1","0","[1444.2000000029802]","1","2","","","847","42","3","3","lose","go","0","0"
"pit-trial","132","888374","0.0-47.0","battery-v0.2","","","-1","","","20","847","14","u","elianto","#3366ff99","-1","-1","1","+10","[]","0","2","","","847","43","0","2","win","no-go","0","0"
"pit-trial","133","891910","0.0-48.0","battery-v0.2","","","674.9000000059605","","","20","847","14","a","elianto","#3366ff99"," "," ","1","+10","[1525.7000000029802]","1","2","","","847","44","2","1","win","go","0","0"
"pit-trial","134","896775","0.0-49.0","battery-v0.2","","","-1","","","20","847","14","u","elianto","#3366ff99","-1","-1","1","+10","[]","0","2","","","847","45","0","2","win","no-go","0","0"
"pit-trial","135","900352","0.0-50.0","battery-v0.2","","","713.7000000029802","","","20","847","14","a","elianto","#3366ff99"," "," ","1","0","[1565.2000000029802]","1","2","","","847","46","2","1","win","go","1","0"
"pit-trial","136","905213","0.0-51.0","battery-v0.2","","","-1","","","20","847","14","l","elianto","#3366ff99","-1","-1","1","+10","[]","0","2","","","847","47","1","2","win","no-go","0","0"
"pit-trial","137","908752","0.0-52.0","battery-v0.2","","","678.2999999970198","","","20","847","14","g","elianto","#f73b6a7A"," "," ","1","-10","[1528.7999999970198]","1","2","","","847","48","3","3","lose","go","1","0"
"pit-trial","138","912369","0.0-53.0","battery-v0.2","","","753.8999999910593","","","20","847","14","a","elianto","#3366ff99"," "," ","1","+10","[1604.5]","1","2","","","847","49","2","1","win","go","0","0"
"pit-trial","139","917229","0.0-54.0","battery-v0.2","","","-1","","","20","847","14","u","elianto","#3366ff99","-1","-1","1","+10","[]","0","2","","","847","50","0","2","win","no-go","0","0"
"pit-trial","140","922091","0.0-55.0","battery-v0.2","","","-1","","","20","847","14","l","elianto","#3366ff99","-1","-1","1","+10","[]","0","2","","","847","51","1","2","win","no-go","0","0"
"pit-trial","141","925564","0.0-56.0","battery-v0.2","","","611.5999999940395","","","20","847","14","g","elianto","#f73b6a7A"," "," ","1","0","[1462.199999988079]","1","2","","","847","52","3","3","lose","go","0","0"
"pit-trial","142","930433","0.0-57.0","battery-v0.2","","","-1","","","20","847","14","u","elianto","#3366ff99","-1","-1","1","+10","[]","0","2","","","847","53","0","2","win","no-go","0","0"
"pit-trial","143","935294","0.0-58.0","battery-v0.2","","","-1","","","20","847","14","p","elianto","#f73b6a7A","-1","-1","1","0","[]","0","2","","","847","54","4","4","lose","no-go","0","0"
"pit-trial","144","940154","0.0-59.0","battery-v0.2","","","-1","","","20","847","14","s","elianto","#f73b6a7A"," ","-1","0","-10","[]","0","2","","","847","55","5","3","lose","go","0","0"
"pit-trial","145","943744","0.0-60.0","battery-v0.2","","","728.5","","","20","847","14","a","elianto","#3366ff99"," "," ","1","0","[1580.2000000029802]","1","2","","","847","56","2","1","win","go","1","0"
"pit-trial","146","948602","0.0-61.0","battery-v0.2","","","-1","","","20","847","14","u","elianto","#3366ff99","-1","-1","1","+10","[]","0","2","","","847","57","0","2","win","no-go","0","0"
"pit-trial","147","952290","0.0-62.0","battery-v0.2","","","828.2999999970198","","","20","847","14","s","elianto","#f73b6a7A"," "," ","1","0","[1678.5999999940395]","1","2","","","847","58","5","3","lose","go","0","0"
"pit-trial","148","957150","0.0-63.0","battery-v0.2","","","-1","","","20","847","14","p","elianto","#f73b6a7A","-1","-1","1","0","[]","0","2","","","847","59","4","4","lose","no-go","0","0"
"pit-trial","149","960735","0.0-64.0","battery-v0.2","","","716.7999999970198","","","20","847","14","a","elianto","#3366ff99"," "," ","1","+10","[1567.7000000029802]","1","2","","","847","60","2","1","win","go","0","0"
"pit-trial","150","965595","0.0-65.0","battery-v0.2","","","-1","","","20","847","14","p","elianto","#f73b6a7A","-1","-1","1","0","[]","0","2","","","847","61","4","4","lose","no-go","0","0"
"pit-trial","151","969049","0.0-66.0","battery-v0.2","","","593.5999999940395","","","20","847","14","a","elianto","#3366ff99"," "," ","1","+10","[1443.5]","1","2","","","847","62","2","1","win","go","0","0"
"pit-trial","152","972595","0.0-67.0","battery-v0.2","","","684","","","20","847","14","s","elianto","#f73b6a7A"," "," ","1","0","[1534.3999999910593]","1","2","","","847","63","5","3","lose","go","0","0"
"pit-trial","153","976312","0.0-68.0","battery-v0.2","","","846.4000000059605","","","20","847","14","w","elianto","#3366ff99","-1"," ","0","0","[1696.7999999970198]","1","2","","","847","64","6","2","win","no-go","0","0"
"pit-trial","154","980040","0.0-69.0","battery-v0.2","","","859.2999999970198","","","20","847","14","w","elianto","#3366ff99","-1"," ","0","0","[1709.4000000059605]","1","2","","","847","65","6","2","win","no-go","0","0"
"pit-trial","155","984901","0.0-70.0","battery-v0.2","","","-1","","","20","847","14","p","elianto","#f73b6a7A","-1","-1","1","-10","[]","0","2","","","847","66","4","4","lose","no-go","1","0"
"pit-trial","156","988551","0.0-71.0","battery-v0.2","","","782","","","20","847","14","a","elianto","#3366ff99"," "," ","1","0","[1632.300000011921]","1","2","","","847","67","2","1","win","go","1","0"
"pit-trial","157","993414","0.0-72.0","battery-v0.2","","","-1","","","20","847","14","s","elianto","#f73b6a7A"," ","-1","0","0","[]","0","2","","","847","68","5","3","lose","go","1","0"
"pit-trial","158","998273","0.0-73.0","battery-v0.2","","","-1","","","20","847","14","s","elianto","#f73b6a7A"," ","-1","0","0","[]","0","2","","","847","69","5","3","lose","go","1","0"
"pit-trial","159","1003134","0.0-74.0","battery-v0.2","","","-1","","","20","847","14","e","elianto","#f73b6a7A","-1","-1","1","-10","[]","0","2","","","847","70","7","4","lose","no-go","1","0"
"pit-trial","160","1008007","0.0-75.0","battery-v0.2","","","-1","","","20","847","14","w","elianto","#3366ff99","-1","-1","1","+10","[]","0","2","","","847","71","6","2","win","no-go","0","0"
"pit-trial","161","1012358","0.0-76.0","battery-v0.2","","","1481.5","","","20","847","14","p","elianto","#f73b6a7A","-1"," ","0","-10","[2332.699999988079]","1","2","","","847","72","4","4","lose","no-go","0","0"
"pit-trial","162","1016371","0.0-77.0","battery-v0.2","","","1152.4000000059605","","","20","847","14","w","elianto","#3366ff99","-1"," ","0","0","[2003.1000000089407]","1","2","","","847","73","6","2","win","no-go","0","0"
"pit-trial","163","1021234","0.0-78.0","battery-v0.2","","","-1","","","20","847","14","s","elianto","#f73b6a7A"," ","-1","0","-10","[]","0","2","","","847","74","5","3","lose","go","0","0"
"pit-trial","164","1025103","0.0-79.0","battery-v0.2","","","1003.0999999940395","","","20","847","14","e","elianto","#f73b6a7A","-1"," ","0","-10","[1854.0999999940395]","1","2","","","847","75","7","4","lose","no-go","0","0"
"pit-trial","165","1029684","0.0-80.0","battery-v0.2","","","1720.2000000029802","","","20","847","14","p","elianto","#f73b6a7A","-1"," ","0","-10","[2571.199999988079]","1","2","","","847","76","4","4","lose","no-go","0","0"
"pit-trial","166","1034544","0.0-81.0","battery-v0.2","","","-1","","","20","847","14","w","elianto","#3366ff99","-1","-1","1","+10","[]","0","2","","","847","77","6","2","win","no-go","0","0"
"pit-trial","167","1039414","0.0-82.0","battery-v0.2","","","-1","","","20","847","14","s","elianto","#f73b6a7A"," ","-1","0","-10","[]","0","2","","","847","78","5","3","lose","go","0","0"
"pit-trial","168","1042349","0.0-83.0","battery-v0.2","","","74.20000000298023","","","20","847","14","e","elianto","#f73b6a7A","-1"," ","0","-10","[925.2999999970198]","1","2","","","847","79","7","4","lose","no-go","0","0"
"pit-trial","169","1047209","0.0-84.0","battery-v0.2","","","-1","","","20","847","14","p","elianto","#f73b6a7A","-1","-1","1","0","[]","0","2","","","847","80","4","4","lose","no-go","0","0"
"pit-trial","170","1052085","0.0-85.0","battery-v0.2","","","-1","","","20","847","14","s","elianto","#f73b6a7A"," ","-1","0","-10","[]","0","2","","","847","81","5","3","lose","go","0","0"
"pit-trial","171","1056953","0.0-86.0","battery-v0.2","","","-1","","","20","847","14","p","elianto","#f73b6a7A","-1","-1","1","-10","[]","0","2","","","847","82","4","4","lose","no-go","1","0"
"pit-trial","172","1061814","0.0-87.0","battery-v0.2","","","-1","","","20","847","14","w","elianto","#3366ff99","-1","-1","1","+10","[]","0","2","","","847","83","6","2","win","no-go","0","0"
"pit-trial","173","1066676","0.0-88.0","battery-v0.2","","","-1","","","20","847","14","e","elianto","#f73b6a7A","-1","-1","1","-10","[]","0","2","","","847","84","7","4","lose","no-go","1","0"
"pit-trial","174","1070827","0.0-89.0","battery-v0.2","","","1290.4000000059605","","","20","847","14","e","elianto","#f73b6a7A","-1"," ","0","-10","[2141.199999988079]","1","2","","","847","85","7","4","lose","no-go","0","0"
"pit-trial","175","1075695","0.0-90.0","battery-v0.2","","","-1","","","20","847","14","w","elianto","#3366ff99","-1","-1","1","+10","[]","0","2","","","847","86","6","2","win","no-go","0","0"
"pit-trial","176","1079467","0.0-91.0","battery-v0.2","","","910.7999999970198","","","20","847","14","s","elianto","#f73b6a7A"," "," ","1","0","[1761.199999988079]","1","2","","","847","87","5","3","lose","go","0","0"
"pit-trial","177","1084328","0.0-92.0","battery-v0.2","","","-1","","","20","847","14","p","elianto","#f73b6a7A","-1","-1","1","-10","[]","0","2","","","847","88","4","4","lose","no-go","1","0"
"pit-trial","178","1089195","0.0-93.0","battery-v0.2","","","-1","","","20","847","14","p","elianto","#f73b6a7A","-1","-1","1","0","[]","0","2","","","847","89","4","4","lose","no-go","0","0"
"pit-trial","179","1094056","0.0-94.0","battery-v0.2","","","-1","","","20","847","14","e","elianto","#f73b6a7A","-1","-1","1","0","[]","0","2","","","847","90","7","4","lose","no-go","0","0"
"pit-trial","180","1098916","0.0-95.0","battery-v0.2","","","-1","","","20","847","14","w","elianto","#3366ff99","-1","-1","1","+10","[]","0","2","","","847","91","6","2","win","no-go","0","0"
"pit-trial","181","1102575","0.0-96.0","battery-v0.2","","","792.5999999940395","","","20","847","14","s","elianto","#f73b6a7A"," "," ","1","0","[1643.4000000059605]","1","2","","","847","92","5","3","lose","go","0","0"
"pit-trial","182","1106116","0.0-97.0","battery-v0.2","","","674.5","","","20","847","14","s","elianto","#f73b6a7A"," "," ","1","0","[1525.2999999970198]","1","2","","","847","93","5","3","lose","go","0","0"
"pit-trial","183","1110975","0.0-98.0","battery-v0.2","","","-1","","","20","847","14","e","elianto","#f73b6a7A","-1","-1","1","0","[]","0","2","","","847","94","7","4","lose","no-go","0","0"
"pit-trial","184","1115262","0.0-99.0","battery-v0.2","","","1424.3999999910593","","","20","847","14","k","elianto","#f73b6a7A","-1"," ","0","-10","[2275.2999999970198]","1","2","","","847","95","8","4","lose","no-go","0","0"
"pit-trial","185","1120123","0.0-100.0","battery-v0.2","","","-1","","","20","847","14","w","elianto","#3366ff99","-1","-1","1","+10","[]","0","2","","","847","96","6","2","win","no-go","0","0"
"pit-trial","186","1124985","0.0-101.0","battery-v0.2","","","-1","","","20","847","14","k","elianto","#f73b6a7A","-1","-1","1","-10","[]","0","2","","","847","97","8","4","lose","no-go","1","0"
"pit-trial","187","1129846","0.0-102.0","battery-v0.2","","","-1","","","20","847","14","e","elianto","#f73b6a7A","-1","-1","1","0","[]","0","2","","","847","98","7","4","lose","no-go","0","0"
"pit-trial","188","1134705","0.0-103.0","battery-v0.2","","","-1","","","20","847","14","w","elianto","#3366ff99","-1","-1","1","+10","[]","0","2","","","847","99","6","2","win","no-go","0","0"
"pit-trial","189","1138520","0.0-104.0","battery-v0.2","","","941.5","","","20","847","14","s","elianto","#f73b6a7A"," "," ","1","0","[1793.1000000089407]","1","2","","","847","100","5","3","lose","go","0","0"
"pit-trial","190","1142065","0.0-105.0","battery-v0.2","","","684.7999999970198","","","20","847","14","k","elianto","#f73b6a7A","-1"," ","0","-10","[1535.2000000029802]","1","2","","","847","101","8","4","lose","no-go","0","0"
"pit-trial","191","1146942","0.0-106.0","battery-v0.2","","","-1","","","20","847","14","w","elianto","#3366ff99","-1","-1","1","+10","[]","0","2","","","847","102","6","2","win","no-go","0","0"
"pit-trial","192","1150893","0.0-107.0","battery-v0.2","","","1091.4000000059605","","","20","847","14","j","elianto","#f73b6a7A"," "," ","1","0","[1942.2000000029802]","1","2","","","847","103","10","3","lose","go","0","0"
"pit-trial","193","1154834","0.0-108.0","battery-v0.2","","","1072.9000000059605","","","20","847","14","d","elianto","#3366ff99"," "," ","1","+10","[1923.9000000059605]","1","2","","","847","104","9","1","win","go","0","0"
"pit-trial","194","1159694","0.0-109.0","battery-v0.2","","","-1","","","20","847","14","w","elianto","#3366ff99","-1","-1","1","+10","[]","0","2","","","847","105","6","2","win","no-go","0","0"
"pit-trial","195","1164554","0.0-110.0","battery-v0.2","","","-1","","","20","847","14","k","elianto","#f73b6a7A","-1","-1","1","0","[]","0","2","","","847","106","8","4","lose","no-go","0","0"
"pit-trial","196","1168452","0.0-111.0","battery-v0.2","","","1037","","","20","847","14","d","elianto","#3366ff99"," "," ","1","0","[1888.7999999970198]","1","2","","","847","107","9","1","win","go","1","0"
"pit-trial","197","1172621","0.0-112.0","battery-v0.2","","","1295.2999999970198","","","20","847","14","j","elianto","#f73b6a7A"," "," ","1","0","[2145.7999999970198]","1","2","","","847","108","10","3","lose","go","0","0"
"pit-trial","198","1176394","0.0-113.0","battery-v0.2","","","907","","","20","847","14","d","elianto","#3366ff99"," "," ","1","+10","[1757.7000000029802]","1","2","","","847","109","9","1","win","go","0","0"
"pit-trial","199","1180320","0.0-114.0","battery-v0.2","","","1065.7999999970198","","","20","847","14","v","elianto","#3366ff99"," "," ","1","+10","[1918]","1","2","","","847","110","11","1","win","go","0","0"
"pit-trial","200","1185182","0.0-115.0","battery-v0.2","","","-1","","","20","847","14","k","elianto","#f73b6a7A","-1","-1","1","-10","[]","0","2","","","847","111","8","4","lose","no-go","1","0"
"pit-trial","201","1190055","0.0-116.0","battery-v0.2","","","-1","","","20","847","14","j","elianto","#f73b6a7A"," ","-1","0","-10","[2944.0999999940395]","1","2","","","847","112","10","3","lose","go","0","0"
"pit-trial","202","1194054","0.0-117.0","battery-v0.2","","","1125.1000000089407","","","20","847","14","v","elianto","#3366ff99"," "," ","1","+10","[1975.7999999970198]","1","2","","","847","113","11","1","win","go","0","0"
"pit-trial","203","1198119","0.0-118.0","battery-v0.2","","","1204.9000000059605","","","20","847","14","j","elianto","#f73b6a7A"," "," ","1","0","[2055.9000000059605]","1","2","","","847","114","10","3","lose","go","0","0"
"pit-trial","204","1201709","0.0-119.0","battery-v0.2","","","730.5","","","20","847","14","d","elianto","#3366ff99"," "," ","1","+10","[1580.5]","1","2","","","847","115","9","1","win","go","0","0"
"pit-trial","205","1206578","0.0-120.0","battery-v0.2","","","-1","","","20","847","14","k","elianto","#f73b6a7A","-1","-1","1","0","[]","0","2","","","847","116","8","4","lose","no-go","0","0"
"pit-trial","206","1210116","0.0-121.0","battery-v0.2","","","662.7000000029802","","","20","847","14","d","elianto","#3366ff99"," "," ","1","+10","[1513.3999999910593]","1","2","","","847","117","9","1","win","go","0","0"
"pit-trial","207","1213904","0.0-122.0","battery-v0.2","","","927.7000000029802","","","20","847","14","v","elianto","#3366ff99"," "," ","1","+10","[1778.8999999910593]","1","2","","","847","118","11","1","win","go","0","0"
"pit-trial","208","1218763","0.0-123.0","battery-v0.2","","","-1","","","20","847","14","k","elianto","#f73b6a7A","-1","-1","1","0","[]","0","2","","","847","119","8","4","lose","no-go","0","0"
"pit-trial","209","1222634","0.0-124.0","battery-v0.2","","","1010","","","20","847","14","j","elianto","#f73b6a7A"," "," ","1","0","[1862]","1","2","","","847","120","10","3","lose","go","0","0"
"pit-trial","210","1226293","0.0-125.0","battery-v0.2","","","790.0999999940395","","","20","847","14","j","elianto","#f73b6a7A"," "," ","1","0","[1641.2999999970198]","1","2","","","847","121","10","3","lose","go","0","0"
"pit-trial","211","1229675","0.0-126.0","battery-v0.2","","","514.5","","","20","847","14","d","elianto","#3366ff99"," "," ","1","+10","[1364.7999999970198]","1","2","","","847","122","9","1","win","go","0","0"
"pit-trial","212","1233133","0.0-127.0","battery-v0.2","","","598.5999999940395","","","20","847","14","v","elianto","#3366ff99"," "," ","1","0","[1449.5999999940395]","1","2","","","847","123","11","1","win","go","1","0"
"pit-trial","213","1238000","0.0-128.0","battery-v0.2","","","-1","","","20","847","14","k","elianto","#f73b6a7A","-1","-1","1","0","[]","0","2","","","847","124","8","4","lose","no-go","0","0"
"pit-trial","214","1242859","0.0-129.0","battery-v0.2","","","-1","","","20","847","14","k","elianto","#f73b6a7A","-1","-1","1","0","[]","0","2","","","847","125","8","4","lose","no-go","0","0"
"pit-trial","215","1246688","0.0-130.0","battery-v0.2","","","967.7999999970198","","","20","847","14","v","elianto","#3366ff99"," "," ","1","+10","[1818.5]","1","2","","","847","126","11","1","win","go","0","0"
"pit-trial","216","1250265","0.0-131.0","battery-v0.2","","","706.2000000029802","","","20","847","14","d","elianto","#3366ff99"," "," ","1","+10","[1558.4000000059605]","1","2","","","847","127","9","1","win","go","0","0"
"pit-trial","217","1254116","0.0-132.0","battery-v0.2","","","980.1999999880791","","","20","847","14","j","elianto","#f73b6a7A"," "," ","1","0","[1840.699999988079]","1","2","","","847","128","10","3","lose","go","0","0"
"pit-trial","218","1258981","0.0-133.0","battery-v0.2","","","-1","","","20","847","14","k","elianto","#f73b6a7A","-1","-1","1","0","[]","0","2","","","847","129","8","4","lose","no-go","0","0"
"pit-trial","219","1263840","0.0-134.0","battery-v0.2","","","-1","","","20","847","14","v","elianto","#3366ff99"," ","-1","0","0","[]","0","2","","","847","130","11","1","win","go","0","0"
"pit-trial","220","1267656","0.0-135.0","battery-v0.2","","","956.7999999970198","","","20","847","14","j","elianto","#f73b6a7A"," "," ","1","0","[1808]","1","2","","","847","131","10","3","lose","go","0","0"
"pit-trial","221","1271174","0.0-136.0","battery-v0.2","","","657.7999999970198","","","20","847","14","d","elianto","#3366ff99"," "," ","1","+10","[1508.9000000059605]","1","2","","","847","132","9","1","win","go","0","0"
"pit-trial","222","1274687","0.0-137.0","battery-v0.2","","","650.1000000089407","","","20","847","14","d","elianto","#3366ff99"," "," ","1","+10","[1502.7999999970198]","1","2","","","847","133","9","1","win","go","0","0"
"pit-trial","223","1279554","0.0-138.0","battery-v0.2","","","-1","","","20","847","14","k","elianto","#f73b6a7A","-1","-1","1","0","[]","0","2","","","847","134","8","4","lose","no-go","0","0"
"pit-trial","224","1283139","0.0-139.0","battery-v0.2","","","716.3000000119209","","","20","847","14","v","elianto","#3366ff99"," "," ","1","+10","[1567.0999999940395]","1","2","","","847","135","11","1","win","go","0","0"
"pit-trial","225","1286825","0.0-140.0","battery-v0.2","","","825.2000000029802","","","20","847","14","j","elianto","#f73b6a7A"," "," ","1","0","[1676.3999999910593]","1","2","","","847","136","10","3","lose","go","0","0"
"pit-trial","226","1291686","0.0-141.0","battery-v0.2","","","-1","","","20","847","14","k","elianto","#f73b6a7A","-1","-1","1","-10","[]","0","2","","","847","137","8","4","lose","no-go","1","0"
"pit-trial","227","1295078","0.0-142.0","battery-v0.2","","","529.7000000029802","","","20","847","14","v","elianto","#3366ff99"," "," ","1","+10","[1381.5999999940395]","1","2","","","847","138","11","1","win","go","0","0"
"pit-trial","228","1298413","0.0-143.0","battery-v0.2","","","473.70000000298023","","","20","847","14","d","elianto","#3366ff99"," "," ","1","0","[1324.5]","1","2","","","847","139","9","1","win","go","1","0"
"pit-trial","229","1301849","0.0-144.0","battery-v0.2","","","576.7000000029802","","","20","847","14","j","elianto","#f73b6a7A"," "," ","1","0","[1427.4000000059605]","1","2","","","847","140","10","3","lose","go","0","0"
"pit-instructions","230","1363159","0.0-145.0","battery-v0.2","","[{""page_index"":0,""viewing_time"":52449.5},{""page_index"":1,""viewing_time"":8849.90000000596}]","61300.40000000596","","","","","","","","","","","","","","","","","","","","","","","","",""
"pit-trial","231","1366994","0.0-146.0","battery-v0.2","","","957.9000000059605","","","20","847","14","m","elianto","#3366ff99","-1"," ","0","+10","[1808.5999999940395]","1","3","","","847","141","0","2","win","no-go","1","0"
"pit-trial","232","1370754","0.0-147.0","battery-v0.2","","","874.5","","","20","847","14","r","elianto","#f73b6a7A"," "," ","1","0","[1727.2000000029802]","1","3","","","847","142","1","3","lose","go","0","0"
"pit-trial","233","1374224","0.0-148.0","battery-v0.2","","","604.5","","","20","847","14","h","elianto","#3366ff99"," "," ","1","+10","[1454.5]","1","3","","","847","143","3","1","win","go","0","0"
"pit-trial","234","1377734","0.0-149.0","battery-v0.2","","","629.5","","","20","847","14","y","elianto","#f73b6a7A","-1"," ","0","0","[1486.9000000059605]","1","3","","","847","144","2","4","lose","no-go","1","0"
"pit-trial","235","1381134","0.0-150.0","battery-v0.2","","","517.7999999970198","","","20","847","14","m","elianto","#3366ff99","-1"," ","0","0","[1378.699999988079]","1","3","","","847","145","0","2","win","no-go","0","0"
"pit-trial","236","1384614","0.0-151.0","battery-v0.2","","","609.5","","","20","847","14","r","elianto","#f73b6a7A"," "," ","1","-10","[1464]","1","3","","","847","146","1","3","lose","go","1","0"
"pit-trial","237","1388154","0.0-152.0","battery-v0.2","","","657.6000000089407","","","20","847","14","h","elianto","#3366ff99"," "," ","1","+10","[1515.9000000059605]","1","3","","","847","147","3","1","win","go","0","0"
"pit-trial","238","1391705","0.0-153.0","battery-v0.2","","","672.2000000029802","","","20","847","14","y","elianto","#f73b6a7A","-1"," ","0","-10","[1523.2000000029802]","1","3","","","847","148","2","4","lose","no-go","0","0"
"pit-trial","239","1395386","0.0-154.0","battery-v0.2","","","810.2999999970198","","","20","847","14","r","elianto","#f73b6a7A"," "," ","1","0","[1663.8999999910593]","1","3","","","847","149","1","3","lose","go","0","0"
"pit-trial","240","1399036","0.0-155.0","battery-v0.2","","","788.5","","","20","847","14","m","elianto","#3366ff99","-1"," ","0","0","[1639.800000011921]","1","3","","","847","150","0","2","win","no-go","0","0"
"pit-trial","241","1402572","0.0-156.0","battery-v0.2","","","677.2000000029802","","","20","847","14","h","elianto","#3366ff99"," "," ","1","+10","[1527.5999999940395]","1","3","","","847","151","3","1","win","go","0","0"
"pit-trial","242","1407433","0.0-157.0","battery-v0.2","","","-1","","","20","847","14","y","elianto","#f73b6a7A","-1","-1","1","0","[]","0","3","","","847","152","2","4","lose","no-go","0","0"
"pit-trial","243","1411310","0.0-158.0","battery-v0.2","","","1015.5","","","20","847","14","y","elianto","#f73b6a7A","-1"," ","0","-10","[1866.0999999940395]","1","3","","","847","153","2","4","lose","no-go","0","0"
"pit-trial","244","1415161","0.0-159.0","battery-v0.2","","","990","","","20","847","14","r","elianto","#f73b6a7A"," "," ","1","0","[1841.2999999970198]","1","3","","","847","154","1","3","lose","go","0","0"
"pit-trial","245","1418663","0.0-160.0","battery-v0.2","","","641.0999999940395","","","20","847","14","h","elianto","#3366ff99"," "," ","1","+10","[1491.9000000059605]","1","3","","","847","155","3","1","win","go","0","0"
"pit-trial","246","1423524","0.0-161.0","battery-v0.2","","","-1","","","20","847","14","m","elianto","#3366ff99","-1","-1","1","+10","[]","0","3","","","847","156","0","2","win","no-go","0","0"
"pit-trial","247","1427083","0.0-162.0","battery-v0.2","","","691.2000000029802","","","20","847","14","h","elianto","#3366ff99"," "," ","1","+10","[1541.7000000029802]","1","3","","","847","157","3","1","win","go","0","0"
"pit-trial","248","1430823","0.0-163.0","battery-v0.2","","","880.2000000029802","","","20","847","14","r","elianto","#f73b6a7A"," "," ","1","0","[1730.2000000029802]","1","3","","","847","158","1","3","lose","go","0","0"
"pit-trial","249","1435684","0.0-164.0","battery-v0.2","","","-1","","","20","847","14","m","elianto","#3366ff99","-1","-1","1","+10","[]","0","3","","","847","159","0","2","win","no-go","0","0"
"pit-trial","250","1440551","0.0-165.0","battery-v0.2","","","-1","","","20","847","14","y","elianto","#f73b6a7A","-1","-1","1","0","[]","0","3","","","847","160","2","4","lose","no-go","0","0"
"pit-trial","251","1444367","0.0-166.0","battery-v0.2","","","954.2999999970198","","","20","847","14","h","elianto","#3366ff99"," "," ","1","+10","[1804.9000000059605]","1","3","","","847","161","3","1","win","go","0","0"
"pit-trial","252","1447875","0.0-167.0","battery-v0.2","","","649.1999999880791","","","20","847","14","r","elianto","#f73b6a7A"," "," ","1","0","[1499.199999988079]","1","3","","","847","162","1","3","lose","go","0","0"
"pit-trial","253","1452735","0.0-168.0","battery-v0.2","","","-1","","","20","847","14","y","elianto","#f73b6a7A","-1","-1","1","0","[]","0","3","","","847","163","2","4","lose","no-go","0","0"
"pit-trial","254","1457604","0.0-169.0","battery-v0.2","","","-1","","","20","847","14","m","elianto","#3366ff99","-1","-1","1","+10","[]","0","3","","","847","164","0","2","win","no-go","0","0"
"pit-trial","255","1461224","0.0-170.0","battery-v0.2","","","761.2999999970198","","","20","847","14","r","elianto","#f73b6a7A"," "," ","1","0","[1611.7999999970198]","1","3","","","847","165","1","3","lose","go","0","0"
"pit-trial","256","1466084","0.0-171.0","battery-v0.2","","","-1","","","20","847","14","y","elianto","#f73b6a7A","-1","-1","1","0","[]","0","3","","","847","166","2","4","lose","no-go","0","0"
"pit-trial","257","1469499","0.0-172.0","battery-v0.2","","","552.3000000119209","","","20","847","14","h","elianto","#3366ff99"," "," ","1","+10","[1404.3999999910593]","1","3","","","847","167","3","1","win","go","0","0"
"pit-trial","258","1474361","0.0-173.0","battery-v0.2","","","-1","","","20","847","14","m","elianto","#3366ff99","-1","-1","1","+10","[]","0","3","","","847","168","0","2","win","no-go","0","0"
"pit-trial","259","1477913","0.0-174.0","battery-v0.2","","","690.8999999910593","","","20","847","14","h","elianto","#3366ff99"," "," ","1","+10","[1543]","1","3","","","847","169","3","1","win","go","0","0"
"pit-trial","260","1482773","0.0-175.0","battery-v0.2","","","-1","","","20","847","14","y","elianto","#f73b6a7A","-1","-1","1","0","[]","0","3","","","847","170","2","4","lose","no-go","0","0"
"pit-trial","261","1486388","0.0-176.0","battery-v0.2","","","746","","","20","847","14","r","elianto","#f73b6a7A"," "," ","1","0","[1596.7999999970198]","1","3","","","847","171","1","3","lose","go","0","0"
"pit-trial","262","1491250","0.0-177.0","battery-v0.2","","","-1","","","20","847","14","m","elianto","#3366ff99","-1","-1","1","0","[]","0","3","","","847","172","0","2","win","no-go","1","0"
"pit-trial","263","1495073","0.0-178.0","battery-v0.2","","","962.8000000119209","","","20","847","14","c","elianto","#f73b6a7A","-1"," ","0","0","[1812.8999999910593]","1","3","","","847","173","5","4","lose","no-go","1","0"
"pit-trial","264","1499934","0.0-179.0","battery-v0.2","","","-1","","","20","847","14","y","elianto","#f73b6a7A","-1","-1","1","0","[]","0","3","","","847","174","2","4","lose","no-go","0","0"
"pit-trial","265","1504098","0.0-180.0","battery-v0.2","","","1304.2000000029802","","","20","847","14","z","elianto","#f73b6a7A"," "," ","1","0","[2154.7000000029802]","1","3","","","847","175","4","3","lose","go","0","0"
"pit-trial","266","1507627","0.0-181.0","battery-v0.2","","","668.0999999940395","","","20","847","14","r","elianto","#f73b6a7A"," "," ","1","0","[1518.8999999910593]","1","3","","","847","176","1","3","lose","go","0","0"
"pit-trial","267","1511162","0.0-182.0","battery-v0.2","","","674.5","","","20","847","14","r","elianto","#f73b6a7A"," "," ","1","0","[1525]","1","3","","","847","177","1","3","lose","go","0","0"
"pit-trial","268","1514662","0.0-183.0","battery-v0.2","","","632.6000000089407","","","20","847","14","z","elianto","#f73b6a7A"," "," ","1","0","[1482.7000000029802]","1","3","","","847","178","4","3","lose","go","0","0"
"pit-trial","269","1519525","0.0-184.0","battery-v0.2","","","-1","","","20","847","14","y","elianto","#f73b6a7A","-1","-1","1","-10","[]","0","3","","","847","179","2","4","lose","no-go","1","0"
"pit-trial","270","1523454","0.0-185.0","battery-v0.2","","","1068.699999988079","","","20","847","14","c","elianto","#f73b6a7A","-1"," ","0","0","[1919.2000000029802]","1","3","","","847","180","5","4","lose","no-go","1","0"
"pit-trial","271","1527099","0.0-186.0","battery-v0.2","","","783.2000000029802","","","20","847","14","z","elianto","#f73b6a7A"," "," ","1","0","[1634]","1","3","","","847","181","4","3","lose","go","0","0"
"pit-trial","272","1531961","0.0-187.0","battery-v0.2","","","-1","","","20","847","14","y","elianto","#f73b6a7A","-1","-1","1","0","[]","0","3","","","847","182","2","4","lose","no-go","0","0"
"pit-trial","273","1535374","0.0-188.0","battery-v0.2","","","552.0999999940395","","","20","847","14","c","elianto","#f73b6a7A","-1"," ","0","-10","[1402.9000000059605]","1","3","","","847","183","5","4","lose","no-go","0","0"
"pit-trial","274","1539041","0.0-189.0","battery-v0.2","","","797.7999999970198","","","20","847","14","b","elianto","#3366ff99","-1"," ","0","0","[1648.2999999970198]","1","3","","","847","184","6","2","win","no-go","0","0"
"pit-trial","275","1542761","0.0-190.0","battery-v0.2","","","858.0999999940395","","","20","847","14","z","elianto","#f73b6a7A"," "," ","1","0","[1708.2000000029802]","1","3","","","847","185","4","3","lose","go","0","0"
"pit-trial","276","1547631","0.0-191.0","battery-v0.2","","","-1","","","20","847","14","c","elianto","#f73b6a7A","-1","-1","1","0","[]","0","3","","","847","186","5","4","lose","no-go","0","0"
"pit-trial","277","1552492","0.0-192.0","battery-v0.2","","","-1","","","20","847","14","y","elianto","#f73b6a7A","-1","-1","1","-10","[]","0","3","","","847","187","2","4","lose","no-go","1","0"
"pit-trial","278","1556318","0.0-193.0","battery-v0.2","","","964.2999999970198","","","20","847","14","b","elianto","#3366ff99","-1"," ","0","0","[1816.5999999940395]","1","3","","","847","188","6","2","win","no-go","0","0"
"pit-trial","279","1561180","0.0-194.0","battery-v0.2","","","-1","","","20","847","14","c","elianto","#f73b6a7A","-1","-1","1","-10","[]","0","3","","","847","189","5","4","lose","no-go","1","0"
"pit-trial","280","1564980","0.0-195.0","battery-v0.2","","","938.5999999940395","","","20","847","14","z","elianto","#f73b6a7A"," "," ","1","0","[1789.7999999970198]","1","3","","","847","190","4","3","lose","go","0","0"
"pit-trial","281","1568589","0.0-196.0","battery-v0.2","","","748.1999999880791","","","20","847","14","t","elianto","#3366ff99"," "," ","1","0","[1600.2999999970198]","1","3","","","847","191","7","1","win","go","1","0"
"pit-trial","282","1573449","0.0-197.0","battery-v0.2","","","-1","","","20","847","14","b","elianto","#3366ff99","-1","-1","1","+10","[]","0","3","","","847","192","6","2","win","no-go","0","0"
"pit-trial","283","1578310","0.0-198.0","battery-v0.2","","","-1","","","20","847","14","b","elianto","#3366ff99","-1","-1","1","0","[]","0","3","","","847","193","6","2","win","no-go","1","0"
"pit-trial","284","1582054","0.0-199.0","battery-v0.2","","","882.5","","","20","847","14","z","elianto","#f73b6a7A"," "," ","1","0","[1732.9000000059605]","1","3","","","847","194","4","3","lose","go","0","0"
"pit-trial","285","1586034","0.0-200.0","battery-v0.2","","","1118.2000000029802","","","20","847","14","c","elianto","#f73b6a7A","-1"," ","0","0","[1969.1000000089407]","1","3","","","847","195","5","4","lose","no-go","1","0"
"pit-trial","286","1589693","0.0-201.0","battery-v0.2","","","800.6999999880791","","","20","847","14","t","elianto","#3366ff99"," "," ","1","+10","[1651.5999999940395]","1","3","","","847","196","7","1","win","go","0","0"
"pit-trial","287","1593185","0.0-202.0","battery-v0.2","","","624.9000000059605","","","20","847","14","t","elianto","#3366ff99"," "," ","1","+10","[1475.7999999970198]","1","3","","","847","197","7","1","win","go","0","0"
"pit-trial","288","1596781","0.0-203.0","battery-v0.2","","","735.2999999970198","","","20","847","14","z","elianto","#f73b6a7A"," "," ","1","0","[1585.7999999970198]","1","3","","","847","198","4","3","lose","go","0","0"
"pit-trial","289","1600098","0.0-204.0","battery-v0.2","","","456.59999999403954","","","20","847","14","c","elianto","#f73b6a7A","-1"," ","0","0","[815.4000000059605,1306.9000000059605]","2","3","","","847","199","5","4","lose","no-go","1","0"
"pit-trial","290","1604960","0.0-205.0","battery-v0.2","","","-1","","","20","847","14","b","elianto","#3366ff99","-1","-1","1","+10","[]","0","3","","","847","200","6","2","win","no-go","0","0"
"pit-trial","291","1608578","0.0-206.0","battery-v0.2","","","753.8999999910593","","","20","847","14","z","elianto","#f73b6a7A"," "," ","1","0","[1607.8999999910593]","1","3","","","847","201","4","3","lose","go","0","0"
"pit-trial","292","1612058","0.0-207.0","battery-v0.2","","","615.2000000029802","","","20","847","14","t","elianto","#3366ff99"," "," ","1","+10","[1465.8999999910593]","1","3","","","847","202","7","1","win","go","0","0"
"pit-trial","293","1615772","0.0-208.0","battery-v0.2","","","854.1999999880791","","","20","847","14","c","elianto","#f73b6a7A","-1"," ","0","0","[1704.2999999970198]","1","3","","","847","203","5","4","lose","no-go","1","0"
"pit-trial","294","1620633","0.0-209.0","battery-v0.2","","","-1","","","20","847","14","b","elianto","#3366ff99","-1","-1","1","0","[]","0","3","","","847","204","6","2","win","no-go","1","0"
"pit-trial","295","1625493","0.0-210.0","battery-v0.2","","","-1","","","20","847","14","b","elianto","#3366ff99","-1","-1","1","+10","[]","0","3","","","847","205","6","2","win","no-go","0","0"
"pit-trial","296","1628938","0.0-211.0","battery-v0.2","","","583.5999999940395","","","20","847","14","z","elianto","#f73b6a7A"," "," ","1","0","[1435.9000000059605]","1","3","","","847","206","4","3","lose","go","0","0"
"pit-trial","297","1632347","0.0-212.0","battery-v0.2","","","546.5","","","20","847","14","c","elianto","#f73b6a7A","-1"," ","0","0","[1400]","1","3","","","847","207","5","4","lose","no-go","1","0"
"pit-trial","298","1635753","0.0-213.0","battery-v0.2","","","544.5","","","20","847","14","t","elianto","#3366ff99"," "," ","1","+10","[1395.1000000089407]","1","3","","","847","208","7","1","win","go","0","0"
"pit-trial","299","1639204","0.0-214.0","battery-v0.2","","","589.7000000029802","","","20","847","14","z","elianto","#f73b6a7A"," "," ","1","0","[1440.1000000089407]","1","3","","","847","209","4","3","lose","go","0","0"
"pit-trial","300","1642528","0.0-215.0","battery-v0.2","","","463.30000001192093","","","20","847","14","c","elianto","#f73b6a7A","-1"," ","0","-10","[1313.7000000029802]","1","3","","","847","210","5","4","lose","no-go","0","0"
"pit-trial","301","1645885","0.0-216.0","battery-v0.2","","","489.29999999701977","","","20","847","14","b","elianto","#3366ff99","-1"," ","0","0","[1340.2000000029802]","1","3","","","847","211","6","2","win","no-go","0","0"
"pit-trial","302","1649183","0.0-217.0","battery-v0.2","","","437.29999999701977","","","20","847","14","t","elianto","#3366ff99"," "," ","1","+10","[1287.5999999940395]","1","3","","","847","212","7","1","win","go","0","0"
"pit-trial","303","1653020","0.0-218.0","battery-v0.2","","","977.4000000059605","","","20","847","14","x","elianto","#3366ff99"," "," ","1","0","[1828.2000000029802]","1","3","","","847","213","8","1","win","go","1","0"
"pit-trial","304","1657889","0.0-219.0","battery-v0.2","","","-1","","","20","847","14","b","elianto","#3366ff99","-1","-1","1","+10","[]","0","3","","","847","214","6","2","win","no-go","0","0"
"pit-trial","305","1661498","0.0-220.0","battery-v0.2","","","748.8999999910593","","","20","847","14","z","elianto","#f73b6a7A"," "," ","1","0","[1598.9000000059605]","1","3","","","847","215","4","3","lose","go","0","0"
"pit-trial","306","1665002","0.0-221.0","battery-v0.2","","","644","","","20","847","14","t","elianto","#3366ff99"," "," ","1","+10","[1494.2000000029802]","1","3","","","847","216","7","1","win","go","0","0"
"pit-trial","307","1668866","0.0-222.0","battery-v0.2","","","1003.5","","","20","847","14","x","elianto","#3366ff99"," "," ","1","0","[1855.4000000059605]","1","3","","","847","217","8","1","win","go","1","0"
"pit-trial","308","1672313","0.0-223.0","battery-v0.2","","","587.7999999970198","","","20","847","14","z","elianto","#f73b6a7A"," "," ","1","-10","[1438.5]","1","3","","","847","218","4","3","lose","go","1","0"
"pit-trial","309","1675761","0.0-224.0","battery-v0.2","","","588","","","20","847","14","t","elianto","#3366ff99"," "," ","1","+10","[1438.7000000029802]","1","3","","","847","219","7","1","win","go","0","0"
"pit-trial","310","1680622","0.0-225.0","battery-v0.2","","","-1","","","20","847","14","b","elianto","#3366ff99","-1","-1","1","+10","[]","0","3","","","847","220","6","2","win","no-go","0","0"
"pit-trial","311","1684548","0.0-226.0","battery-v0.2","","","1065.699999988079","","","20","847","14","f","elianto","#3366ff99","-1"," ","0","+10","[1916.2000000029802]","1","3","","","847","221","9","2","win","no-go","1","0"
"pit-trial","312","1689409","0.0-227.0","battery-v0.2","","","-1","","","20","847","14","x","elianto","#3366ff99"," ","-1","0","0","[]","0","3","","","847","222","8","1","win","go","0","0"
"pit-trial","313","1694270","0.0-228.0","battery-v0.2","","","-1","","","20","847","14","b","elianto","#3366ff99","-1","-1","1","0","[]","0","3","","","847","223","6","2","win","no-go","1","0"
"pit-trial","314","1697754","0.0-229.0","battery-v0.2","","","621.7000000029802","","","20","847","14","t","elianto","#3366ff99"," "," ","1","+10","[1472.3999999910593]","1","3","","","847","224","7","1","win","go","0","0"
"pit-trial","315","1702614","0.0-230.0","battery-v0.2","","","-1","","","20","847","14","b","elianto","#3366ff99","-1","-1","1","+10","[]","0","3","","","847","225","6","2","win","no-go","0","0"
"pit-trial","316","1706495","0.0-231.0","battery-v0.2","","","1012.5","","","20","847","14","f","elianto","#3366ff99","-1"," ","0","+10","[1862.9000000059605]","1","3","","","847","226","9","2","win","no-go","1","0"
"pit-trial","317","1711355","0.0-232.0","battery-v0.2","","","-1","","","20","847","14","x","elianto","#3366ff99"," ","-1","0","0","[]","0","3","","","847","227","8","1","win","go","0","0"
"pit-trial","318","1714836","0.0-233.0","battery-v0.2","","","621.5","","","20","847","14","t","elianto","#3366ff99"," "," ","1","+10","[1472.5]","1","3","","","847","228","7","1","win","go","0","0"
"pit-trial","319","1718393","0.0-234.0","battery-v0.2","","","698","","","20","847","14","f","elianto","#3366ff99","-1"," ","0","0","[1548.9000000059605]","1","3","","","847","229","9","2","win","no-go","0","0"
"pit-trial","320","1722464","0.0-235.0","battery-v0.2","","","1209.4000000059605","","","20","847","14","n","elianto","#f73b6a7A"," "," ","1","0","[2059.7999999970198]","1","3","","","847","230","10","3","lose","go","0","0"
"pit-trial","321","1726293","0.0-236.0","battery-v0.2","","","961.7999999970198","","","20","847","14","x","elianto","#3366ff99"," "," ","1","+10","[1811.7999999970198]","1","3","","","847","231","8","1","win","go","0","0"
"pit-trial","322","1730026","0.0-237.0","battery-v0.2","","","867.0999999940395","","","20","847","14","q","elianto","#f73b6a7A","-1"," ","0","-10","[1718.7999999970198]","1","3","","","847","232","11","4","lose","no-go","0","0"
"pit-trial","323","1733534","0.0-238.0","battery-v0.2","","","646.5","","","20","847","14","n","elianto","#f73b6a7A"," "," ","1","0","[1497.0999999940395]","1","3","","","847","233","10","3","lose","go","0","0"
"pit-trial","324","1737127","0.0-239.0","battery-v0.2","","","731.9000000059605","","","20","847","14","f","elianto","#3366ff99","-1"," ","0","0","[1582.5999999940395]","1","3","","","847","234","9","2","win","no-go","0","0"
"pit-trial","325","1741987","0.0-240.0","battery-v0.2","","","-1","","","20","847","14","q","elianto","#f73b6a7A","-1","-1","1","-10","[]","0","3","","","847","235","11","4","lose","no-go","1","0"
"pit-trial","326","1746208","0.0-241.0","battery-v0.2","","","1358.7999999970198","","","20","847","14","x","elianto","#3366ff99"," "," ","1","+10","[2211.2999999970198]","1","3","","","847","236","8","1","win","go","0","0"
"pit-trial","327","1749662","0.0-242.0","battery-v0.2","","","593.5999999940395","","","20","847","14","f","elianto","#3366ff99","-1"," ","0","0","[1445]","1","3","","","847","237","9","2","win","no-go","0","0"
"pit-trial","328","1753181","0.0-243.0","battery-v0.2","","","654","","","20","847","14","x","elianto","#3366ff99"," "," ","1","0","[1508.5]","1","3","","","847","238","8","1","win","go","1","0"
"pit-trial","329","1756980","0.0-244.0","battery-v0.2","","","937.5999999940395","","","20","847","14","n","elianto","#f73b6a7A"," "," ","1","0","[1788.4000000059605]","1","3","","","847","239","10","3","lose","go","0","0"
"pit-trial","330","1761841","0.0-245.0","battery-v0.2","","","-1","","","20","847","14","q","elianto","#f73b6a7A","-1","-1","1","-10","[]","0","3","","","847","240","11","4","lose","no-go","1","0"
"pit-trial","331","1765192","0.0-246.0","battery-v0.2","","","492","","","20","847","14","x","elianto","#3366ff99"," "," ","1","+10","[1342.7000000029802]","1","3","","","847","241","8","1","win","go","0","0"
"pit-trial","332","1768725","0.0-247.0","battery-v0.2","","","671.2999999970198","","","20","847","14","q","elianto","#f73b6a7A","-1"," ","0","-10","[1523.2999999970198]","1","3","","","847","242","11","4","lose","no-go","0","0"
"pit-trial","333","1772416","0.0-248.0","battery-v0.2","","","822.0999999940395","","","20","847","14","n","elianto","#f73b6a7A"," "," ","1","0","[1673.5]","1","3","","","847","243","10","3","lose","go","0","0"
"pit-trial","334","1775780","0.0-249.0","battery-v0.2","","","508.40000000596046","","","20","847","14","f","elianto","#3366ff99","-1"," ","0","0","[1358.800000011921]","1","3","","","847","244","9","2","win","no-go","0","0"
"pit-trial","335","1779131","0.0-250.0","battery-v0.2","","","489.1000000089407","","","20","847","14","f","elianto","#3366ff99","-1"," ","0","+10","[1340.8999999910593]","1","3","","","847","245","9","2","win","no-go","1","0"
"pit-trial","336","1783092","0.0-251.0","battery-v0.2","","","1097.2000000029802","","","20","847","14","q","elianto","#f73b6a7A","-1"," ","0","-10","[1948.2000000029802]","1","3","","","847","246","11","4","lose","no-go","0","0"
"pit-trial","337","1786786","0.0-252.0","battery-v0.2","","","833.7999999970198","","","20","847","14","x","elianto","#3366ff99"," "," ","1","+10","[1684.4000000059605]","1","3","","","847","247","8","1","win","go","0","0"
"pit-trial","338","1790248","0.0-253.0","battery-v0.2","","","600.0999999940395","","","20","847","14","n","elianto","#f73b6a7A"," "," ","1","-10","[1452.1000000089407]","1","3","","","847","248","10","3","lose","go","1","0"
"pit-trial","339","1793615","0.0-254.0","battery-v0.2","","","506","","","20","847","14","x","elianto","#3366ff99"," "," ","1","+10","[1356.0999999940395]","1","3","","","847","249","8","1","win","go","0","0"
"pit-trial","340","1797062","0.0-255.0","battery-v0.2","","","582.9000000059605","","","20","847","14","f","elianto","#3366ff99","-1"," ","0","0","[1433.800000011921]","1","3","","","847","250","9","2","win","no-go","0","0"
"pit-trial","341","1801922","0.0-256.0","battery-v0.2","","","-1","","","20","847","14","q","elianto","#f73b6a7A","-1","-1","1","0","[]","0","3","","","847","251","11","4","lose","no-go","0","0"
"pit-trial","342","1805703","0.0-257.0","battery-v0.2","","","911.5999999940395","","","20","847","14","n","elianto","#f73b6a7A"," "," ","1","0","[1771.9000000059605]","1","3","","","847","252","10","3","lose","go","0","0"
"pit-trial","343","1810571","0.0-258.0","battery-v0.2","","","-1","","","20","847","14","q","elianto","#f73b6a7A","-1","-1","1","0","[]","0","3","","","847","253","11","4","lose","no-go","0","0"
"pit-trial","344","1813934","0.0-259.0","battery-v0.2","","","500.70000000298023","","","20","847","14","x","elianto","#3366ff99"," "," ","1","+10","[1351.5]","1","3","","","847","254","8","1","win","go","0","0"
"pit-trial","345","1817346","0.0-260.0","battery-v0.2","","","543.9000000059605","","","20","847","14","f","elianto","#3366ff99","-1"," ","0","0","[1395.8999999910593]","1","3","","","847","255","9","2","win","no-go","0","0"
"pit-trial","346","1820898","0.0-261.0","battery-v0.2","","","690.4000000059605","","","20","847","14","n","elianto","#f73b6a7A"," "," ","1","0","[1541.2000000029802]","1","3","","","847","256","10","3","lose","go","0","0"
"pit-trial","347","1824306","0.0-262.0","battery-v0.2","","","547.1000000089407","","","20","847","14","x","elianto","#3366ff99"," "," ","1","+10","[1398]","1","3","","","847","257","8","1","win","go","0","0"
"pit-trial","348","1829166","0.0-263.0","battery-v0.2","","","-1","","","20","847","14","f","elianto","#3366ff99","-1","-1","1","+10","[]","0","3","","","847","258","9","2","win","no-go","0","0"
"pit-trial","349","1832657","0.0-264.0","battery-v0.2","","","629.2999999970198","","","20","847","14","n","elianto","#f73b6a7A"," "," ","1","0","[1480.4000000059605]","1","3","","","847","259","10","3","lose","go","0","0"
"pit-trial","350","1837518","0.0-265.0","battery-v0.2","","","-1","","","20","847","14","q","elianto","#f73b6a7A","-1","-1","1","-10","[]","0","3","","","847","260","11","4","lose","no-go","1","0"
"pit-instructions","351","1843582","0.0-266.0","battery-v0.2","","[{""page_index"":0,""viewing_time"":6055.0999999940395}]","6055.5999999940395","","","","","","","","","","","","","","","","","","","","","","","","",""
