"trial_type","trial_index","time_elapsed","internal_node_id","task_version","success","view_history","rt","rune","rune_set","hex","correct","choice","accuracy","outcome","keys","total_keys","block","practice","subject","participantId","value","responses","num_errors","sub","trial","stimulus","robot","valence","action","sham"
"pavlovia","0","25","0.0-0.0","battery-v0.2","","","","","","","","","","","","","","","","","","","","","","","","","",""
"fullscreen","1","2036","0.0-1.0","battery-v0.2","true","","","","","","","","","","","","","","","","","","","","","","","","",""
"pit-instructions","2","5205","0.0-2.0-0.0","battery-v0.2","","[{""page_index"":0,""viewing_time"":663.7999999970198},{""page_index"":1,""viewing_time"":141.60000000149012},{""page_index"":2,""viewing_time"":164.5},{""page_index"":3,""viewing_time"":113.10000000149012},{""page_index"":4,""viewing_time"":143.5},{""page_index"":5,""viewing_time"":127.29999999701977},{""page_index"":6,""viewing_time"":143.90000000223517},{""page_index"":7,""viewing_time"":158.39999999850988},{""page_index"":8,""viewing_time"":144.60000000149012},{""page_index"":9,""viewing_time"":144.59999999776483},{""page_index"":10,""viewing_time"":179.60000000149012},{""page_index"":11,""viewing_time"":161.10000000149012},{""page_index"":12,""viewing_time"":160.09999999776483},{""page_index"":13,""viewing_time"":520.1000000014901},{""page_index"":14,""viewing_time"":196.80000000074506}]","3163.7999999970198","","","","","","","","","","","","","","","","","","","","","","",""
"pit-trial","3","8415","0.0-2.0-1.0-0.0","battery-v0.2","","","352","&#9784;","elianto","#FFFFF080","32","32","1","&#10004","1203","1","0","0","5ee95e0e8737a0304baac70a&order=&STUDY_ID=61f02a8661f82b834564f044","999","","","","","","","","","",""
"pit-trial","4","11905","0.0-2.0-1.1-0.1","battery-v0.2","","","630.6999999992549","&#9784;","elianto","#FFFFF080","32","32","1","&#10004","1481.199999999255","1","0","0","5ee95e0e8737a0304baac70a&order=&STUDY_ID=61f02a8661f82b834564f044","999","","","","","","","","","",""
"pit-trial","5","14975","0.0-2.0-1.2-0.2","battery-v0.2","","","211.5","&#9784;","elianto","#FFFFF080","32","32","1","&#10004","1061.7999999970198","1","0","0","5ee95e0e8737a0304baac70a&order=&STUDY_ID=61f02a8661f82b834564f044","999","","","","","","","","","",""
"pit-trial","6","18262","0.0-2.0-1.3-0.3","battery-v0.2","","","430.5","&#9784;","elianto","#FFFFF080","32","32","1","&#10004","1280.699999999255","1","0","0","5ee95e0e8737a0304baac70a&order=&STUDY_ID=61f02a8661f82b834564f044","999","","","","","","","","","",""
"pit-trial","7","23126","0.0-2.0-1.4-0.4","battery-v0.2","","","-1","&#9784;","elianto","#FFFFF080","32","-1","0","&#10060","","0","0","0","5ee95e0e8737a0304baac70a&order=&STUDY_ID=61f02a8661f82b834564f044","999","","","","","","","","","",""
"pit-trial","8","26193","0.0-2.0-1.5-0.5","battery-v0.2","","","206.40000000223517","&#9784;","elianto","#FFFFF080","32","32","1","&#10004","1056.800000000745","1","0","0","5ee95e0e8737a0304baac70a&order=&STUDY_ID=61f02a8661f82b834564f044","999","","","","","","","","","",""
"pit-trial","9","29214","0.0-2.0-1.6-0.6","battery-v0.2","","","163.80000000074506","&#9784;","elianto","#FFFFF080","32","32","1","&#10004","1014","1","0","0","5ee95e0e8737a0304baac70a&order=&STUDY_ID=61f02a8661f82b834564f044","999","","","","","","","","","",""
"pit-instructions","10","32746","0.0-2.0-1.6-1.6-0.6","battery-v0.2","","[{""page_index"":0,""viewing_time"":3366.199999999255},{""page_index"":1,""viewing_time"":162.10000000149012}]","3528.89999999851","","","","","","","","","","","","","","","","","","","","","","",""
"pit-trial","11","35938","0.0-2.0-1.7-0.7","battery-v0.2","","","333.80000000074506","&#9784;","elianto","#FFFFF080","32","32","1","&#10004","845.6000000014901,1184.1000000014901","2","0","0","5ee95e0e8737a0304baac70a&order=&STUDY_ID=61f02a8661f82b834564f044","999","","","","","","","","","",""
"pit-instructions","12","47929","0.0-2.0-2.0","battery-v0.2","","[{""page_index"":0,""viewing_time"":5635},{""page_index"":1,""viewing_time"":4973.39999999851},{""page_index"":2,""viewing_time"":631.6999999992549},{""page_index"":3,""viewing_time"":744.5}]","11985.300000000745","","","","","","","","","","","","","","","","","","","","","","",""
"pit-trial","13","52785","0.0-2.0-3.0-0.0","battery-v0.2","","","-1","&#9854;","elianto","#FFFFF080","-1","-1","1","&#10004","","0","0","1","5ee95e0e8737a0304baac70a&order=&STUDY_ID=61f02a8661f82b834564f044","999","","","","","","","","","",""
"pit-trial","14","57651","0.0-2.0-3.1-0.1","battery-v0.2","","","-1","&#9854;","elianto","#FFFFF080","-1","-1","1","&#10004","","0","0","1","5ee95e0e8737a0304baac70a&order=&STUDY_ID=61f02a8661f82b834564f044","999","","","","","","","","","",""
"pit-trial","15","62515","0.0-2.0-3.2-0.2","battery-v0.2","","","-1","&#9854;","elianto","#FFFFF080","-1","-1","1","&#10004","","0","0","1","5ee95e0e8737a0304baac70a&order=&STUDY_ID=61f02a8661f82b834564f044","999","","","","","","","","","",""
"pit-trial","16","67374","0.0-2.0-3.3-0.3","battery-v0.2","","","-1","&#9854;","elianto","#FFFFF080","-1","-1","1","&#10004","","0","0","1","5ee95e0e8737a0304baac70a&order=&STUDY_ID=61f02a8661f82b834564f044","999","","","","","","","","","",""
"pit-trial","17","72235","0.0-2.0-3.4-0.4","battery-v0.2","","","-1","&#9854;","elianto","#FFFFF080","-1","-1","1","&#10004","","0","0","1","5ee95e0e8737a0304baac70a&order=&STUDY_ID=61f02a8661f82b834564f044","999","","","","","","","","","",""
"pit-instructions","18","165202","0.0-2.0-4.0","battery-v0.2","","[{""page_index"":0,""viewing_time"":2818.699999999255},{""page_index"":1,""viewing_time"":2710.800000000745},{""page_index"":2,""viewing_time"":8049.89999999851},{""page_index"":3,""viewing_time"":3373.10000000149},{""page_index"":4,""viewing_time"":4805.5},{""page_index"":5,""viewing_time"":3560.699999999255},{""page_index"":6,""viewing_time"":1776.699999999255},{""page_index"":7,""viewing_time"":6687.60000000149},{""page_index"":8,""viewing_time"":6890.5},{""page_index"":9,""viewing_time"":4207.599999997765},{""page_index"":10,""viewing_time"":4509},{""page_index"":11,""viewing_time"":6880.70000000298},{""page_index"":12,""viewing_time"":7041.599999997765},{""page_index"":13,""viewing_time"":7045.60000000149},{""page_index"":14,""viewing_time"":4994},{""page_index"":15,""viewing_time"":8576.599999997765},{""page_index"":16,""viewing_time"":3704.60000000149},{""page_index"":17,""viewing_time"":5328.5}]","92962.30000000075","","","","","","","","","","","","","","","","","","","","","","",""
"pit-trial","19","168669","0.0-2.0-5.0-0.0","battery-v0.2","","","612.3000000007451","&#9776;","elianto","#3366ff99","32","32","1","+10","1463.5","1","0","1","5ee95e0e8737a0304baac70a&order=&STUDY_ID=61f02a8661f82b834564f044","999","","","","","","","","","",""
"pit-trial","20","171801","0.0-2.0-5.0-1.0","battery-v0.2","","","272.3999999985099","&#9776;","elianto","#3366ff99","32","32","1","+10","1123.8999999985099","1","0","1","5ee95e0e8737a0304baac70a&order=&STUDY_ID=61f02a8661f82b834564f044","999","","","","","","","","","",""
"pit-trial","21","174810","0.0-2.0-5.0-2.0","battery-v0.2","","","149.39999999850988","&#9776;","elianto","#3366ff99","32","32","1","+10","1001.5","1","0","1","5ee95e0e8737a0304baac70a&order=&STUDY_ID=61f02a8661f82b834564f044","999","","","","","","","","","",""
"pit-trial","22","177947","0.0-2.0-5.0-3.0","battery-v0.2","","","277.5","&#9776;","elianto","#3366ff99","32","32","1","0","1127.800000000745","1","0","1","5ee95e0e8737a0304baac70a&order=&STUDY_ID=61f02a8661f82b834564f044","999","","","","","","","","","",""
"pit-trial","23","180972","0.0-2.0-5.0-4.0","battery-v0.2","","","168.5","&#9776;","elianto","#3366ff99","32","32","1","+10","1020","1","0","1","5ee95e0e8737a0304baac70a&order=&STUDY_ID=61f02a8661f82b834564f044","999","","","","","","","","","",""
"call-function","24","180975","0.0-2.0-6.0","battery-v0.2","","","","","","","","","","","","","","","","","","","","","","","","","",""
"pit-instructions","25","223253","0.0-2.0-7.0","battery-v0.2","","[{""page_index"":0,""viewing_time"":15076.89999999851},{""page_index"":1,""viewing_time"":2778.5},{""page_index"":2,""viewing_time"":5242.699999999255},{""page_index"":3,""viewing_time"":9057.5},{""page_index"":4,""viewing_time"":5944.20000000298},{""page_index"":5,""viewing_time"":4176.599999997765}]","42277.099999997765","","","","","","","","","","","","","","","","","","","","","","",""
"pit-trial","26","228114","0.0-2.0-8.0-0.0","battery-v0.2","","","-1","&#9761;","elianto","#3366ff99","-1","-1","1","+10","","0","0","2","5ee95e0e8737a0304baac70a&order=&STUDY_ID=61f02a8661f82b834564f044","999","","","","","","","","","",""
"pit-trial","27","232973","0.0-2.0-8.0-1.0","battery-v0.2","","","-1","&#9761;","elianto","#3366ff99","-1","-1","1","+10","","0","0","2","5ee95e0e8737a0304baac70a&order=&STUDY_ID=61f02a8661f82b834564f044","999","","","","","","","","","",""
"pit-trial","28","237833","0.0-2.0-8.0-2.0","battery-v0.2","","","-1","&#9761;","elianto","#3366ff99","-1","-1","1","+10","","0","0","2","5ee95e0e8737a0304baac70a&order=&STUDY_ID=61f02a8661f82b834564f044","999","","","","","","","","","",""
"pit-trial","29","242692","0.0-2.0-8.0-3.0","battery-v0.2","","","-1","&#9761;","elianto","#3366ff99","-1","-1","1","0","","0","0","2","5ee95e0e8737a0304baac70a&order=&STUDY_ID=61f02a8661f82b834564f044","999","","","","","","","","","",""
"pit-trial","30","247553","0.0-2.0-8.0-4.0","battery-v0.2","","","-1","&#9761;","elianto","#3366ff99","-1","-1","1","+10","","0","0","2","5ee95e0e8737a0304baac70a&order=&STUDY_ID=61f02a8661f82b834564f044","999","","","","","","","","","",""
"call-function","31","247556","0.0-2.0-9.0","battery-v0.2","","","","","","","","","","","","","","","","","","","","","","","","","",""
"pit-instructions","32","278381","0.0-2.0-10.0","battery-v0.2","","[{""page_index"":0,""viewing_time"":7262.10000000149},{""page_index"":1,""viewing_time"":5495.599999997765},{""page_index"":2,""viewing_time"":1694},{""page_index"":3,""viewing_time"":12305.60000000149},{""page_index"":4,""viewing_time"":4066.300000000745}]","30824.400000002235","","","","","","","","","","","","","","","","","","","","","","",""
"pit-trial","33","283243","0.0-2.0-11.0-0.0","battery-v0.2","","","-1","&#9826;","elianto","#f73b6a7A","-1","-1","1","0","","0","0","3","5ee95e0e8737a0304baac70a&order=&STUDY_ID=61f02a8661f82b834564f044","999","","","","","","","","","",""
"pit-trial","34","288104","0.0-2.0-11.0-1.0","battery-v0.2","","","-1","&#9826;","elianto","#f73b6a7A","-1","-1","1","0","","0","0","3","5ee95e0e8737a0304baac70a&order=&STUDY_ID=61f02a8661f82b834564f044","999","","","","","","","","","",""
"pit-trial","35","292961","0.0-2.0-11.0-2.0","battery-v0.2","","","-1","&#9826;","elianto","#f73b6a7A","-1","-1","1","0","","0","0","3","5ee95e0e8737a0304baac70a&order=&STUDY_ID=61f02a8661f82b834564f044","999","","","","","","","","","",""
"pit-trial","36","297822","0.0-2.0-11.0-3.0","battery-v0.2","","","-1","&#9826;","elianto","#f73b6a7A","-1","-1","1","-10","","0","0","3","5ee95e0e8737a0304baac70a&order=&STUDY_ID=61f02a8661f82b834564f044","999","","","","","","","","","",""
"pit-trial","37","302684","0.0-2.0-11.0-4.0","battery-v0.2","","","-1","&#9826;","elianto","#f73b6a7A","-1","-1","1","0","","0","0","3","5ee95e0e8737a0304baac70a&order=&STUDY_ID=61f02a8661f82b834564f044","999","","","","","","","","","",""
"call-function","38","302686","0.0-2.0-12.0","battery-v0.2","","","","","","","","","","","","","","","","","","","","","","","","","",""
"pit-instructions","39","320425","0.0-2.0-13.0","battery-v0.2","","[{""page_index"":0,""viewing_time"":6425.300000000745},{""page_index"":1,""viewing_time"":5726.099999997765},{""page_index"":2,""viewing_time"":2295.300000000745},{""page_index"":3,""viewing_time"":3290.39999999851}]","17737.800000000745","","","","","","","","","","","","","","","","","","","","","","",""
"pit-trial","40","323789","0.0-2.0-14.0-0.0","battery-v0.2","","","507.5999999977648","&#9789;","elianto","#f73b6a7A","32","32","1","0","1358.0999999977648","1","0","4","5ee95e0e8737a0304baac70a&order=&STUDY_ID=61f02a8661f82b834564f044","999","","","","","","","","","",""
"pit-trial","41","326744","0.0-2.0-14.0-1.0","battery-v0.2","","","101.60000000149012","&#9789;","elianto","#f73b6a7A","32","32","1","0","951.9000000022352","1","0","4","5ee95e0e8737a0304baac70a&order=&STUDY_ID=61f02a8661f82b834564f044","999","","","","","","","","","",""
"pit-trial","42","329894","0.0-2.0-14.0-2.0","battery-v0.2","","","289.3999999985099","&#9789;","elianto","#f73b6a7A","32","32","1","0","1141.4000000022352","1","0","4","5ee95e0e8737a0304baac70a&order=&STUDY_ID=61f02a8661f82b834564f044","999","","","","","","","","","",""
"pit-trial","43","332826","0.0-2.0-14.0-3.0","battery-v0.2","","","70.69999999925494","&#9789;","elianto","#f73b6a7A","32","32","1","-10","922.5999999977648","1","0","4","5ee95e0e8737a0304baac70a&order=&STUDY_ID=61f02a8661f82b834564f044","999","","","","","","","","","",""
"pit-trial","44","335889","0.0-2.0-14.0-4.0","battery-v0.2","","","201.69999999925494","&#9789;","elianto","#f73b6a7A","32","32","1","0","1054.5","1","0","4","5ee95e0e8737a0304baac70a&order=&STUDY_ID=61f02a8661f82b834564f044","999","","","","","","","","","",""
"call-function","45","335892","0.0-2.0-15.0","battery-v0.2","","","","","","","","","","","","","","","","","","","","","","","","","",""
"pit-instructions","46","517620","0.0-2.0-16.0","battery-v0.2","","[{""page_index"":0,""viewing_time"":7464.300000000745},{""page_index"":1,""viewing_time"":8560.699999999255},{""page_index"":2,""viewing_time"":13029.5},{""page_index"":3,""viewing_time"":8924},{""page_index"":4,""viewing_time"":7973.699999999255},{""page_index"":5,""viewing_time"":5169},{""page_index"":6,""viewing_time"":9937.199999999255},{""page_index"":5,""viewing_time"":563.1999999992549},{""page_index"":4,""viewing_time"":98160.60000000149},{""page_index"":3,""viewing_time"":580.8999999985099},{""page_index"":2,""viewing_time"":1031.2000000029802},{""page_index"":3,""viewing_time"":462.5999999977648},{""page_index"":4,""viewing_time"":2677.5},{""page_index"":5,""viewing_time"":913.1999999992549},{""page_index"":6,""viewing_time"":5209.800000000745},{""page_index"":7,""viewing_time"":891.9000000022352},{""page_index"":6,""viewing_time"":1569.3999999985099},{""page_index"":7,""viewing_time"":7142.800000000745},{""page_index"":8,""viewing_time"":1465.0999999977648}]","181727.30000000075","","","","","","","","","","","","","","","","","","","","","","",""
"pit-comprehension","47","523288","0.0-2.0-17.0-0.0","battery-v0.2","","","5662.39999999851","","","","","","","","","","","","","","","UP","1","","","","","","",""
"pit-instructions","48","525115","0.0-2.0-17.0-1.0","battery-v0.2","","[{""page_index"":0,""viewing_time"":1804}]","1805","","","","","","","","","","","","","","","","","","","","","","",""
"pit-instructions","49","526084","0.0-2.0-17.0-2.0-0.0","battery-v0.2","","[{""page_index"":0,""viewing_time"":966.1000000014901}]","967","","","","","","","","","","","","","","","","","","","","","","",""
"pit-comprehension","50","528304","0.0-2.0-17.1-0.1","battery-v0.2","","","2215.800000000745","","","","","","","","","","","","","","","SPACE","0","","","","","","",""
"pit-instructions","51","529183","0.0-2.0-17.1-1.1","battery-v0.2","","[{""page_index"":0,""viewing_time"":860}]","860.5","","","","","","","","","","","","","","","","","","","","","","",""
"pit-comprehension","52","531857","0.0-2.0-18.0-0.0","battery-v0.2","","","2671.400000002235","","","","","","","","","","","","","","","-10","1","","","","","","",""
"pit-instructions","53","537238","0.0-2.0-18.0-1.0","battery-v0.2","","[{""page_index"":0,""viewing_time"":5361.70000000298}]","5362.20000000298","","","","","","","","","","","","","","","","","","","","","","",""
"pit-instructions","54","538166","0.0-2.0-18.0-2.0-0.0","battery-v0.2","","[{""page_index"":0,""viewing_time"":925.3000000007451}]","925.8000000007451","","","","","","","","","","","","","","","","","","","","","","",""
"pit-comprehension","55","540183","0.0-2.0-18.1-0.1","battery-v0.2","","","2013.8999999985099","","","","","","","","","","","","","","","10","0","","","","","","",""
"pit-instructions","56","541121","0.0-2.0-18.1-1.1","battery-v0.2","","[{""page_index"":0,""viewing_time"":914.5}]","915.1999999992549","","","","","","","","","","","","","","","","","","","","","","",""
"pit-comprehension","57","544700","0.0-2.0-19.0-0.0","battery-v0.2","","","3575.099999997765","","","","","","","","","","","","","","","5","1","","","","","","",""
"pit-instructions","58","552541","0.0-2.0-19.0-1.0","battery-v0.2","","[{""page_index"":0,""viewing_time"":7820.5}]","7821.199999999255","","","","","","","","","","","","","","","","","","","","","","",""
"pit-instructions","59","553266","0.0-2.0-19.0-2.0-0.0","battery-v0.2","","[{""page_index"":0,""viewing_time"":721.8999999985099}]","722.6999999992549","","","","","","","","","","","","","","","","","","","","","","",""
"pit-comprehension","60","557613","0.0-2.0-19.1-0.1","battery-v0.2","","","4343.5","","","","","","","","","","","","","","","0","0","","","","","","",""
"pit-instructions","61","558538","0.0-2.0-19.1-1.1","battery-v0.2","","[{""page_index"":0,""viewing_time"":904.4000000022352}]","904.9000000022352","","","","","","","","","","","","","","","","","","","","","","",""
"pit-comprehension","62","576075","0.0-2.0-20.0-0.0","battery-v0.2","","","17533.89999999851","","","","","","","","","","","","","","","False","1","","","","","","",""
"pit-instructions","63","581956","0.0-2.0-20.0-1.0","battery-v0.2","","[{""page_index"":0,""viewing_time"":5859.199999999255}]","5860","","","","","","","","","","","","","","","","","","","","","","",""
"pit-instructions","64","582893","0.0-2.0-20.0-2.0-0.0","battery-v0.2","","[{""page_index"":0,""viewing_time"":933.8000000007451}]","934.4000000022352","","","","","","","","","","","","","","","","","","","","","","",""
"pit-comprehension","65","584831","0.0-2.0-20.1-0.1","battery-v0.2","","","1934.800000000745","","","","","","","","","","","","","","","True","0","","","","","","",""
"pit-instructions","66","585766","0.0-2.0-20.1-1.1","battery-v0.2","","[{""page_index"":0,""viewing_time"":914.5}]","915.1000000014901","","","","","","","","","","","","","","","","","","","","","","",""
"pit-comprehension","67","589532","0.0-2.0-21.0-0.0","battery-v0.2","","","3762.60000000149","","","","","","","","","","","","","","","False","1","","","","","","",""
"pit-instructions","68","591751","0.0-2.0-21.0-1.0","battery-v0.2","","[{""page_index"":0,""viewing_time"":2197.300000000745}]","2197.699999999255","","","","","","","","","","","","","","","","","","","","","","",""
"pit-instructions","69","593414","0.0-2.0-21.0-2.0-0.0","battery-v0.2","","[{""page_index"":0,""viewing_time"":1661.300000000745}]","1661.6000000014901","","","","","","","","","","","","","","","","","","","","","","",""
"pit-comprehension","70","595641","0.0-2.0-21.1-0.1","battery-v0.2","","","2222.7999999970198","","","","","","","","","","","","","","","True","0","","","","","","",""
"pit-instructions","71","596489","0.0-2.0-21.1-1.1","battery-v0.2","","[{""page_index"":0,""viewing_time"":827.3000000007451}]","827.8000000007451","","","","","","","","","","","","","","","","","","","","","","",""
"pit-comprehension","72","601264","0.0-2.0-22.0-0.0","battery-v0.2","","","4772.699999999255","","","","","","","","","","","","","","","False","1","","","","","","",""
"pit-instructions","73","602842","0.0-2.0-22.0-1.0","battery-v0.2","","[{""page_index"":0,""viewing_time"":1558.5}]","1559.1000000014901","","","","","","","","","","","","","","","","","","","","","","",""
"pit-instructions","74","604141","0.0-2.0-22.0-2.0-0.0","battery-v0.2","","[{""page_index"":0,""viewing_time"":1296.0999999977648}]","1296.5999999977648","","","","","","","","","","","","","","","","","","","","","","",""
"pit-comprehension","75","606334","0.0-2.0-22.1-0.1","battery-v0.2","","","2190.10000000149","","","","","","","","","","","","","","","True","0","","","","","","",""
"pit-instructions","76","607129","0.0-2.0-22.1-1.1","battery-v0.2","","[{""page_index"":0,""viewing_time"":771.6999999992549}]","772.3000000007451","","","","","","","","","","","","","","","","","","","","","","",""
"pit-comprehension","77","616380","0.0-2.0-23.0-0.0","battery-v0.2","","","9247.699999999255","","","","","","","","","","","","","","","True","1","","","","","","",""
"pit-instructions","78","625846","0.0-2.0-23.0-1.0","battery-v0.2","","[{""page_index"":0,""viewing_time"":9442.79999999702}]","9443.79999999702","","","","","","","","","","","","","","","","","","","","","","",""
"pit-instructions","79","626329","0.0-2.0-23.0-2.0-0.0","battery-v0.2","","[{""page_index"":0,""viewing_time"":479.4000000022352}]","480.1000000014901","","","","","","","","","","","","","","","","","","","","","","",""
"pit-comprehension","80","629590","0.0-2.0-23.1-0.1","battery-v0.2","","","3257.199999999255","","","","","","","","","","","","","","","False","0","","","","","","",""
"pit-instructions","81","630425","0.0-2.0-23.1-1.1","battery-v0.2","","[{""page_index"":0,""viewing_time"":813.1999999992549}]","813.8000000007451","","","","","","","","","","","","","","","","","","","","","","",""
"pit-instructions","82","637029","0.0-3.0","battery-v0.2","","[{""page_index"":0,""viewing_time"":2976.10000000149},{""page_index"":1,""viewing_time"":2645.5},{""page_index"":2,""viewing_time"":978.8999999985099}]","6601","","","","","","","","","","","","","","","","","","","","","","",""
"pit-trial","83","640239","0.0-4.0","battery-v0.2","","","350","&#9733;","elianto","#3366ff99","-1","32","0","0","1200.199999999255","1","1","","","","","","","5ee95e0e8737a0304baac70a&order=&STUDY_ID=61f02a8661f82b834564f044","1","2","2","win","no-go","0"
"pit-trial","84","643419","0.0-5.0","battery-v0.2","","","323.5","&#9752;","elianto","#f73b6a7A","32","32","1","0","1173.699999999255","1","1","","","","","","","5ee95e0e8737a0304baac70a&order=&STUDY_ID=61f02a8661f82b834564f044","2","3","3","lose","go","0"
"pit-trial","85","646403","0.0-6.0","battery-v0.2","","","124.30000000074506","&#9728;","elianto","#f73b6a7A","-1","32","0","-10","976.2000000029802","1","1","","","","","","","5ee95e0e8737a0304baac70a&order=&STUDY_ID=61f02a8661f82b834564f044","3","0","4","lose","no-go","0"
"pit-trial","86","649543","0.0-7.0","battery-v0.2","","","284.29999999701977","&#9730;","elianto","#3366ff99","32","32","1","+10","1134.5,3105.89999999851","2","1","","","","","","","5ee95e0e8737a0304baac70a&order=&STUDY_ID=61f02a8661f82b834564f044","4","1","1","win","go","0"
"pit-trial","87","654403","0.0-8.0","battery-v0.2","","","-1","&#9752;","elianto","#f73b6a7A","32","-1","0","-10","3096.900000002235","1","1","","","","","","","5ee95e0e8737a0304baac70a&order=&STUDY_ID=61f02a8661f82b834564f044","5","3","3","lose","go","0"
"pit-trial","88","657743","0.0-9.0","battery-v0.2","","","481","&#9733;","elianto","#3366ff99","-1","32","0","0","1331.7999999970198","1","1","","","","","","","5ee95e0e8737a0304baac70a&order=&STUDY_ID=61f02a8661f82b834564f044","6","2","2","win","no-go","0"
"pit-trial","89","661337","0.0-10.0","battery-v0.2","","","734.1999999992549","&#9730;","elianto","#3366ff99","32","32","1","+10","1586.300000000745","1","1","","","","","","","5ee95e0e8737a0304baac70a&order=&STUDY_ID=61f02a8661f82b834564f044","7","1","1","win","go","0"
"pit-trial","90","665603","0.0-11.0","battery-v0.2","","","1412.2000000029802","&#9728;","elianto","#f73b6a7A","-1","32","0","-10","2262.5","1","1","","","","","","","5ee95e0e8737a0304baac70a&order=&STUDY_ID=61f02a8661f82b834564f044","8","0","4","lose","no-go","0"
"pit-trial","91","669784","0.0-12.0","battery-v0.2","","","1323.699999999255","&#9752;","elianto","#f73b6a7A","32","32","1","0","2174.099999997765","1","1","","","","","","","5ee95e0e8737a0304baac70a&order=&STUDY_ID=61f02a8661f82b834564f044","9","3","3","lose","go","0"
"pit-trial","92","672869","0.0-13.0","battery-v0.2","","","230.29999999701977","&#9728;","elianto","#f73b6a7A","-1","32","0","0","1081.199999999255","1","1","","","","","","","5ee95e0e8737a0304baac70a&order=&STUDY_ID=61f02a8661f82b834564f044","10","0","4","lose","no-go","1"
"pit-trial","93","676103","0.0-14.0","battery-v0.2","","","374.5","&#9733;","elianto","#3366ff99","-1","32","0","0","1224.800000000745","1","1","","","","","","","5ee95e0e8737a0304baac70a&order=&STUDY_ID=61f02a8661f82b834564f044","11","2","2","win","no-go","0"
"pit-trial","94","680963","0.0-15.0","battery-v0.2","","","-1","&#9730;","elianto","#3366ff99","32","-1","0","0","","0","1","","","","","","","5ee95e0e8737a0304baac70a&order=&STUDY_ID=61f02a8661f82b834564f044","12","1","1","win","go","0"
"pit-trial","95","684335","0.0-16.0","battery-v0.2","","","511.70000000298023","&#9730;","elianto","#3366ff99","32","32","1","0","1362.300000000745","1","1","","","","","","","5ee95e0e8737a0304baac70a&order=&STUDY_ID=61f02a8661f82b834564f044","13","1","1","win","go","1"
"pit-trial","96","687689","0.0-17.0","battery-v0.2","","","498.5","&#9752;","elianto","#f73b6a7A","32","32","1","0","1348.800000000745","1","1","","","","","","","5ee95e0e8737a0304baac70a&order=&STUDY_ID=61f02a8661f82b834564f044","14","3","3","lose","go","0"
"pit-trial","97","691523","0.0-18.0","battery-v0.2","","","975.1999999992549","&#9733;","elianto","#3366ff99","-1","32","0","0","1826.5","1","1","","","","","","","5ee95e0e8737a0304baac70a&order=&STUDY_ID=61f02a8661f82b834564f044","15","2","2","win","no-go","0"
"pit-trial","98","695247","0.0-19.0","battery-v0.2","","","868.4000000022352","&#9728;","elianto","#f73b6a7A","-1","32","0","-10","1718.800000000745","1","1","","","","","","","5ee95e0e8737a0304baac70a&order=&STUDY_ID=61f02a8661f82b834564f044","16","0","4","lose","no-go","0"
"pit-trial","99","698632","0.0-20.0","battery-v0.2","","","524","&#9730;","elianto","#3366ff99","32","32","1","0","1376.800000000745","1","1","","","","","","","5ee95e0e8737a0304baac70a&order=&STUDY_ID=61f02a8661f82b834564f044","17","1","1","win","go","1"
"pit-trial","100","702504","0.0-21.0","battery-v0.2","","","1014.3000000007451","&#9728;","elianto","#f73b6a7A","-1","32","0","-10","1865.3999999985099","1","1","","","","","","","5ee95e0e8737a0304baac70a&order=&STUDY_ID=61f02a8661f82b834564f044","18","0","4","lose","no-go","0"
"pit-trial","101","706004","0.0-22.0","battery-v0.2","","","642.5","&#9733;","elianto","#3366ff99","-1","32","0","0","796.3999999985099,1493.0999999977648","2","1","","","","","","","5ee95e0e8737a0304baac70a&order=&STUDY_ID=61f02a8661f82b834564f044","19","2","2","win","no-go","0"
"pit-trial","102","708969","0.0-23.0","battery-v0.2","","","106.60000000149012","&#9752;","elianto","#f73b6a7A","32","32","1","0","959.2000000029802","1","1","","","","","","","5ee95e0e8737a0304baac70a&order=&STUDY_ID=61f02a8661f82b834564f044","20","3","3","lose","go","0"
"pit-instructions","103","716289","0.0-24.0","battery-v0.2","","[{""page_index"":0,""viewing_time"":6422.10000000149},{""page_index"":1,""viewing_time"":894.3999999985099}]","7317.300000000745","","","","","","","","","","","","","","","","","","","","","","",""
"pit-trial","104","721149","0.0-25.0","battery-v0.2","","","-1","h","elianto","#f73b6a7A","32","-1","0","-10","","0","2","","","","","","","5ee95e0e8737a0304baac70a&order=&STUDY_ID=61f02a8661f82b834564f044","21","3","3","lose","go","0"
"pit-trial","105","724444","0.0-26.0","battery-v0.2","","","435.1000000014901","y","elianto","#3366ff99","32","32","1","+10","1285.4000000022352","1","2","","","","","","","5ee95e0e8737a0304baac70a&order=&STUDY_ID=61f02a8661f82b834564f044","22","2","1","win","go","0"
"pit-trial","106","727743","0.0-27.0","battery-v0.2","","","439.5999999977648","m","elianto","#3366ff99","-1","32","0","+10","1289.8999999985099","1","2","","","","","","","5ee95e0e8737a0304baac70a&order=&STUDY_ID=61f02a8661f82b834564f044","23","0","2","win","no-go","1"
"pit-trial","107","730904","0.0-28.0","battery-v0.2","","","304.0999999977648","r","elianto","#3366ff99","-1","32","0","0","1154.2999999970198,2121.2999999970198","2","2","","","","","","","5ee95e0e8737a0304baac70a&order=&STUDY_ID=61f02a8661f82b834564f044","24","1","2","win","no-go","0"
"pit-trial","108","734915","0.0-29.0","battery-v0.2","","","1155.5","y","elianto","#3366ff99","32","32","1","+10","2006","1","2","","","","","","","5ee95e0e8737a0304baac70a&order=&STUDY_ID=61f02a8661f82b834564f044","25","2","1","win","go","0"
"pit-trial","109","738303","0.0-30.0","battery-v0.2","","","527.7999999970198","m","elianto","#3366ff99","-1","32","0","0","1378.199999999255,1892.8999999985099","2","2","","","","","","","5ee95e0e8737a0304baac70a&order=&STUDY_ID=61f02a8661f82b834564f044","26","0","2","win","no-go","0"
"pit-trial","110","741390","0.0-31.0","battery-v0.2","","","228.5","r","elianto","#3366ff99","-1","32","0","0","1079.3999999985099","1","2","","","","","","","5ee95e0e8737a0304baac70a&order=&STUDY_ID=61f02a8661f82b834564f044","27","1","2","win","no-go","0"
"pit-trial","111","744711","0.0-32.0","battery-v0.2","","","461.80000000074506","h","elianto","#f73b6a7A","32","32","1","0","1313.699999999255","1","2","","","","","","","5ee95e0e8737a0304baac70a&order=&STUDY_ID=61f02a8661f82b834564f044","28","3","3","lose","go","0"
"pit-trial","112","748425","0.0-33.0","battery-v0.2","","","855.8999999985099","y","elianto","#3366ff99","32","32","1","+10","624.7999999970198,1706.5999999977648","2","2","","","","","","","5ee95e0e8737a0304baac70a&order=&STUDY_ID=61f02a8661f82b834564f044","29","2","1","win","go","0"
"pit-trial","113","751670","0.0-34.0","battery-v0.2","","","389.20000000298023","m","elianto","#3366ff99","-1","32","0","+10","1241","1","2","","","","","","","5ee95e0e8737a0304baac70a&order=&STUDY_ID=61f02a8661f82b834564f044","30","0","2","win","no-go","1"
"pit-trial","114","754630","0.0-35.0","battery-v0.2","","","97.59999999776483","h","elianto","#f73b6a7A","32","32","1","0","951,1833.699999999255","2","2","","","","","","","5ee95e0e8737a0304baac70a&order=&STUDY_ID=61f02a8661f82b834564f044","31","3","3","lose","go","0"
"pit-trial","115","759395","0.0-36.0","battery-v0.2","","","1906.1000000014901","r","elianto","#3366ff99","-1","32","0","0","2758.5","1","2","","","","","","","5ee95e0e8737a0304baac70a&order=&STUDY_ID=61f02a8661f82b834564f044","32","1","2","win","no-go","0"
"pit-trial","116","763025","0.0-37.0","battery-v0.2","","","769.3999999985099","r","elianto","#3366ff99","-1","32","0","0","1622.5","1","2","","","","","","","5ee95e0e8737a0304baac70a&order=&STUDY_ID=61f02a8661f82b834564f044","33","1","2","win","no-go","0"
"pit-trial","117","766284","0.0-38.0","battery-v0.2","","","402.4000000022352","m","elianto","#3366ff99","-1","32","0","0","1252.8999999985099","1","2","","","","","","","5ee95e0e8737a0304baac70a&order=&STUDY_ID=61f02a8661f82b834564f044","34","0","2","win","no-go","0"
"pit-trial","118","769623","0.0-39.0","battery-v0.2","","","479.8999999985099","y","elianto","#3366ff99","32","32","1","+10","1331.0999999977648","1","2","","","","","","","5ee95e0e8737a0304baac70a&order=&STUDY_ID=61f02a8661f82b834564f044","35","2","1","win","go","0"
"pit-trial","119","772605","0.0-40.0","battery-v0.2","","","122.80000000074506","h","elianto","#f73b6a7A","32","32","1","0","973.5999999977648","1","2","","","","","","","5ee95e0e8737a0304baac70a&order=&STUDY_ID=61f02a8661f82b834564f044","36","3","3","lose","go","0"
"pit-trial","120","775975","0.0-41.0","battery-v0.2","","","512.2999999970198","m","elianto","#3366ff99","-1","32","0","0","596.2000000029802,1362.4000000022352","2","2","","","","","","","5ee95e0e8737a0304baac70a&order=&STUDY_ID=61f02a8661f82b834564f044","37","0","2","win","no-go","0"
"pit-trial","121","779365","0.0-42.0","battery-v0.2","","","532.3000000007451","y","elianto","#3366ff99","32","32","1","+10","1382.6000000014901","1","2","","","","","","","5ee95e0e8737a0304baac70a&order=&STUDY_ID=61f02a8661f82b834564f044","38","2","1","win","go","0"
"pit-trial","122","782414","0.0-43.0","battery-v0.2","","","191.30000000074506","h","elianto","#f73b6a7A","32","32","1","-10","1042.300000000745","1","2","","","","","","","5ee95e0e8737a0304baac70a&order=&STUDY_ID=61f02a8661f82b834564f044","39","3","3","lose","go","1"
"pit-trial","123","785571","0.0-44.0","battery-v0.2","","","302.19999999925494","r","elianto","#3366ff99","-1","32","0","+10","1152.5","1","2","","","","","","","5ee95e0e8737a0304baac70a&order=&STUDY_ID=61f02a8661f82b834564f044","40","1","2","win","no-go","1"
"pit-trial","124","788600","0.0-45.0","battery-v0.2","","","173.09999999776483","r","elianto","#3366ff99","-1","32","0","0","1023.6999999992549","1","2","","","","","","","5ee95e0e8737a0304baac70a&order=&STUDY_ID=61f02a8661f82b834564f044","41","1","2","win","no-go","0"
"pit-trial","125","791887","0.0-46.0","battery-v0.2","","","427.79999999701977","y","elianto","#3366ff99","32","32","1","+10","1280.5","1","2","","","","","","","5ee95e0e8737a0304baac70a&order=&STUDY_ID=61f02a8661f82b834564f044","42","2","1","win","go","0"
"pit-trial","126","795080","0.0-47.0","battery-v0.2","","","338.3999999985099","m","elianto","#3366ff99","-1","32","0","0","393,1188.5999999977648","2","2","","","","","","","5ee95e0e8737a0304baac70a&order=&STUDY_ID=61f02a8661f82b834564f044","43","0","2","win","no-go","0"
"pit-trial","127","798322","0.0-48.0","battery-v0.2","","","382.19999999925494","h","elianto","#f73b6a7A","32","32","1","0","1232.800000000745","1","2","","","","","","","5ee95e0e8737a0304baac70a&order=&STUDY_ID=61f02a8661f82b834564f044","44","3","3","lose","go","0"
"pit-trial","128","801520","0.0-49.0","battery-v0.2","","","337.69999999925494","r","elianto","#3366ff99","-1","32","0","0","1188.800000000745","1","2","","","","","","","5ee95e0e8737a0304baac70a&order=&STUDY_ID=61f02a8661f82b834564f044","45","1","2","win","no-go","0"
"pit-trial","129","804661","0.0-50.0","battery-v0.2","","","283.0999999977648","h","elianto","#f73b6a7A","32","32","1","-10","1134.7999999970198","1","2","","","","","","","5ee95e0e8737a0304baac70a&order=&STUDY_ID=61f02a8661f82b834564f044","46","3","3","lose","go","1"
"pit-trial","130","807800","0.0-51.0","battery-v0.2","","","281.69999999925494","y","elianto","#3366ff99","32","32","1","+10","1131.800000000745","1","2","","","","","","","5ee95e0e8737a0304baac70a&order=&STUDY_ID=61f02a8661f82b834564f044","47","2","1","win","go","0"
"pit-trial","131","810911","0.0-52.0","battery-v0.2","","","251.19999999925494","m","elianto","#3366ff99","-1","32","0","0","1103.300000000745","1","2","","","","","","","5ee95e0e8737a0304baac70a&order=&STUDY_ID=61f02a8661f82b834564f044","48","0","2","win","no-go","0"
"pit-trial","132","814237","0.0-53.0","battery-v0.2","","","466.5","y","elianto","#3366ff99","32","32","1","+10","1317.6000000014901","1","2","","","","","","","5ee95e0e8737a0304baac70a&order=&STUDY_ID=61f02a8661f82b834564f044","49","2","1","win","go","0"
"pit-trial","133","819097","0.0-54.0","battery-v0.2","","","-1","r","elianto","#3366ff99","-1","-1","1","0","3827","1","2","","","","","","","5ee95e0e8737a0304baac70a&order=&STUDY_ID=61f02a8661f82b834564f044","50","1","2","win","no-go","1"
"pit-trial","134","822601","0.0-55.0","battery-v0.2","","","654.6000000014901","m","elianto","#3366ff99","-1","32","0","0","1505.1000000014901","1","2","","","","","","","5ee95e0e8737a0304baac70a&order=&STUDY_ID=61f02a8661f82b834564f044","51","0","2","win","no-go","0"
"pit-trial","135","826071","0.0-56.0","battery-v0.2","","","615.3000000007451","h","elianto","#f73b6a7A","32","32","1","-10","1465.5","1","2","","","","","","","5ee95e0e8737a0304baac70a&order=&STUDY_ID=61f02a8661f82b834564f044","52","3","3","lose","go","1"
"pit-trial","136","829742","0.0-57.0","battery-v0.2","","","814.5","y","elianto","#3366ff99","32","32","1","+10","1667.300000000745","1","2","","","","","","","5ee95e0e8737a0304baac70a&order=&STUDY_ID=61f02a8661f82b834564f044","53","2","1","win","go","0"
"pit-trial","137","833344","0.0-58.0","battery-v0.2","","","744.7000000029802","z","elianto","#f73b6a7A","-1","32","0","-10","1596.300000000745","1","2","","","","","","","5ee95e0e8737a0304baac70a&order=&STUDY_ID=61f02a8661f82b834564f044","54","4","4","lose","no-go","0"
"pit-trial","138","837556","0.0-59.0","battery-v0.2","","","1357.7000000029802","m","elianto","#3366ff99","-1","32","0","0","2207.800000000745","1","2","","","","","","","5ee95e0e8737a0304baac70a&order=&STUDY_ID=61f02a8661f82b834564f044","55","0","2","win","no-go","0"
"pit-trial","139","840846","0.0-60.0","battery-v0.2","","","431.4000000022352","c","elianto","#f73b6a7A","32","32","1","0","1281.800000000745","1","2","","","","","","","5ee95e0e8737a0304baac70a&order=&STUDY_ID=61f02a8661f82b834564f044","56","5","3","lose","go","0"
"pit-trial","140","844103","0.0-61.0","battery-v0.2","","","404","c","elianto","#f73b6a7A","32","32","1","0","1254.300000000745","1","2","","","","","","","5ee95e0e8737a0304baac70a&order=&STUDY_ID=61f02a8661f82b834564f044","57","5","3","lose","go","0"
"pit-trial","141","847429","0.0-62.0","battery-v0.2","","","469.3999999985099","y","elianto","#3366ff99","32","32","1","+10","1319.4000000022352","1","2","","","","","","","5ee95e0e8737a0304baac70a&order=&STUDY_ID=61f02a8661f82b834564f044","58","2","1","win","go","0"
"pit-trial","142","850812","0.0-63.0","battery-v0.2","","","529","m","elianto","#3366ff99","-1","32","0","0","1378.7999999970198","1","2","","","","","","","5ee95e0e8737a0304baac70a&order=&STUDY_ID=61f02a8661f82b834564f044","59","0","2","win","no-go","0"
"pit-trial","143","854056","0.0-64.0","battery-v0.2","","","390","z","elianto","#f73b6a7A","-1","32","0","0","1240.5","1","2","","","","","","","5ee95e0e8737a0304baac70a&order=&STUDY_ID=61f02a8661f82b834564f044","60","4","4","lose","no-go","1"
"pit-trial","144","857309","0.0-65.0","battery-v0.2","","","397.30000000074506","b","elianto","#3366ff99","-1","32","0","0","1247.7000000029802","1","2","","","","","","","5ee95e0e8737a0304baac70a&order=&STUDY_ID=61f02a8661f82b834564f044","61","6","2","win","no-go","0"
"pit-trial","145","860344","0.0-66.0","battery-v0.2","","","177.30000000074506","y","elianto","#3366ff99","32","32","1","+10","1027.800000000745","1","2","","","","","","","5ee95e0e8737a0304baac70a&order=&STUDY_ID=61f02a8661f82b834564f044","62","2","1","win","go","0"
"pit-trial","146","863738","0.0-67.0","battery-v0.2","","","536.3000000007451","z","elianto","#f73b6a7A","-1","32","0","0","1388.2000000029802","1","2","","","","","","","5ee95e0e8737a0304baac70a&order=&STUDY_ID=61f02a8661f82b834564f044","63","4","4","lose","no-go","1"
"pit-trial","147","867065","0.0-68.0","battery-v0.2","","","467.8999999985099","c","elianto","#f73b6a7A","32","32","1","0","1318.5999999977648","1","2","","","","","","","5ee95e0e8737a0304baac70a&order=&STUDY_ID=61f02a8661f82b834564f044","64","5","3","lose","go","0"
"pit-trial","148","870885","0.0-69.0","battery-v0.2","","","960.6999999992549","b","elianto","#3366ff99","-1","32","0","0","1811.300000000745","1","2","","","","","","","5ee95e0e8737a0304baac70a&order=&STUDY_ID=61f02a8661f82b834564f044","65","6","2","win","no-go","0"
"pit-trial","149","874422","0.0-70.0","battery-v0.2","","","678.3999999985099","y","elianto","#3366ff99","32","32","1","+10","1529,3154.5","2","2","","","","","","","5ee95e0e8737a0304baac70a&order=&STUDY_ID=61f02a8661f82b834564f044","66","2","1","win","go","0"
"pit-trial","150","879281","0.0-71.0","battery-v0.2","","","-1","z","elianto","#f73b6a7A","-1","-1","1","0","","0","2","","","","","","","5ee95e0e8737a0304baac70a&order=&STUDY_ID=61f02a8661f82b834564f044","67","4","4","lose","no-go","0"
"pit-trial","151","883354","0.0-72.0","battery-v0.2","","","1217","c","elianto","#f73b6a7A","32","32","1","0","2067.300000000745","1","2","","","","","","","5ee95e0e8737a0304baac70a&order=&STUDY_ID=61f02a8661f82b834564f044","68","5","3","lose","go","0"
"pit-trial","152","886848","0.0-73.0","battery-v0.2","","","634.0999999977648","t","elianto","#f73b6a7A","-1","32","0","-10","1486.199999999255","1","2","","","","","","","5ee95e0e8737a0304baac70a&order=&STUDY_ID=61f02a8661f82b834564f044","69","7","4","lose","no-go","0"
"pit-trial","153","890609","0.0-74.0","battery-v0.2","","","900","c","elianto","#f73b6a7A","32","32","1","0","1751.2000000029802","1","2","","","","","","","5ee95e0e8737a0304baac70a&order=&STUDY_ID=61f02a8661f82b834564f044","70","5","3","lose","go","0"
"pit-trial","154","893813","0.0-75.0","battery-v0.2","","","349.1000000014901","b","elianto","#3366ff99","-1","32","0","+10","1199.199999999255","1","2","","","","","","","5ee95e0e8737a0304baac70a&order=&STUDY_ID=61f02a8661f82b834564f044","71","6","2","win","no-go","1"
"pit-trial","155","896901","0.0-76.0","battery-v0.2","","","228.70000000298023","z","elianto","#f73b6a7A","-1","32","0","-10","1079.1000000014901","1","2","","","","","","","5ee95e0e8737a0304baac70a&order=&STUDY_ID=61f02a8661f82b834564f044","72","4","4","lose","no-go","0"
"pit-trial","156","900091","0.0-77.0","battery-v0.2","","","328.19999999925494","z","elianto","#f73b6a7A","-1","32","0","-10","1181.800000000745","1","2","","","","","","","5ee95e0e8737a0304baac70a&order=&STUDY_ID=61f02a8661f82b834564f044","73","4","4","lose","no-go","0"
"pit-trial","157","903231","0.0-78.0","battery-v0.2","","","281.30000000074506","t","elianto","#f73b6a7A","-1","32","0","-10","1132.1000000014901","1","2","","","","","","","5ee95e0e8737a0304baac70a&order=&STUDY_ID=61f02a8661f82b834564f044","74","7","4","lose","no-go","0"
"pit-trial","158","906394","0.0-79.0","battery-v0.2","","","308.80000000074506","b","elianto","#3366ff99","-1","32","0","0","1158.7999999970198","1","2","","","","","","","5ee95e0e8737a0304baac70a&order=&STUDY_ID=61f02a8661f82b834564f044","75","6","2","win","no-go","0"
"pit-trial","159","909539","0.0-80.0","battery-v0.2","","","289.6000000014901","c","elianto","#f73b6a7A","32","32","1","0","1140.3999999985099","1","2","","","","","","","5ee95e0e8737a0304baac70a&order=&STUDY_ID=61f02a8661f82b834564f044","76","5","3","lose","go","0"
"pit-trial","160","912656","0.0-81.0","battery-v0.2","","","259.8999999985099","b","elianto","#3366ff99","-1","32","0","0","1110.7999999970198","1","2","","","","","","","5ee95e0e8737a0304baac70a&order=&STUDY_ID=61f02a8661f82b834564f044","77","6","2","win","no-go","0"
"pit-trial","161","915798","0.0-82.0","battery-v0.2","","","285","c","elianto","#f73b6a7A","32","32","1","0","1135.300000000745","1","2","","","","","","","5ee95e0e8737a0304baac70a&order=&STUDY_ID=61f02a8661f82b834564f044","78","5","3","lose","go","0"
"pit-trial","162","918816","0.0-83.0","battery-v0.2","","","161.60000000149012","t","elianto","#f73b6a7A","-1","32","0","-10","1013.7000000029802","1","2","","","","","","","5ee95e0e8737a0304baac70a&order=&STUDY_ID=61f02a8661f82b834564f044","79","7","4","lose","no-go","0"
"pit-trial","163","921851","0.0-84.0","battery-v0.2","","","175.39999999850988","z","elianto","#f73b6a7A","-1","32","0","-10","1027.1000000014901","1","2","","","","","","","5ee95e0e8737a0304baac70a&order=&STUDY_ID=61f02a8661f82b834564f044","80","4","4","lose","no-go","0"
"pit-trial","164","925356","0.0-85.0","battery-v0.2","","","649.3999999985099","z","elianto","#f73b6a7A","-1","32","0","-10","1499.5999999977648","1","2","","","","","","","5ee95e0e8737a0304baac70a&order=&STUDY_ID=61f02a8661f82b834564f044","81","4","4","lose","no-go","0"
"pit-trial","165","928278","0.0-86.0","battery-v0.2","","","67.5","b","elianto","#3366ff99","-1","32","0","0","918.6999999992549","1","2","","","","","","","5ee95e0e8737a0304baac70a&order=&STUDY_ID=61f02a8661f82b834564f044","82","6","2","win","no-go","0"
"pit-trial","166","931273","0.0-87.0","battery-v0.2","","","134.60000000149012","c","elianto","#f73b6a7A","32","32","1","0","985.6999999992549","1","2","","","","","","","5ee95e0e8737a0304baac70a&order=&STUDY_ID=61f02a8661f82b834564f044","83","5","3","lose","go","0"
"pit-trial","167","936131","0.0-88.0","battery-v0.2","","","-1","t","elianto","#f73b6a7A","-1","-1","1","0","","0","2","","","","","","","5ee95e0e8737a0304baac70a&order=&STUDY_ID=61f02a8661f82b834564f044","84","7","4","lose","no-go","0"
"pit-trial","168","939804","0.0-89.0","battery-v0.2","","","812.6999999992549","z","elianto","#f73b6a7A","-1","32","0","-10","705.3000000007451,1664.5999999977648","2","2","","","","","","","5ee95e0e8737a0304baac70a&order=&STUDY_ID=61f02a8661f82b834564f044","85","4","4","lose","no-go","0"
"pit-trial","169","942853","0.0-90.0","battery-v0.2","","","195.69999999925494","t","elianto","#f73b6a7A","-1","32","0","-10","1046.300000000745","1","2","","","","","","","5ee95e0e8737a0304baac70a&order=&STUDY_ID=61f02a8661f82b834564f044","86","7","4","lose","no-go","0"
"pit-trial","170","945834","0.0-91.0","battery-v0.2","","","127.30000000074506","c","elianto","#f73b6a7A","32","32","1","0","977.3999999985099","1","2","","","","","","","5ee95e0e8737a0304baac70a&order=&STUDY_ID=61f02a8661f82b834564f044","87","5","3","lose","go","0"
"pit-trial","171","950697","0.0-92.0","battery-v0.2","","","-1","b","elianto","#3366ff99","-1","-1","1","+10","","0","2","","","","","","","5ee95e0e8737a0304baac70a&order=&STUDY_ID=61f02a8661f82b834564f044","88","6","2","win","no-go","0"
"pit-trial","172","954341","0.0-93.0","battery-v0.2","","","788.4000000022352","t","elianto","#f73b6a7A","-1","32","0","-10","493.79999999701977,1638.5999999977648","2","2","","","","","","","5ee95e0e8737a0304baac70a&order=&STUDY_ID=61f02a8661f82b834564f044","89","7","4","lose","no-go","0"
"pit-trial","173","957614","0.0-94.0","battery-v0.2","","","413.3999999985099","c","elianto","#f73b6a7A","32","32","1","0","1264.0999999977648","1","2","","","","","","","5ee95e0e8737a0304baac70a&order=&STUDY_ID=61f02a8661f82b834564f044","90","5","3","lose","go","0"
"pit-trial","174","960848","0.0-95.0","battery-v0.2","","","373.5999999977648","b","elianto","#3366ff99","-1","32","0","0","1225.300000000745","1","2","","","","","","","5ee95e0e8737a0304baac70a&order=&STUDY_ID=61f02a8661f82b834564f044","91","6","2","win","no-go","0"
"pit-trial","175","964128","0.0-96.0","battery-v0.2","","","423.19999999925494","z","elianto","#f73b6a7A","-1","32","0","-10","1274.5","1","2","","","","","","","5ee95e0e8737a0304baac70a&order=&STUDY_ID=61f02a8661f82b834564f044","92","4","4","lose","no-go","0"
"pit-trial","176","967305","0.0-97.0","battery-v0.2","","","318.9000000022352","t","elianto","#f73b6a7A","-1","32","0","-10","1170.4000000022352","1","2","","","","","","","5ee95e0e8737a0304baac70a&order=&STUDY_ID=61f02a8661f82b834564f044","93","7","4","lose","no-go","0"
"pit-trial","177","971763","0.0-98.0","battery-v0.2","","","1599.5","c","elianto","#f73b6a7A","32","32","1","0","2450.699999999255","1","2","","","","","","","5ee95e0e8737a0304baac70a&order=&STUDY_ID=61f02a8661f82b834564f044","94","5","3","lose","go","0"
"pit-trial","178","974747","0.0-99.0","battery-v0.2","","","124.80000000074506","x","elianto","#f73b6a7A","-1","32","0","-10","975.3000000007451","1","2","","","","","","","5ee95e0e8737a0304baac70a&order=&STUDY_ID=61f02a8661f82b834564f044","95","8","4","lose","no-go","0"
"pit-trial","179","978065","0.0-100.0","battery-v0.2","","","458.19999999925494","b","elianto","#3366ff99","-1","32","0","0","1310.2000000029802","1","2","","","","","","","5ee95e0e8737a0304baac70a&order=&STUDY_ID=61f02a8661f82b834564f044","96","6","2","win","no-go","0"
"pit-trial","180","981634","0.0-101.0","battery-v0.2","","","711.9000000022352","x","elianto","#f73b6a7A","-1","32","0","-10","1563.800000000745","1","2","","","","","","","5ee95e0e8737a0304baac70a&order=&STUDY_ID=61f02a8661f82b834564f044","97","8","4","lose","no-go","0"
"pit-trial","181","984843","0.0-102.0","battery-v0.2","","","349.0999999977648","t","elianto","#f73b6a7A","-1","32","0","-10","1199.199999999255","1","2","","","","","","","5ee95e0e8737a0304baac70a&order=&STUDY_ID=61f02a8661f82b834564f044","98","7","4","lose","no-go","0"
"pit-trial","182","989085","0.0-103.0","battery-v0.2","","","1384.8999999985099","c","elianto","#f73b6a7A","32","32","1","-10","2235.89999999851","1","2","","","","","","","5ee95e0e8737a0304baac70a&order=&STUDY_ID=61f02a8661f82b834564f044","99","5","3","lose","go","1"
"pit-trial","183","992382","0.0-104.0","battery-v0.2","","","442.6000000014901","b","elianto","#3366ff99","-1","32","0","0","1293.2000000029802","1","2","","","","","","","5ee95e0e8737a0304baac70a&order=&STUDY_ID=61f02a8661f82b834564f044","100","6","2","win","no-go","0"
"pit-trial","184","996009","0.0-105.0","battery-v0.2","","","768.1999999992549","f","elianto","#3366ff99","32","32","1","0","1619","1","2","","","","","","","5ee95e0e8737a0304baac70a&order=&STUDY_ID=61f02a8661f82b834564f044","101","9","1","win","go","1"
"pit-trial","185","999255","0.0-106.0","battery-v0.2","","","388.30000000074506","x","elianto","#f73b6a7A","-1","32","0","-10","1238.6000000014901","1","2","","","","","","","5ee95e0e8737a0304baac70a&order=&STUDY_ID=61f02a8661f82b834564f044","102","8","4","lose","no-go","0"
"pit-trial","186","1002295","0.0-107.0","battery-v0.2","","","182.40000000223517","b","elianto","#3366ff99","-1","32","0","0","1033","1","2","","","","","","","5ee95e0e8737a0304baac70a&order=&STUDY_ID=61f02a8661f82b834564f044","103","6","2","win","no-go","0"
"pit-trial","187","1005367","0.0-108.0","battery-v0.2","","","212.5","n","elianto","#f73b6a7A","32","32","1","0","1063.3999999985099","1","2","","","","","","","5ee95e0e8737a0304baac70a&order=&STUDY_ID=61f02a8661f82b834564f044","104","10","3","lose","go","0"
"pit-trial","188","1008306","0.0-109.0","battery-v0.2","","","82.39999999850988","n","elianto","#f73b6a7A","32","32","1","-10","934.4000000022352","1","2","","","","","","","5ee95e0e8737a0304baac70a&order=&STUDY_ID=61f02a8661f82b834564f044","105","10","3","lose","go","1"
"pit-trial","189","1011467","0.0-110.0","battery-v0.2","","","301.3999999985099","x","elianto","#f73b6a7A","-1","32","0","0","1153.800000000745","1","2","","","","","","","5ee95e0e8737a0304baac70a&order=&STUDY_ID=61f02a8661f82b834564f044","106","8","4","lose","no-go","1"
"pit-trial","190","1014555","0.0-111.0","battery-v0.2","","","233.69999999925494","b","elianto","#3366ff99","-1","32","0","0","1084.699999999255","1","2","","","","","","","5ee95e0e8737a0304baac70a&order=&STUDY_ID=61f02a8661f82b834564f044","107","6","2","win","no-go","0"
"pit-trial","191","1017705","0.0-112.0","battery-v0.2","","","290.19999999925494","f","elianto","#3366ff99","32","32","1","+10","1140.4000000022352","1","2","","","","","","","5ee95e0e8737a0304baac70a&order=&STUDY_ID=61f02a8661f82b834564f044","108","9","1","win","go","0"
"pit-trial","192","1020935","0.0-113.0","battery-v0.2","","","372","f","elianto","#3366ff99","32","32","1","0","1222.5","1","2","","","","","","","5ee95e0e8737a0304baac70a&order=&STUDY_ID=61f02a8661f82b834564f044","109","9","1","win","go","1"
"pit-trial","193","1023977","0.0-114.0","battery-v0.2","","","185.90000000223517","n","elianto","#f73b6a7A","32","32","1","0","1036.300000000745","1","2","","","","","","","5ee95e0e8737a0304baac70a&order=&STUDY_ID=61f02a8661f82b834564f044","110","10","3","lose","go","0"
"pit-trial","194","1027092","0.0-115.0","battery-v0.2","","","255.90000000223517","q","elianto","#3366ff99","32","32","1","+10","1106.5","1","2","","","","","","","5ee95e0e8737a0304baac70a&order=&STUDY_ID=61f02a8661f82b834564f044","111","11","1","win","go","0"
"pit-trial","195","1030651","0.0-116.0","battery-v0.2","","","699.8000000007451","x","elianto","#f73b6a7A","-1","32","0","-10","1550.800000000745","1","2","","","","","","","5ee95e0e8737a0304baac70a&order=&STUDY_ID=61f02a8661f82b834564f044","112","8","4","lose","no-go","0"
"pit-trial","196","1034312","0.0-117.0","battery-v0.2","","","801.3000000007451","f","elianto","#3366ff99","32","32","1","+10","1652.800000000745","1","2","","","","","","","5ee95e0e8737a0304baac70a&order=&STUDY_ID=61f02a8661f82b834564f044","113","9","1","win","go","0"
"pit-trial","197","1037443","0.0-118.0","battery-v0.2","","","273.5","n","elianto","#f73b6a7A","32","32","1","0","1124.199999999255","1","2","","","","","","","5ee95e0e8737a0304baac70a&order=&STUDY_ID=61f02a8661f82b834564f044","114","10","3","lose","go","0"
"pit-trial","198","1040395","0.0-119.0","battery-v0.2","","","93.20000000298023","q","elianto","#3366ff99","32","32","1","0","945.4000000022352","1","2","","","","","","","5ee95e0e8737a0304baac70a&order=&STUDY_ID=61f02a8661f82b834564f044","115","11","1","win","go","1"
"pit-trial","199","1043725","0.0-120.0","battery-v0.2","","","471.8999999985099","x","elianto","#f73b6a7A","-1","32","0","-10","1322.199999999255","1","2","","","","","","","5ee95e0e8737a0304baac70a&order=&STUDY_ID=61f02a8661f82b834564f044","116","8","4","lose","no-go","0"
"pit-trial","200","1046783","0.0-121.0","battery-v0.2","","","201.20000000298023","f","elianto","#3366ff99","32","32","1","+10","1051.2000000029802","1","2","","","","","","","5ee95e0e8737a0304baac70a&order=&STUDY_ID=61f02a8661f82b834564f044","117","9","1","win","go","0"
"pit-trial","201","1049848","0.0-122.0","battery-v0.2","","","207.20000000298023","q","elianto","#3366ff99","32","32","1","0","1057.800000000745","1","2","","","","","","","5ee95e0e8737a0304baac70a&order=&STUDY_ID=61f02a8661f82b834564f044","118","11","1","win","go","1"
"pit-trial","202","1053146","0.0-123.0","battery-v0.2","","","440.20000000298023","x","elianto","#f73b6a7A","-1","32","0","-10","1293.1000000014901","1","2","","","","","","","5ee95e0e8737a0304baac70a&order=&STUDY_ID=61f02a8661f82b834564f044","119","8","4","lose","no-go","0"
"pit-trial","203","1056215","0.0-124.0","battery-v0.2","","","214.09999999776483","n","elianto","#f73b6a7A","32","32","1","-10","1065","1","2","","","","","","","5ee95e0e8737a0304baac70a&order=&STUDY_ID=61f02a8661f82b834564f044","120","10","3","lose","go","1"
"pit-trial","204","1059535","0.0-125.0","battery-v0.2","","","461.3999999985099","n","elianto","#f73b6a7A","32","32","1","0","1311.5","1","2","","","","","","","5ee95e0e8737a0304baac70a&order=&STUDY_ID=61f02a8661f82b834564f044","121","10","3","lose","go","0"
"pit-trial","205","1062947","0.0-126.0","battery-v0.2","","","553.5999999977648","f","elianto","#3366ff99","32","32","1","+10","1406.2999999970198","1","2","","","","","","","5ee95e0e8737a0304baac70a&order=&STUDY_ID=61f02a8661f82b834564f044","122","9","1","win","go","0"
"pit-trial","206","1066046","0.0-127.0","battery-v0.2","","","239.90000000223517","x","elianto","#f73b6a7A","-1","32","0","-10","1090.300000000745","1","2","","","","","","","5ee95e0e8737a0304baac70a&order=&STUDY_ID=61f02a8661f82b834564f044","123","8","4","lose","no-go","0"
"pit-trial","207","1069170","0.0-128.0","battery-v0.2","","","267.80000000074506","q","elianto","#3366ff99","32","32","1","+10","1118.699999999255","1","2","","","","","","","5ee95e0e8737a0304baac70a&order=&STUDY_ID=61f02a8661f82b834564f044","124","11","1","win","go","0"
"pit-trial","208","1072269","0.0-129.0","battery-v0.2","","","236.5","n","elianto","#f73b6a7A","32","32","1","0","1090.1000000014901","1","2","","","","","","","5ee95e0e8737a0304baac70a&order=&STUDY_ID=61f02a8661f82b834564f044","125","10","3","lose","go","0"
"pit-trial","209","1075261","0.0-130.0","battery-v0.2","","","136.69999999925494","x","elianto","#f73b6a7A","-1","32","0","-10","986.8999999985099","1","2","","","","","","","5ee95e0e8737a0304baac70a&order=&STUDY_ID=61f02a8661f82b834564f044","126","8","4","lose","no-go","0"
"pit-trial","210","1078368","0.0-131.0","battery-v0.2","","","249.89999999850988","q","elianto","#3366ff99","32","32","1","0","1101.8999999985099","1","2","","","","","","","5ee95e0e8737a0304baac70a&order=&STUDY_ID=61f02a8661f82b834564f044","127","11","1","win","go","1"
"pit-trial","211","1082585","0.0-132.0","battery-v0.2","","","1356.699999999255","f","elianto","#3366ff99","32","32","1","+10","2207.2999999970198","1","2","","","","","","","5ee95e0e8737a0304baac70a&order=&STUDY_ID=61f02a8661f82b834564f044","128","9","1","win","go","0"
"pit-trial","212","1085663","0.0-133.0","battery-v0.2","","","218.09999999776483","q","elianto","#3366ff99","32","32","1","+10","1068.3999999985099","1","2","","","","","","","5ee95e0e8737a0304baac70a&order=&STUDY_ID=61f02a8661f82b834564f044","129","11","1","win","go","0"
"pit-trial","213","1088911","0.0-134.0","battery-v0.2","","","390.4000000022352","f","elianto","#3366ff99","32","32","1","+10","1240.3999999985099","1","2","","","","","","","5ee95e0e8737a0304baac70a&order=&STUDY_ID=61f02a8661f82b834564f044","130","9","1","win","go","0"
"pit-trial","214","1092194","0.0-135.0","battery-v0.2","","","422.80000000074506","x","elianto","#f73b6a7A","-1","32","0","0","1274.699999999255","1","2","","","","","","","5ee95e0e8737a0304baac70a&order=&STUDY_ID=61f02a8661f82b834564f044","131","8","4","lose","no-go","1"
"pit-trial","215","1095501","0.0-136.0","battery-v0.2","","","450.5","n","elianto","#f73b6a7A","32","32","1","0","1300.8999999985099","1","2","","","","","","","5ee95e0e8737a0304baac70a&order=&STUDY_ID=61f02a8661f82b834564f044","132","10","3","lose","go","0"
"pit-trial","216","1098496","0.0-137.0","battery-v0.2","","","135.69999999925494","q","elianto","#3366ff99","32","32","1","+10","986.5","1","2","","","","","","","5ee95e0e8737a0304baac70a&order=&STUDY_ID=61f02a8661f82b834564f044","133","11","1","win","go","0"
"pit-trial","217","1101544","0.0-138.0","battery-v0.2","","","189.80000000074506","f","elianto","#3366ff99","32","32","1","+10","1040.0999999977648","1","2","","","","","","","5ee95e0e8737a0304baac70a&order=&STUDY_ID=61f02a8661f82b834564f044","134","9","1","win","go","0"
"pit-trial","218","1104501","0.0-139.0","battery-v0.2","","","99","x","elianto","#f73b6a7A","-1","32","0","0","949.6999999992549","1","2","","","","","","","5ee95e0e8737a0304baac70a&order=&STUDY_ID=61f02a8661f82b834564f044","135","8","4","lose","no-go","1"
"pit-trial","219","1107540","0.0-140.0","battery-v0.2","","","185.09999999776483","n","elianto","#f73b6a7A","32","32","1","0","1035.5","1","2","","","","","","","5ee95e0e8737a0304baac70a&order=&STUDY_ID=61f02a8661f82b834564f044","136","10","3","lose","go","0"
"pit-trial","220","1110490","0.0-141.0","battery-v0.2","","","94.10000000149012","n","elianto","#f73b6a7A","32","32","1","0","944.8999999985099","1","2","","","","","","","5ee95e0e8737a0304baac70a&order=&STUDY_ID=61f02a8661f82b834564f044","137","10","3","lose","go","0"
"pit-trial","221","1113630","0.0-142.0","battery-v0.2","","","286.1000000014901","f","elianto","#3366ff99","32","32","1","+10","1136.2000000029802","1","2","","","","","","","5ee95e0e8737a0304baac70a&order=&STUDY_ID=61f02a8661f82b834564f044","138","9","1","win","go","0"
"pit-trial","222","1116810","0.0-143.0","battery-v0.2","","","324.30000000074506","x","elianto","#f73b6a7A","-1","32","0","-10","1176","1","2","","","","","","","5ee95e0e8737a0304baac70a&order=&STUDY_ID=61f02a8661f82b834564f044","139","8","4","lose","no-go","0"
"pit-trial","223","1120317","0.0-144.0","battery-v0.2","","","649","q","elianto","#3366ff99","32","32","1","0","818.7000000029802,1501.7000000029802","2","2","","","","","","","5ee95e0e8737a0304baac70a&order=&STUDY_ID=61f02a8661f82b834564f044","140","11","1","win","go","1"
"pit-instructions","224","1122535","0.0-145.0","battery-v0.2","","[{""page_index"":0,""viewing_time"":1996.699999999255},{""page_index"":1,""viewing_time"":217}]","2214.60000000149","","","","","","","","","","","","","","","","","","","","","","",""
"pit-trial","225","1125516","0.0-146.0","battery-v0.2","","","116.69999999925494","l","elianto","#f73b6a7A","32","32","1","0","967.9000000022352","1","3","","","","","","","5ee95e0e8737a0304baac70a&order=&STUDY_ID=61f02a8661f82b834564f044","141","1","3","lose","go","0"
"pit-trial","226","1128627","0.0-147.0","battery-v0.2","","","251.10000000149012","a","elianto","#f73b6a7A","-1","32","0","0","1102.300000000745","1","3","","","","","","","5ee95e0e8737a0304baac70a&order=&STUDY_ID=61f02a8661f82b834564f044","142","2","4","lose","no-go","1"
"pit-trial","227","1131756","0.0-148.0","battery-v0.2","","","270.1000000014901","g","elianto","#3366ff99","32","32","1","0","584,1120.199999999255","2","3","","","","","","","5ee95e0e8737a0304baac70a&order=&STUDY_ID=61f02a8661f82b834564f044","143","3","1","win","go","1"
"pit-trial","228","1134723","0.0-149.0","battery-v0.2","","","109.89999999850988","u","elianto","#3366ff99","-1","32","0","0","961","1","3","","","","","","","5ee95e0e8737a0304baac70a&order=&STUDY_ID=61f02a8661f82b834564f044","144","0","2","win","no-go","0"
"pit-trial","229","1137911","0.0-150.0","battery-v0.2","","","331.3999999985099","a","elianto","#f73b6a7A","-1","32","0","0","1181.800000000745","1","3","","","","","","","5ee95e0e8737a0304baac70a&order=&STUDY_ID=61f02a8661f82b834564f044","145","2","4","lose","no-go","1"
"pit-trial","230","1140901","0.0-151.0","battery-v0.2","","","133.29999999701977","u","elianto","#3366ff99","-1","32","0","+10","984.3000000007451","1","3","","","","","","","5ee95e0e8737a0304baac70a&order=&STUDY_ID=61f02a8661f82b834564f044","146","0","2","win","no-go","1"
"pit-trial","231","1143987","0.0-152.0","battery-v0.2","","","226.60000000149012","g","elianto","#3366ff99","32","32","1","+10","1077.5","1","3","","","","","","","5ee95e0e8737a0304baac70a&order=&STUDY_ID=61f02a8661f82b834564f044","147","3","1","win","go","0"
"pit-trial","232","1146977","0.0-153.0","battery-v0.2","","","129.89999999850988","l","elianto","#f73b6a7A","32","32","1","0","980.6999999992549","1","3","","","","","","","5ee95e0e8737a0304baac70a&order=&STUDY_ID=61f02a8661f82b834564f044","148","1","3","lose","go","0"
"pit-trial","233","1150142","0.0-154.0","battery-v0.2","","","305.80000000074506","a","elianto","#f73b6a7A","-1","32","0","0","1156.5","1","3","","","","","","","5ee95e0e8737a0304baac70a&order=&STUDY_ID=61f02a8661f82b834564f044","149","2","4","lose","no-go","1"
"pit-trial","234","1153177","0.0-155.0","battery-v0.2","","","176.5","l","elianto","#f73b6a7A","32","32","1","0","1027.5","1","3","","","","","","","5ee95e0e8737a0304baac70a&order=&STUDY_ID=61f02a8661f82b834564f044","150","1","3","lose","go","0"
"pit-trial","235","1156396","0.0-156.0","battery-v0.2","","","360.8999999985099","u","elianto","#3366ff99","-1","32","0","0","477.8999999985099,1211.800000000745","2","3","","","","","","","5ee95e0e8737a0304baac70a&order=&STUDY_ID=61f02a8661f82b834564f044","151","0","2","win","no-go","0"
"pit-trial","236","1159605","0.0-157.0","battery-v0.2","","","352.1000000014901","g","elianto","#3366ff99","32","32","1","+10","1203.2000000029802","1","3","","","","","","","5ee95e0e8737a0304baac70a&order=&STUDY_ID=61f02a8661f82b834564f044","152","3","1","win","go","0"
"pit-trial","237","1162652","0.0-158.0","battery-v0.2","","","187.70000000298023","u","elianto","#3366ff99","-1","32","0","0","1037.800000000745","1","3","","","","","","","5ee95e0e8737a0304baac70a&order=&STUDY_ID=61f02a8661f82b834564f044","153","0","2","win","no-go","0"
"pit-trial","238","1165728","0.0-159.0","battery-v0.2","","","217.10000000149012","g","elianto","#3366ff99","32","32","1","+10","1068.2000000029802,1851.4000000022352","2","3","","","","","","","5ee95e0e8737a0304baac70a&order=&STUDY_ID=61f02a8661f82b834564f044","154","3","1","win","go","0"
"pit-trial","239","1168885","0.0-160.0","battery-v0.2","","","299.80000000074506","l","elianto","#f73b6a7A","32","32","1","-10","568.8000000007451,1150.5","2","3","","","","","","","5ee95e0e8737a0304baac70a&order=&STUDY_ID=61f02a8661f82b834564f044","155","1","3","lose","go","1"
"pit-trial","240","1171937","0.0-161.0","battery-v0.2","","","193.39999999850988","a","elianto","#f73b6a7A","-1","32","0","0","1045","1","3","","","","","","","5ee95e0e8737a0304baac70a&order=&STUDY_ID=61f02a8661f82b834564f044","156","2","4","lose","no-go","1"
"pit-trial","241","1175017","0.0-162.0","battery-v0.2","","","222.39999999850988","g","elianto","#3366ff99","32","32","1","+10","1075,1723.300000000745,2648.300000000745","3","3","","","","","","","5ee95e0e8737a0304baac70a&order=&STUDY_ID=61f02a8661f82b834564f044","157","3","1","win","go","0"
"pit-trial","242","1178570","0.0-163.0","battery-v0.2","","","693.8999999985099","a","elianto","#f73b6a7A","-1","32","0","-10","1545.800000000745","1","3","","","","","","","5ee95e0e8737a0304baac70a&order=&STUDY_ID=61f02a8661f82b834564f044","158","2","4","lose","no-go","0"
"pit-trial","243","1183435","0.0-164.0","battery-v0.2","","","-1","u","elianto","#3366ff99","-1","-1","1","0","115.60000000149012,3683.10000000149","2","3","","","","","","","5ee95e0e8737a0304baac70a&order=&STUDY_ID=61f02a8661f82b834564f044","159","0","2","win","no-go","1"
"pit-trial","244","1188297","0.0-165.0","battery-v0.2","","","-1","l","elianto","#f73b6a7A","32","-1","0","-10","","0","3","","","","","","","5ee95e0e8737a0304baac70a&order=&STUDY_ID=61f02a8661f82b834564f044","160","1","3","lose","go","0"
"pit-trial","245","1193148","0.0-166.0","battery-v0.2","","","1994.5999999977648","g","elianto","#3366ff99","32","32","1","+10","2844.699999999255","1","3","","","","","","","5ee95e0e8737a0304baac70a&order=&STUDY_ID=61f02a8661f82b834564f044","161","3","1","win","go","0"
"pit-trial","246","1198005","0.0-167.0","battery-v0.2","","","-1","l","elianto","#f73b6a7A","32","-1","0","-10","","0","3","","","","","","","5ee95e0e8737a0304baac70a&order=&STUDY_ID=61f02a8661f82b834564f044","162","1","3","lose","go","0"
"pit-trial","247","1201582","0.0-168.0","battery-v0.2","","","719.6999999992549","a","elianto","#f73b6a7A","-1","32","0","0","1570","1","3","","","","","","","5ee95e0e8737a0304baac70a&order=&STUDY_ID=61f02a8661f82b834564f044","163","2","4","lose","no-go","1"
"pit-trial","248","1206443","0.0-169.0","battery-v0.2","","","-1","u","elianto","#3366ff99","-1","-1","1","+10","3425.800000000745","1","3","","","","","","","5ee95e0e8737a0304baac70a&order=&STUDY_ID=61f02a8661f82b834564f044","164","0","2","win","no-go","0"
"pit-trial","249","1209619","0.0-170.0","battery-v0.2","","","318.9000000022352","u","elianto","#3366ff99","-1","32","0","+10","614.1000000014901,1169.800000000745","2","3","","","","","","","5ee95e0e8737a0304baac70a&order=&STUDY_ID=61f02a8661f82b834564f044","165","0","2","win","no-go","1"
"pit-trial","250","1212836","0.0-171.0","battery-v0.2","","","357.19999999925494","a","elianto","#f73b6a7A","-1","32","0","-10","1208","1","3","","","","","","","5ee95e0e8737a0304baac70a&order=&STUDY_ID=61f02a8661f82b834564f044","166","2","4","lose","no-go","0"
"pit-trial","251","1216097","0.0-172.0","battery-v0.2","","","401.3999999985099","l","elianto","#f73b6a7A","32","32","1","0","1251.800000000745","1","3","","","","","","","5ee95e0e8737a0304baac70a&order=&STUDY_ID=61f02a8661f82b834564f044","167","1","3","lose","go","0"
"pit-trial","252","1219405","0.0-173.0","battery-v0.2","","","449.30000000074506","g","elianto","#3366ff99","32","32","1","+10","1299.800000000745","1","3","","","","","","","5ee95e0e8737a0304baac70a&order=&STUDY_ID=61f02a8661f82b834564f044","168","3","1","win","go","0"
"pit-trial","253","1222512","0.0-174.0","battery-v0.2","","","247.90000000223517","a","elianto","#f73b6a7A","-1","32","0","0","1098.1000000014901","1","3","","","","","","","5ee95e0e8737a0304baac70a&order=&STUDY_ID=61f02a8661f82b834564f044","169","2","4","lose","no-go","1"
"pit-trial","254","1226186","0.0-175.0","battery-v0.2","","","816.8000000007451","l","elianto","#f73b6a7A","32","32","1","0","1667.300000000745","1","3","","","","","","","5ee95e0e8737a0304baac70a&order=&STUDY_ID=61f02a8661f82b834564f044","170","1","3","lose","go","0"
"pit-trial","255","1229118","0.0-176.0","battery-v0.2","","","76.09999999776483","g","elianto","#3366ff99","32","32","1","0","926.3999999985099,1784.5","2","3","","","","","","","5ee95e0e8737a0304baac70a&order=&STUDY_ID=61f02a8661f82b834564f044","171","3","1","win","go","1"
"pit-trial","256","1232384","0.0-177.0","battery-v0.2","","","406.9000000022352","u","elianto","#3366ff99","-1","32","0","0","1257.300000000745,3022.099999997765","2","3","","","","","","","5ee95e0e8737a0304baac70a&order=&STUDY_ID=61f02a8661f82b834564f044","172","0","2","win","no-go","0"
"pit-trial","257","1235411","0.0-178.0","battery-v0.2","","","171.19999999925494","p","elianto","#f73b6a7A","32","32","1","0","1021.8000000007451","1","3","","","","","","","5ee95e0e8737a0304baac70a&order=&STUDY_ID=61f02a8661f82b834564f044","173","4","3","lose","go","0"
"pit-trial","258","1238573","0.0-179.0","battery-v0.2","","","303.5","l","elianto","#f73b6a7A","32","32","1","0","1155","1","3","","","","","","","5ee95e0e8737a0304baac70a&order=&STUDY_ID=61f02a8661f82b834564f044","174","1","3","lose","go","0"
"pit-trial","259","1242043","0.0-180.0","battery-v0.2","","","614.5","s","elianto","#f73b6a7A","-1","32","0","-10","812.6000000014901,1466.1000000014901","2","3","","","","","","","5ee95e0e8737a0304baac70a&order=&STUDY_ID=61f02a8661f82b834564f044","175","5","4","lose","no-go","0"
"pit-trial","260","1246490","0.0-181.0","battery-v0.2","","","1587","a","elianto","#f73b6a7A","-1","32","0","-10","2438.10000000149","1","3","","","","","","","5ee95e0e8737a0304baac70a&order=&STUDY_ID=61f02a8661f82b834564f044","176","2","4","lose","no-go","0"
"pit-trial","261","1251082","0.0-182.0","battery-v0.2","","","1735","p","elianto","#f73b6a7A","32","32","1","0","2586.5","1","3","","","","","","","5ee95e0e8737a0304baac70a&order=&STUDY_ID=61f02a8661f82b834564f044","177","4","3","lose","go","0"
"pit-trial","262","1254358","0.0-183.0","battery-v0.2","","","418.5999999977648","a","elianto","#f73b6a7A","-1","32","0","-10","1269.0999999977648","1","3","","","","","","","5ee95e0e8737a0304baac70a&order=&STUDY_ID=61f02a8661f82b834564f044","178","2","4","lose","no-go","0"
"pit-trial","263","1258328","0.0-184.0","battery-v0.2","","","1115","l","elianto","#f73b6a7A","32","32","1","0","1965.4000000022352,2541.400000002235","2","3","","","","","","","5ee95e0e8737a0304baac70a&order=&STUDY_ID=61f02a8661f82b834564f044","179","1","3","lose","go","0"
"pit-trial","264","1263056","0.0-185.0","battery-v0.2","","","1868.9000000022352","s","elianto","#f73b6a7A","-1","32","0","-10","2719.300000000745","1","3","","","","","","","5ee95e0e8737a0304baac70a&order=&STUDY_ID=61f02a8661f82b834564f044","180","5","4","lose","no-go","0"
"pit-trial","265","1266138","0.0-186.0","battery-v0.2","","","223","p","elianto","#f73b6a7A","32","32","1","-10","1075","1","3","","","","","","","5ee95e0e8737a0304baac70a&order=&STUDY_ID=61f02a8661f82b834564f044","181","4","3","lose","go","1"
"pit-trial","266","1269535","0.0-187.0","battery-v0.2","","","539.4000000022352","w","elianto","#3366ff99","-1","32","0","+10","701.2000000029802,1389.7000000029802","2","3","","","","","","","5ee95e0e8737a0304baac70a&order=&STUDY_ID=61f02a8661f82b834564f044","182","6","2","win","no-go","1"
"pit-trial","267","1273051","0.0-188.0","battery-v0.2","","","659.1999999992549","s","elianto","#f73b6a7A","-1","32","0","0","585.6999999992549,1511,3354.800000000745","3","3","","","","","","","5ee95e0e8737a0304baac70a&order=&STUDY_ID=61f02a8661f82b834564f044","183","5","4","lose","no-go","1"
"pit-trial","268","1276175","0.0-189.0","battery-v0.2","","","265.69999999925494","a","elianto","#f73b6a7A","-1","32","0","-10","1117.199999999255","1","3","","","","","","","5ee95e0e8737a0304baac70a&order=&STUDY_ID=61f02a8661f82b834564f044","184","2","4","lose","no-go","0"
"pit-trial","269","1279564","0.0-190.0","battery-v0.2","","","533.8000000007451","p","elianto","#f73b6a7A","32","32","1","-10","1385.3999999985099,3384.699999999255","2","3","","","","","","","5ee95e0e8737a0304baac70a&order=&STUDY_ID=61f02a8661f82b834564f044","185","4","3","lose","go","1"
"pit-trial","270","1283569","0.0-191.0","battery-v0.2","","","1143.300000000745","s","elianto","#f73b6a7A","-1","32","0","-10","1995.800000000745","1","3","","","","","","","5ee95e0e8737a0304baac70a&order=&STUDY_ID=61f02a8661f82b834564f044","186","5","4","lose","no-go","0"
"pit-trial","271","1286970","0.0-192.0","battery-v0.2","","","546.6000000014901","a","elianto","#f73b6a7A","-1","32","0","-10","1396.9000000022352","1","3","","","","","","","5ee95e0e8737a0304baac70a&order=&STUDY_ID=61f02a8661f82b834564f044","187","2","4","lose","no-go","0"
"pit-trial","272","1290074","0.0-193.0","battery-v0.2","","","245.30000000074506","w","elianto","#3366ff99","-1","32","0","0","1096.1000000014901,1977.9000000022352,3037.60000000149","3","3","","","","","","","5ee95e0e8737a0304baac70a&order=&STUDY_ID=61f02a8661f82b834564f044","188","6","2","win","no-go","0"
"pit-trial","273","1294929","0.0-194.0","battery-v0.2","","","-1","w","elianto","#3366ff99","-1","-1","1","+10","4114.099999997765","1","3","","","","","","","5ee95e0e8737a0304baac70a&order=&STUDY_ID=61f02a8661f82b834564f044","189","6","2","win","no-go","0"
"pit-trial","274","1298493","0.0-195.0","battery-v0.2","","","707.3999999985099","e","elianto","#3366ff99","32","32","1","0","1557.8999999985099,2831.300000000745","2","3","","","","","","","5ee95e0e8737a0304baac70a&order=&STUDY_ID=61f02a8661f82b834564f044","190","7","1","win","go","1"
"pit-trial","275","1301852","0.0-196.0","battery-v0.2","","","500.69999999925494","s","elianto","#f73b6a7A","-1","32","0","-10","1350.6000000014901","1","3","","","","","","","5ee95e0e8737a0304baac70a&order=&STUDY_ID=61f02a8661f82b834564f044","191","5","4","lose","no-go","0"
"pit-trial","276","1305327","0.0-197.0","battery-v0.2","","","614.6999999992549","p","elianto","#f73b6a7A","32","32","1","0","1467.0999999977648","1","3","","","","","","","5ee95e0e8737a0304baac70a&order=&STUDY_ID=61f02a8661f82b834564f044","192","4","3","lose","go","0"
"pit-trial","277","1308633","0.0-198.0","battery-v0.2","","","449.19999999925494","s","elianto","#f73b6a7A","-1","32","0","0","1301","1","3","","","","","","","5ee95e0e8737a0304baac70a&order=&STUDY_ID=61f02a8661f82b834564f044","193","5","4","lose","no-go","1"
"pit-trial","278","1312104","0.0-199.0","battery-v0.2","","","616.3000000007451","p","elianto","#f73b6a7A","32","32","1","0","1466.3999999985099","1","3","","","","","","","5ee95e0e8737a0304baac70a&order=&STUDY_ID=61f02a8661f82b834564f044","194","4","3","lose","go","0"
"pit-trial","279","1316298","0.0-200.0","battery-v0.2","","","1333.5999999977648","e","elianto","#3366ff99","32","32","1","0","2184.699999999255","1","3","","","","","","","5ee95e0e8737a0304baac70a&order=&STUDY_ID=61f02a8661f82b834564f044","195","7","1","win","go","1"
"pit-trial","280","1319369","0.0-201.0","battery-v0.2","","","215.30000000074506","w","elianto","#3366ff99","-1","32","0","0","1066.800000000745","1","3","","","","","","","5ee95e0e8737a0304baac70a&order=&STUDY_ID=61f02a8661f82b834564f044","196","6","2","win","no-go","0"
"pit-trial","281","1323328","0.0-202.0","battery-v0.2","","","1102.3999999985099","p","elianto","#f73b6a7A","32","32","1","0","1952.3999999985099","1","3","","","","","","","5ee95e0e8737a0304baac70a&order=&STUDY_ID=61f02a8661f82b834564f044","197","4","3","lose","go","0"
"pit-trial","282","1326659","0.0-203.0","battery-v0.2","","","471.5","s","elianto","#f73b6a7A","-1","32","0","0","1322.4000000022352","1","3","","","","","","","5ee95e0e8737a0304baac70a&order=&STUDY_ID=61f02a8661f82b834564f044","198","5","4","lose","no-go","1"
"pit-trial","283","1329973","0.0-204.0","battery-v0.2","","","454.80000000074506","e","elianto","#3366ff99","32","32","1","+10","1305.199999999255","1","3","","","","","","","5ee95e0e8737a0304baac70a&order=&STUDY_ID=61f02a8661f82b834564f044","199","7","1","win","go","0"
"pit-trial","284","1332919","0.0-205.0","battery-v0.2","","","85","w","elianto","#3366ff99","-1","32","0","0","937.1000000014901","1","3","","","","","","","5ee95e0e8737a0304baac70a&order=&STUDY_ID=61f02a8661f82b834564f044","200","6","2","win","no-go","0"
"pit-trial","285","1336253","0.0-206.0","battery-v0.2","","","479.19999999925494","s","elianto","#f73b6a7A","-1","32","0","-10","1330.0999999977648","1","3","","","","","","","5ee95e0e8737a0304baac70a&order=&STUDY_ID=61f02a8661f82b834564f044","201","5","4","lose","no-go","0"
"pit-trial","286","1339647","0.0-207.0","battery-v0.2","","","536.4000000022352","w","elianto","#3366ff99","-1","32","0","0","1387.300000000745","1","3","","","","","","","5ee95e0e8737a0304baac70a&order=&STUDY_ID=61f02a8661f82b834564f044","202","6","2","win","no-go","0"
"pit-trial","287","1342869","0.0-208.0","battery-v0.2","","","360.8999999985099","e","elianto","#3366ff99","32","32","1","+10","1212.5","1","3","","","","","","","5ee95e0e8737a0304baac70a&order=&STUDY_ID=61f02a8661f82b834564f044","203","7","1","win","go","0"
"pit-trial","288","1346032","0.0-209.0","battery-v0.2","","","308.3999999985099","p","elianto","#f73b6a7A","32","32","1","0","1158.699999999255","1","3","","","","","","","5ee95e0e8737a0304baac70a&order=&STUDY_ID=61f02a8661f82b834564f044","204","4","3","lose","go","0"
"pit-trial","289","1349529","0.0-210.0","battery-v0.2","","","637.8999999985099","p","elianto","#f73b6a7A","32","32","1","0","829.3999999985099,1488.1000000014901","2","3","","","","","","","5ee95e0e8737a0304baac70a&order=&STUDY_ID=61f02a8661f82b834564f044","205","4","3","lose","go","0"
"pit-trial","290","1352700","0.0-211.0","battery-v0.2","","","315.6000000014901","e","elianto","#3366ff99","32","32","1","0","1166.800000000745","1","3","","","","","","","5ee95e0e8737a0304baac70a&order=&STUDY_ID=61f02a8661f82b834564f044","206","7","1","win","go","1"
"pit-trial","291","1355901","0.0-212.0","battery-v0.2","","","345.30000000074506","s","elianto","#f73b6a7A","-1","32","0","-10","1195.300000000745","1","3","","","","","","","5ee95e0e8737a0304baac70a&order=&STUDY_ID=61f02a8661f82b834564f044","207","5","4","lose","no-go","0"
"pit-trial","292","1359290","0.0-213.0","battery-v0.2","","","527.8999999985099","w","elianto","#3366ff99","-1","32","0","0","1379.3999999985099","1","3","","","","","","","5ee95e0e8737a0304baac70a&order=&STUDY_ID=61f02a8661f82b834564f044","208","6","2","win","no-go","0"
"pit-trial","293","1362652","0.0-214.0","battery-v0.2","","","505.80000000074506","e","elianto","#3366ff99","32","32","1","+10","1355.9000000022352","1","3","","","","","","","5ee95e0e8737a0304baac70a&order=&STUDY_ID=61f02a8661f82b834564f044","209","7","1","win","go","0"
"pit-trial","294","1366229","0.0-215.0","battery-v0.2","","","722.5999999977648","w","elianto","#3366ff99","-1","32","0","0","1572.800000000745","1","3","","","","","","","5ee95e0e8737a0304baac70a&order=&STUDY_ID=61f02a8661f82b834564f044","210","6","2","win","no-go","0"
"pit-trial","295","1369311","0.0-216.0","battery-v0.2","","","222.69999999925494","p","elianto","#f73b6a7A","32","32","1","0","1074.9000000022352","1","3","","","","","","","5ee95e0e8737a0304baac70a&order=&STUDY_ID=61f02a8661f82b834564f044","211","4","3","lose","go","0"
"pit-trial","296","1373045","0.0-217.0","battery-v0.2","","","874.3000000007451","s","elianto","#f73b6a7A","-1","32","0","0","1724.8999999985099","1","3","","","","","","","5ee95e0e8737a0304baac70a&order=&STUDY_ID=61f02a8661f82b834564f044","212","5","4","lose","no-go","1"
"pit-trial","297","1376342","0.0-218.0","battery-v0.2","","","437.69999999925494","w","elianto","#3366ff99","-1","32","0","+10","739.5,1288.4000000022352","2","3","","","","","","","5ee95e0e8737a0304baac70a&order=&STUDY_ID=61f02a8661f82b834564f044","213","6","2","win","no-go","1"
"pit-trial","298","1379654","0.0-219.0","battery-v0.2","","","451.5","e","elianto","#3366ff99","32","32","1","+10","1301.8999999985099","1","3","","","","","","","5ee95e0e8737a0304baac70a&order=&STUDY_ID=61f02a8661f82b834564f044","214","7","1","win","go","0"
"pit-trial","299","1382716","0.0-220.0","battery-v0.2","","","205.39999999850988","k","elianto","#3366ff99","32","32","1","+10","352.4000000022352,1056.5","2","3","","","","","","","5ee95e0e8737a0304baac70a&order=&STUDY_ID=61f02a8661f82b834564f044","215","8","1","win","go","0"
"pit-trial","300","1386052","0.0-221.0","battery-v0.2","","","475.9000000022352","p","elianto","#f73b6a7A","32","32","1","-10","1328.1000000014901","1","3","","","","","","","5ee95e0e8737a0304baac70a&order=&STUDY_ID=61f02a8661f82b834564f044","216","4","3","lose","go","1"
"pit-trial","301","1389429","0.0-222.0","battery-v0.2","","","518.6999999992549","w","elianto","#3366ff99","-1","32","0","0","805.0999999977648,1370","2","3","","","","","","","5ee95e0e8737a0304baac70a&order=&STUDY_ID=61f02a8661f82b834564f044","217","6","2","win","no-go","0"
"pit-trial","302","1393623","0.0-223.0","battery-v0.2","","","1337.800000000745","p","elianto","#f73b6a7A","32","32","1","0","2188.699999999255","1","3","","","","","","","5ee95e0e8737a0304baac70a&order=&STUDY_ID=61f02a8661f82b834564f044","218","4","3","lose","go","0"
"pit-trial","303","1396954","0.0-224.0","battery-v0.2","","","471.5","e","elianto","#3366ff99","32","32","1","+10","1324","1","3","","","","","","","5ee95e0e8737a0304baac70a&order=&STUDY_ID=61f02a8661f82b834564f044","219","7","1","win","go","0"
"pit-trial","304","1399941","0.0-225.0","battery-v0.2","","","130.90000000223517","k","elianto","#3366ff99","32","32","1","+10","981.1999999992549","1","3","","","","","","","5ee95e0e8737a0304baac70a&order=&STUDY_ID=61f02a8661f82b834564f044","220","8","1","win","go","0"
"pit-trial","305","1403124","0.0-226.0","battery-v0.2","","","325.30000000074506","w","elianto","#3366ff99","-1","32","0","+10","1176.1000000014901","1","3","","","","","","","5ee95e0e8737a0304baac70a&order=&STUDY_ID=61f02a8661f82b834564f044","221","6","2","win","no-go","1"
"pit-trial","306","1406382","0.0-227.0","battery-v0.2","","","402.5","e","elianto","#3366ff99","32","32","1","0","236.59999999776483,803.0999999977648,1252.5999999977648,2700.5","4","3","","","","","","","5ee95e0e8737a0304baac70a&order=&STUDY_ID=61f02a8661f82b834564f044","222","7","1","win","go","1"
"pit-trial","307","1409409","0.0-228.0","battery-v0.2","","","170.30000000074506","d","elianto","#3366ff99","-1","32","0","0","1021.3000000007451,2460.699999999255","2","3","","","","","","","5ee95e0e8737a0304baac70a&order=&STUDY_ID=61f02a8661f82b834564f044","223","9","2","win","no-go","0"
"pit-trial","308","1412988","0.0-229.0","battery-v0.2","","","722.3000000007451","k","elianto","#3366ff99","32","32","1","+10","1573.199999999255","1","3","","","","","","","5ee95e0e8737a0304baac70a&order=&STUDY_ID=61f02a8661f82b834564f044","224","8","1","win","go","0"
"pit-trial","309","1416674","0.0-230.0","battery-v0.2","","","828.8999999985099","e","elianto","#3366ff99","32","32","1","+10","1680,3038.900000002235","2","3","","","","","","","5ee95e0e8737a0304baac70a&order=&STUDY_ID=61f02a8661f82b834564f044","225","7","1","win","go","0"
"pit-trial","310","1420975","0.0-231.0","battery-v0.2","","","1442","k","elianto","#3366ff99","32","32","1","+10","2292.5","1","3","","","","","","","5ee95e0e8737a0304baac70a&order=&STUDY_ID=61f02a8661f82b834564f044","226","8","1","win","go","0"
"pit-trial","311","1424542","0.0-232.0","battery-v0.2","","","709.6999999992549","w","elianto","#3366ff99","-1","32","0","0","1559.800000000745","1","3","","","","","","","5ee95e0e8737a0304baac70a&order=&STUDY_ID=61f02a8661f82b834564f044","227","6","2","win","no-go","0"
"pit-trial","312","1427775","0.0-233.0","battery-v0.2","","","373.5999999977648","d","elianto","#3366ff99","-1","32","0","0","627.5999999977648,1224","2","3","","","","","","","5ee95e0e8737a0304baac70a&order=&STUDY_ID=61f02a8661f82b834564f044","228","9","2","win","no-go","0"
"pit-trial","313","1431304","0.0-234.0","battery-v0.2","","","672.1999999992549","k","elianto","#3366ff99","32","32","1","+10","1522.5,2032.9000000022352","2","3","","","","","","","5ee95e0e8737a0304baac70a&order=&STUDY_ID=61f02a8661f82b834564f044","229","8","1","win","go","0"
"pit-trial","314","1434497","0.0-235.0","battery-v0.2","","","336.4000000022352","d","elianto","#3366ff99","-1","32","0","0","1188.800000000745,3085.800000000745","2","3","","","","","","","5ee95e0e8737a0304baac70a&order=&STUDY_ID=61f02a8661f82b834564f044","230","9","2","win","no-go","0"
"pit-trial","315","1437531","0.0-236.0","battery-v0.2","","","179.19999999925494","j","elianto","#f73b6a7A","32","32","1","0","1029.5","1","3","","","","","","","5ee95e0e8737a0304baac70a&order=&STUDY_ID=61f02a8661f82b834564f044","231","10","3","lose","go","0"
"pit-trial","316","1441163","0.0-237.0","battery-v0.2","","","776.3999999985099","v","elianto","#f73b6a7A","-1","32","0","-10","1626.5","1","3","","","","","","","5ee95e0e8737a0304baac70a&order=&STUDY_ID=61f02a8661f82b834564f044","232","11","4","lose","no-go","0"
"pit-trial","317","1444763","0.0-238.0","battery-v0.2","","","740.6000000014901","d","elianto","#3366ff99","-1","32","0","0","1590.800000000745","1","3","","","","","","","5ee95e0e8737a0304baac70a&order=&STUDY_ID=61f02a8661f82b834564f044","233","9","2","win","no-go","0"
"pit-trial","318","1448044","0.0-239.0","battery-v0.2","","","426.5","k","elianto","#3366ff99","32","32","1","0","1277.199999999255","1","3","","","","","","","5ee95e0e8737a0304baac70a&order=&STUDY_ID=61f02a8661f82b834564f044","234","8","1","win","go","1"
"pit-trial","319","1451305","0.0-240.0","battery-v0.2","","","405.9000000022352","j","elianto","#f73b6a7A","32","32","1","0","1256.6000000014901","1","3","","","","","","","5ee95e0e8737a0304baac70a&order=&STUDY_ID=61f02a8661f82b834564f044","235","10","3","lose","go","0"
"pit-trial","320","1454651","0.0-241.0","battery-v0.2","","","486.69999999925494","v","elianto","#f73b6a7A","-1","32","0","-10","1336.9000000022352","1","3","","","","","","","5ee95e0e8737a0304baac70a&order=&STUDY_ID=61f02a8661f82b834564f044","236","11","4","lose","no-go","0"
"pit-trial","321","1457529","0.0-242.0","battery-v0.2","","","22.5","k","elianto","#3366ff99","32","32","1","0","873.5","1","3","","","","","","","5ee95e0e8737a0304baac70a&order=&STUDY_ID=61f02a8661f82b834564f044","237","8","1","win","go","1"
"pit-trial","322","1460770","0.0-243.0","battery-v0.2","","","384.69999999925494","d","elianto","#3366ff99","-1","32","0","0","1235.0999999977648","1","3","","","","","","","5ee95e0e8737a0304baac70a&order=&STUDY_ID=61f02a8661f82b834564f044","238","9","2","win","no-go","0"
"pit-trial","323","1464360","0.0-244.0","battery-v0.2","","","731.4000000022352","j","elianto","#f73b6a7A","32","32","1","0","740.6000000014901,1582.300000000745","2","3","","","","","","","5ee95e0e8737a0304baac70a&order=&STUDY_ID=61f02a8661f82b834564f044","239","10","3","lose","go","0"
"pit-trial","324","1468407","0.0-245.0","battery-v0.2","","","1188.699999999255","v","elianto","#f73b6a7A","-1","32","0","-10","2039","1","3","","","","","","","5ee95e0e8737a0304baac70a&order=&STUDY_ID=61f02a8661f82b834564f044","240","11","4","lose","no-go","0"
"pit-trial","325","1473036","0.0-246.0","battery-v0.2","","","1771.5","d","elianto","#3366ff99","-1","32","0","+10","2621.599999997765","1","3","","","","","","","5ee95e0e8737a0304baac70a&order=&STUDY_ID=61f02a8661f82b834564f044","241","9","2","win","no-go","1"
"pit-trial","326","1476204","0.0-247.0","battery-v0.2","","","309.30000000074506","k","elianto","#3366ff99","32","32","1","+10","1159.8999999985099","1","3","","","","","","","5ee95e0e8737a0304baac70a&order=&STUDY_ID=61f02a8661f82b834564f044","242","8","1","win","go","0"
"pit-trial","327","1479244","0.0-248.0","battery-v0.2","","","179.60000000149012","v","elianto","#f73b6a7A","-1","32","0","-10","1032.1000000014901","1","3","","","","","","","5ee95e0e8737a0304baac70a&order=&STUDY_ID=61f02a8661f82b834564f044","243","11","4","lose","no-go","0"
"pit-trial","328","1482369","0.0-249.0","battery-v0.2","","","268","j","elianto","#f73b6a7A","32","32","1","-10","1119.800000000745","1","3","","","","","","","5ee95e0e8737a0304baac70a&order=&STUDY_ID=61f02a8661f82b834564f044","244","10","3","lose","go","1"
"pit-trial","329","1485524","0.0-250.0","battery-v0.2","","","298.80000000074506","d","elianto","#3366ff99","-1","32","0","0","1148.8999999985099","1","3","","","","","","","5ee95e0e8737a0304baac70a&order=&STUDY_ID=61f02a8661f82b834564f044","245","9","2","win","no-go","0"
"pit-trial","330","1488645","0.0-251.0","battery-v0.2","","","264.5","v","elianto","#f73b6a7A","-1","32","0","-10","380.5,1116.199999999255","2","3","","","","","","","5ee95e0e8737a0304baac70a&order=&STUDY_ID=61f02a8661f82b834564f044","246","11","4","lose","no-go","0"
"pit-trial","331","1491987","0.0-252.0","battery-v0.2","","","485.8999999985099","j","elianto","#f73b6a7A","32","32","1","-10","1335.8999999985099","1","3","","","","","","","5ee95e0e8737a0304baac70a&order=&STUDY_ID=61f02a8661f82b834564f044","247","10","3","lose","go","1"
"pit-trial","332","1495301","0.0-253.0","battery-v0.2","","","454.8999999985099","k","elianto","#3366ff99","32","32","1","+10","1308.3999999985099","1","3","","","","","","","5ee95e0e8737a0304baac70a&order=&STUDY_ID=61f02a8661f82b834564f044","248","8","1","win","go","0"
"pit-trial","333","1498411","0.0-254.0","battery-v0.2","","","255.19999999925494","k","elianto","#3366ff99","32","32","1","+10","1105.5,2174.300000000745","2","3","","","","","","","5ee95e0e8737a0304baac70a&order=&STUDY_ID=61f02a8661f82b834564f044","249","8","1","win","go","0"
"pit-trial","334","1503265","0.0-255.0","battery-v0.2","","","-1","d","elianto","#3366ff99","-1","-1","1","+10","3150.300000000745","1","3","","","","","","","5ee95e0e8737a0304baac70a&order=&STUDY_ID=61f02a8661f82b834564f044","250","9","2","win","no-go","0"
"pit-trial","335","1506556","0.0-256.0","battery-v0.2","","","434.5999999977648","j","elianto","#f73b6a7A","32","32","1","0","141.89999999850988,1284.8999999985099","2","3","","","","","","","5ee95e0e8737a0304baac70a&order=&STUDY_ID=61f02a8661f82b834564f044","251","10","3","lose","go","0"
"pit-trial","336","1509560","0.0-257.0","battery-v0.2","","","142.89999999850988","v","elianto","#f73b6a7A","-1","32","0","-10","310.69999999925494,994.8999999985099","2","3","","","","","","","5ee95e0e8737a0304baac70a&order=&STUDY_ID=61f02a8661f82b834564f044","252","11","4","lose","no-go","0"
"pit-trial","337","1512824","0.0-258.0","battery-v0.2","","","408","d","elianto","#3366ff99","-1","32","0","+10","661.4000000022352,1258.9000000022352","2","3","","","","","","","5ee95e0e8737a0304baac70a&order=&STUDY_ID=61f02a8661f82b834564f044","253","9","2","win","no-go","1"
"pit-trial","338","1516220","0.0-259.0","battery-v0.2","","","538.1999999992549","v","elianto","#f73b6a7A","-1","32","0","0","1389.199999999255","1","3","","","","","","","5ee95e0e8737a0304baac70a&order=&STUDY_ID=61f02a8661f82b834564f044","254","11","4","lose","no-go","1"
"pit-trial","339","1519307","0.0-260.0","battery-v0.2","","","232.20000000298023","k","elianto","#3366ff99","32","32","1","+10","1082.6000000014901","1","3","","","","","","","5ee95e0e8737a0304baac70a&order=&STUDY_ID=61f02a8661f82b834564f044","255","8","1","win","go","0"
"pit-trial","340","1522620","0.0-261.0","battery-v0.2","","","452.5","j","elianto","#f73b6a7A","32","32","1","-10","1304.0999999977648","1","3","","","","","","","5ee95e0e8737a0304baac70a&order=&STUDY_ID=61f02a8661f82b834564f044","256","10","3","lose","go","1"
"pit-trial","341","1525854","0.0-262.0","battery-v0.2","","","377.5999999977648","d","elianto","#3366ff99","-1","32","0","0","1228.199999999255","1","3","","","","","","","5ee95e0e8737a0304baac70a&order=&STUDY_ID=61f02a8661f82b834564f044","257","9","2","win","no-go","0"
"pit-trial","342","1529736","0.0-263.0","battery-v0.2","","","1022.6000000014901","j","elianto","#f73b6a7A","32","32","1","0","1872.5999999977648","1","3","","","","","","","5ee95e0e8737a0304baac70a&order=&STUDY_ID=61f02a8661f82b834564f044","258","10","3","lose","go","0"
"pit-trial","343","1532953","0.0-264.0","battery-v0.2","","","357.19999999925494","k","elianto","#3366ff99","32","32","1","+10","1207.5","1","3","","","","","","","5ee95e0e8737a0304baac70a&order=&STUDY_ID=61f02a8661f82b834564f044","259","8","1","win","go","0"
"pit-trial","344","1536348","0.0-265.0","battery-v0.2","","","538.3000000007451","v","elianto","#f73b6a7A","-1","32","0","-10","1390.3999999985099","1","3","","","","","","","5ee95e0e8737a0304baac70a&order=&STUDY_ID=61f02a8661f82b834564f044","260","11","4","lose","no-go","0"
