"trial_type","trial_index","time_elapsed","internal_node_id","task_version","view_history","rt","rune","rune_set","hex","correct","choice","accuracy","outcome","keys","total_keys","block","practice","value","responses","num_errors","sub","trial","stimulus","robot","valence","action","sham"
"pavlovia","0","27","0.0-0.0","battery-v0.2","","","","","","","","","","","","","","","","","","","","","","",""
"pit-instructions","1","72400","0.0-1.0-0.0","battery-v0.2","[{""page_index"":0,""viewing_time"":3794.2999999970198},{""page_index"":1,""viewing_time"":4143.29999999702},{""page_index"":2,""viewing_time"":10378.5},{""page_index"":3,""viewing_time"":10785.70000000298},{""page_index"":4,""viewing_time"":4076.4000000059605},{""page_index"":5,""viewing_time"":4864.70000000298},{""page_index"":6,""viewing_time"":5814.199999988079},{""page_index"":7,""viewing_time"":16003.10000000894},{""page_index"":8,""viewing_time"":7147.70000000298},{""page_index"":9,""viewing_time"":5354}]","72362.79999999702","","","","","","","","","","","","","","","","","","","","",""
"pit-trial","2","75965","0.0-1.0-1.0-0.0","battery-v0.2","","847.1000000089407","1","elianto","#3366ff99","32","32","1","+10","2351.199999988079","1","0","1","","","","","","","","","",""
"pit-trial","3","79982","0.0-1.0-1.1-0.1","battery-v0.2","","-1","1","elianto","#3366ff99","32","-1","0","+1","","0","0","1","","","","","","","","","",""
"pit-trial","4","83046","0.0-1.0-1.2-0.2","battery-v0.2","","350.90000000596046","1","elianto","#3366ff99","32","32","1","+10","1851.2000000029802","1","0","1","","","","","","","","","",""
"pit-trial","5","86594","0.0-1.0-1.3-0.3","battery-v0.2","","836.0999999940395","1","elianto","#3366ff99","32","32","1","+10","2336.5","1","0","1","","","","","","","","","",""
"pit-trial","6","89899","0.0-1.0-1.4-0.4","battery-v0.2","","594.5","1","elianto","#3366ff99","32","32","1","+10","2094.7999999970198","1","0","1","","","","","","","","","",""
"call-function","7","89904","0.0-1.0-2.0","battery-v0.2","","","","","","","","","","","","","","","","","","","","","","",""
"pit-instructions","8","101166","0.0-1.0-3.0","battery-v0.2","[{""page_index"":0,""viewing_time"":9042.39999999106},{""page_index"":1,""viewing_time"":2218.2000000029802}]","11261.09999999404","","","","","","","","","","","","","","","","","","","","",""
"pit-trial","9","105174","0.0-1.0-4.0-0.0","battery-v0.2","","-1","2","elianto","#3366ff99","-1","-1","1","+10","","0","0","2","","","","","","","","","",""
"pit-trial","10","109189","0.0-1.0-4.1-0.1","battery-v0.2","","-1","2","elianto","#3366ff99","-1","-1","1","+10","","0","0","2","","","","","","","","","",""
"pit-trial","11","113202","0.0-1.0-4.2-0.2","battery-v0.2","","-1","2","elianto","#3366ff99","-1","-1","1","+10","","0","0","2","","","","","","","","","",""
"pit-trial","12","117212","0.0-1.0-4.3-0.3","battery-v0.2","","-1","2","elianto","#3366ff99","-1","-1","1","+10","","0","0","2","","","","","","","","","",""
"call-function","13","117216","0.0-1.0-5.0","battery-v0.2","","","","","","","","","","","","","","","","","","","","","","",""
"pit-instructions","14","165510","0.0-1.0-6.0","battery-v0.2","[{""page_index"":0,""viewing_time"":45709.30000001192},{""page_index"":1,""viewing_time"":2581.699999988079}]","48291.5","","","","","","","","","","","","","","","","","","","","",""
"pit-trial","15","169060","0.0-1.0-7.0-0.0","battery-v0.2","","835","3","elianto","#f73b6a7A","-1","32","0","-10","2337.5999999940395","1","0","3","","","","","","","","","",""
"pit-trial","16","173075","0.0-1.0-7.1-0.1","battery-v0.2","","-1","3","elianto","#f73b6a7A","-1","-1","1","-1","","0","0","3","","","","","","","","","",""
"pit-trial","17","177088","0.0-1.0-7.2-0.2","battery-v0.2","","-1","3","elianto","#f73b6a7A","-1","-1","1","-1","","0","0","3","","","","","","","","","",""
"pit-trial","18","181103","0.0-1.0-7.3-0.3","battery-v0.2","","-1","3","elianto","#f73b6a7A","-1","-1","1","-1","","0","0","3","","","","","","","","","",""
"call-function","19","181108","0.0-1.0-8.0","battery-v0.2","","","","","","","","","","","","","","","","","","","","","","",""
"pit-instructions","20","190730","0.0-1.0-9.0","battery-v0.2","[{""page_index"":0,""viewing_time"":7458.70000000298},{""page_index"":1,""viewing_time"":2162.2999999970198}]","9621.5","","","","","","","","","","","","","","","","","","","","",""
"pit-trial","21","194059","0.0-1.0-10.0-0.0","battery-v0.2","","618.5","4","elianto","#f73b6a7A","32","32","1","-1","2119","1","0","4","","","","","","","","","",""
"pit-trial","22","198070","0.0-1.0-10.1-0.1","battery-v0.2","","-1","4","elianto","#f73b6a7A","32","-1","0","-10","","0","0","4","","","","","","","","","",""
"pit-trial","23","201009","0.0-1.0-10.2-0.2","battery-v0.2","","230.70000000298023","4","elianto","#f73b6a7A","32","32","1","-1","1731.0999999940395","1","0","4","","","","","","","","","",""
"pit-trial","24","203947","0.0-1.0-10.3-0.3","battery-v0.2","","227.40000000596046","4","elianto","#f73b6a7A","32","32","1","-1","1727.7999999970198","1","0","4","","","","","","","","","",""
"pit-trial","25","206980","0.0-1.0-10.4-0.4","battery-v0.2","","322.5","4","elianto","#f73b6a7A","32","32","1","-1","1824.2000000029802","1","0","4","","","","","","","","","",""
"call-function","26","206987","0.0-1.0-11.0","battery-v0.2","","","","","","","","","","","","","","","","","","","","","","",""
"pit-instructions","27","223472","0.0-1.0-12.0","battery-v0.2","[{""page_index"":0,""viewing_time"":1233.7999999970198},{""page_index"":1,""viewing_time"":1071.5},{""page_index"":2,""viewing_time"":1025.1000000089407},{""page_index"":3,""viewing_time"":3861.0999999940395},{""page_index"":4,""viewing_time"":5521.100000008941},{""page_index"":5,""viewing_time"":3769.5}]","16482.70000000298","","","","","","","","","","","","","","","","","","","","",""
"pit-comprehension","28","247709","0.0-1.0-13.0","battery-v0.2","","24228.09999999404","","","","","","","","","","","","","Press SPACE,+10,-1,True,True","0","","","","","","",""
"pit-instructions","29","254924","0.0-2.0","battery-v0.2","[{""page_index"":0,""viewing_time"":2428.4000000059605},{""page_index"":1,""viewing_time"":4771.4000000059605}]","7200.5","","","","","","","","","","","","","","","","","","","","",""
"pit-trial","30","258377","0.0-3.0","battery-v0.2","","736.7000000029802","R","bacs1","#3366ff99","32","32","1","+10","2239.2999999970198","1","1","","","","","test","1","3","1","win","go","0"
"pit-trial","31","262390","0.0-4.0","battery-v0.2","","-1","B","bacs1","#3366ff99","-1","-1","1","+10","","0","1","","","","","test","2","0","2","win","no-go","0"
"pit-trial","32","265941","0.0-5.0","battery-v0.2","","836.8999999910593","Z","bacs1","#f73b6a7A","32","32","1","-1","2339.0999999940395","1","1","","","","","test","3","1","3","lose","go","0"
"pit-trial","33","269959","0.0-6.0","battery-v0.2","","-1","J","bacs1","#f73b6a7A","-1","-1","1","-1","","0","1","","","","","test","4","2","4","lose","no-go","0"
"pit-trial","34","273973","0.0-7.0","battery-v0.2","","-1","J","bacs1","#f73b6a7A","-1","-1","1","-10","","0","1","","","","","test","5","2","4","lose","no-go","1"
"pit-trial","35","277693","0.0-8.0","battery-v0.2","","1009.9000000059605","R","bacs1","#3366ff99","32","32","1","+10","2510.1000000089407","1","1","","","","","test","6","3","1","win","go","0"
"pit-trial","36","281707","0.0-9.0","battery-v0.2","","-1","Z","bacs1","#f73b6a7A","32","-1","0","-1","","0","1","","","","","test","7","1","3","lose","go","1"
"pit-trial","37","285720","0.0-10.0","battery-v0.2","","-1","B","bacs1","#3366ff99","-1","-1","1","+10","","0","1","","","","","test","8","0","2","win","no-go","0"
"pit-trial","38","289088","0.0-11.0","battery-v0.2","","661.2999999970198","R","bacs1","#3366ff99","32","32","1","+1","2161.7000000029802","1","1","","","","","test","9","3","1","win","go","1"
"pit-trial","39","293103","0.0-12.0","battery-v0.2","","-1","Z","bacs1","#f73b6a7A","32","-1","0","-10","","0","1","","","","","test","10","1","3","lose","go","0"
"pit-trial","40","297120","0.0-13.0","battery-v0.2","","-1","B","bacs1","#3366ff99","-1","-1","1","+10","","0","1","","","","","test","11","0","2","win","no-go","0"
"pit-trial","41","300645","0.0-14.0","battery-v0.2","","811.5","J","bacs1","#f73b6a7A","-1","32","0","-10","2312.0999999940395","1","1","","","","","test","12","2","4","lose","no-go","0"
"pit-trial","42","304136","0.0-15.0","battery-v0.2","","781.4000000059605","R","bacs1","#3366ff99","32","32","1","+10","2283.9000000059605","1","1","","","","","test","13","3","1","win","go","0"
"pit-trial","43","307947","0.0-16.0","battery-v0.2","","1101","J","bacs1","#f73b6a7A","-1","32","0","-1","2601.2000000029802","1","1","","","","","test","14","2","4","lose","no-go","1"
"pit-trial","44","311956","0.0-17.0","battery-v0.2","","-1","B","bacs1","#3366ff99","-1","-1","1","+10","","0","1","","","","","test","15","0","2","win","no-go","0"
"pit-trial","45","315787","0.0-18.0","battery-v0.2","","1117","Z","bacs1","#f73b6a7A","32","32","1","-1","2617.5999999940395","1","1","","","","","test","16","1","3","lose","go","0"
"pit-trial","46","319805","0.0-19.0","battery-v0.2","","-1","B","bacs1","#3366ff99","-1","-1","1","+1","","0","1","","","","","test","17","0","2","win","no-go","1"
"pit-trial","47","323643","0.0-20.0","battery-v0.2","","1128.6000000089407","J","bacs1","#f73b6a7A","-1","32","0","-10","2629","1","1","","","","","test","18","2","4","lose","no-go","0"
"pit-trial","48","327119","0.0-21.0","battery-v0.2","","765.8999999910593","R","bacs1","#3366ff99","32","32","1","+10","2267.699999988079","1","1","","","","","test","19","3","1","win","go","0"
"pit-trial","49","331134","0.0-22.0","battery-v0.2","","-1","Z","bacs1","#f73b6a7A","32","-1","0","-1","","0","1","","","","","test","20","1","3","lose","go","1"
"pit-trial","50","335150","0.0-23.0","battery-v0.2","","-1","J","bacs1","#f73b6a7A","-1","-1","1","-1","","0","1","","","","","test","21","2","4","lose","no-go","0"
"pit-trial","51","338394","0.0-24.0","battery-v0.2","","531.6000000089407","R","bacs1","#3366ff99","32","32","1","+10","2032.4000000059605","1","1","","","","","test","22","3","1","win","go","0"
"pit-trial","52","342410","0.0-25.0","battery-v0.2","","-1","B","bacs1","#3366ff99","-1","-1","1","+10","","0","1","","","","","test","23","0","2","win","no-go","0"
"pit-trial","53","345747","0.0-26.0","battery-v0.2","","624.4000000059605","Z","bacs1","#f73b6a7A","32","32","1","-1","2124.7000000029802","1","1","","","","","test","24","1","3","lose","go","0"
"pit-trial","54","349756","0.0-27.0","battery-v0.2","","-1","J","bacs1","#f73b6a7A","-1","-1","1","-1","","0","1","","","","","test","25","2","4","lose","no-go","0"
"pit-trial","55","353764","0.0-28.0","battery-v0.2","","-1","B","bacs1","#3366ff99","-1","-1","1","+10","","0","1","","","","","test","26","0","2","win","no-go","0"
"pit-trial","56","356954","0.0-29.0","battery-v0.2","","472.69999998807907","R","bacs1","#3366ff99","32","32","1","+10","1977.8999999910593","1","1","","","","","test","27","3","1","win","go","0"
"pit-trial","57","360965","0.0-30.0","battery-v0.2","","-1","Z","bacs1","#f73b6a7A","32","-1","0","-10","","0","1","","","","","test","28","1","3","lose","go","0"
"pit-trial","58","364259","0.0-31.0","battery-v0.2","","584.4000000059605","Z","bacs1","#f73b6a7A","32","32","1","-10","2085","1","1","","","","","test","29","1","3","lose","go","1"
"pit-trial","59","367819","0.0-32.0","battery-v0.2","","846.8999999910593","J","bacs1","#f73b6a7A","-1","32","0","-10","2348.699999988079","1","1","","","","","test","30","2","4","lose","no-go","0"
"pit-trial","60","371448","0.0-33.0","battery-v0.2","","916.5","R","bacs1","#3366ff99","32","32","1","+10","2420.2000000029802","1","1","","","","","test","31","3","1","win","go","0"
"pit-trial","61","375461","0.0-34.0","battery-v0.2","","-1","B","bacs1","#3366ff99","-1","-1","1","+10","","0","1","","","","","test","32","0","2","win","no-go","0"
"pit-trial","62","379160","0.0-35.0","battery-v0.2","","987.1000000089407","V","bacs1","#f73b6a7A","32","32","1","-1","2487.6000000089407","1","1","","","","","test","33","4","3","lose","go","0"
"pit-trial","63","383171","0.0-36.0","battery-v0.2","","-1","J","bacs1","#f73b6a7A","-1","-1","1","-10","","0","1","","","","","test","34","2","4","lose","no-go","1"
"pit-trial","64","386750","0.0-37.0","battery-v0.2","","871","E","bacs1","#f73b6a7A","-1","32","0","-10","2371.1000000089407","1","1","","","","","test","35","5","4","lose","no-go","0"
"pit-trial","65","390761","0.0-38.0","battery-v0.2","","-1","Z","bacs1","#f73b6a7A","32","-1","0","-10","","0","1","","","","","test","36","1","3","lose","go","0"
"pit-trial","66","394775","0.0-39.0","battery-v0.2","","-1","J","bacs1","#f73b6a7A","-1","-1","1","-1","","0","1","","","","","test","37","2","4","lose","no-go","0"
"pit-trial","67","398792","0.0-40.0","battery-v0.2","","-1","Z","bacs1","#f73b6a7A","32","-1","0","-10","2812.699999988079","1","1","","","","","test","38","1","3","lose","go","0"
"pit-trial","68","402034","0.0-41.0","battery-v0.2","","531.3999999910593","V","bacs1","#f73b6a7A","32","32","1","-1","2032.2000000029802","1","1","","","","","test","39","4","3","lose","go","0"
"pit-trial","69","406047","0.0-42.0","battery-v0.2","","-1","E","bacs1","#f73b6a7A","-1","-1","1","-1","","0","1","","","","","test","40","5","4","lose","no-go","0"
"pit-trial","70","410057","0.0-43.0","battery-v0.2","","-1","E","bacs1","#f73b6a7A","-1","-1","1","-1","","0","1","","","","","test","41","5","4","lose","no-go","0"
"pit-trial","71","413591","0.0-44.0","battery-v0.2","","825","T","bacs1","#3366ff99","-1","32","0","+1","2325.7000000029802","1","1","","","","","test","42","6","2","win","no-go","0"
"pit-trial","72","417604","0.0-45.0","battery-v0.2","","-1","J","bacs1","#f73b6a7A","-1","-1","1","-10","","0","1","","","","","test","43","2","4","lose","no-go","1"
"pit-trial","73","421534","0.0-46.0","battery-v0.2","","1221.2999999970198","V","bacs1","#f73b6a7A","32","32","1","-10","2722.0999999940395","1","1","","","","","test","44","4","3","lose","go","1"
"pit-trial","74","425497","0.0-47.0","battery-v0.2","","1253.2999999970198","J","bacs1","#f73b6a7A","-1","32","0","-1","2753.5","1","1","","","","","test","45","2","4","lose","no-go","1"
"pit-trial","75","429512","0.0-48.0","battery-v0.2","","-1","T","bacs1","#3366ff99","-1","-1","1","+10","2831.9000000059605","1","1","","","","","test","46","6","2","win","no-go","0"
"pit-trial","76","433432","0.0-49.0","battery-v0.2","","1208.0999999940395","V","bacs1","#f73b6a7A","32","32","1","-1","2711.3999999910593","1","1","","","","","test","47","4","3","lose","go","0"
"pit-trial","77","437448","0.0-50.0","battery-v0.2","","-1","E","bacs1","#f73b6a7A","-1","-1","1","-1","","0","1","","","","","test","48","5","4","lose","no-go","0"
"pit-trial","78","441196","0.0-51.0","battery-v0.2","","1037.7000000029802","V","bacs1","#f73b6a7A","32","32","1","-1","2538.4000000059605","1","1","","","","","test","49","4","3","lose","go","0"
"pit-trial","79","444869","0.0-52.0","battery-v0.2","","958.2999999970198","T","bacs1","#3366ff99","-1","32","0","+1","2459.7000000029802","1","1","","","","","test","50","6","2","win","no-go","0"
"pit-trial","80","448886","0.0-53.0","battery-v0.2","","-1","F","bacs1","#3366ff99","32","-1","0","+1","","0","1","","","","","test","51","7","1","win","go","0"
"pit-trial","81","452903","0.0-54.0","battery-v0.2","","-1","E","bacs1","#f73b6a7A","-1","-1","1","-1","","0","1","","","","","test","52","5","4","lose","no-go","0"
"pit-trial","82","456418","0.0-55.0","battery-v0.2","","803","F","bacs1","#3366ff99","32","32","1","+1","2303.6000000089407","1","1","","","","","test","53","7","1","win","go","1"
"pit-trial","83","460150","0.0-56.0","battery-v0.2","","1018.5","T","bacs1","#3366ff99","-1","32","0","+1","2518.699999988079","1","1","","","","","test","54","6","2","win","no-go","0"
"pit-trial","84","464168","0.0-57.0","battery-v0.2","","-1","E","bacs1","#f73b6a7A","-1","-1","1","-10","","0","1","","","","","test","55","5","4","lose","no-go","1"
"pit-trial","85","467698","0.0-58.0","battery-v0.2","","814.5","V","bacs1","#f73b6a7A","32","32","1","-1","2317.4000000059605","1","1","","","","","test","56","4","3","lose","go","0"
"pit-trial","86","470825","0.0-59.0","battery-v0.2","","416.79999999701977","V","bacs1","#f73b6a7A","32","32","1","-10","1919.0999999940395","1","1","","","","","test","57","4","3","lose","go","1"
"pit-trial","87","474041","0.0-60.0","battery-v0.2","","507.90000000596046","T","bacs1","#3366ff99","-1","32","0","+10","2008.5","1","1","","","","","test","58","6","2","win","no-go","1"
"pit-trial","88","478050","0.0-61.0","battery-v0.2","","-1","E","bacs1","#f73b6a7A","-1","-1","1","-1","","0","1","","","","","test","59","5","4","lose","no-go","0"
"pit-trial","89","481480","0.0-62.0","battery-v0.2","","722","F","bacs1","#3366ff99","32","32","1","+10","2222.2999999970198","1","1","","","","","test","60","7","1","win","go","0"
"pit-trial","90","485497","0.0-63.0","battery-v0.2","","-1","F","bacs1","#3366ff99","32","-1","0","+10","","0","1","","","","","test","61","7","1","win","go","1"
"pit-trial","91","488813","0.0-64.0","battery-v0.2","","607.7999999970198","V","bacs1","#f73b6a7A","32","32","1","-1","2108","1","1","","","","","test","62","4","3","lose","go","0"
"pit-trial","92","492757","0.0-65.0","battery-v0.2","","1234.2000000029802","T","bacs1","#3366ff99","-1","32","0","+1","2734.7000000029802","1","1","","","","","test","63","6","2","win","no-go","0"
"pit-trial","93","496769","0.0-66.0","battery-v0.2","","-1","E","bacs1","#f73b6a7A","-1","-1","1","-10","","0","1","","","","","test","64","5","4","lose","no-go","1"
"pit-trial","94","500222","0.0-67.0","battery-v0.2","","741.6000000089407","T","bacs1","#3366ff99","-1","32","0","+1","2241.9000000059605","1","1","","","","","test","65","6","2","win","no-go","0"
"pit-trial","95","503449","0.0-68.0","battery-v0.2","","517.7999999970198","F","bacs1","#3366ff99","32","32","1","+1","2018","1","1","","","","","test","66","7","1","win","go","1"
"pit-trial","96","507458","0.0-69.0","battery-v0.2","","-1","E","bacs1","#f73b6a7A","-1","-1","1","-1","","0","1","","","","","test","67","5","4","lose","no-go","0"
"pit-trial","97","511091","0.0-70.0","battery-v0.2","","921.5","V","bacs1","#f73b6a7A","32","32","1","-1","2421.5999999940395","1","1","","","","","test","68","4","3","lose","go","0"
"pit-trial","98","515106","0.0-71.0","battery-v0.2","","-1","F","bacs1","#3366ff99","32","-1","0","+1","","0","1","","","","","test","69","7","1","win","go","0"
"pit-trial","99","518327","0.0-72.0","battery-v0.2","","507.29999999701977","T","bacs1","#3366ff99","-1","32","0","+1","2008.7999999970198","1","1","","","","","test","70","6","2","win","no-go","0"
"pit-trial","100","521993","0.0-73.0","battery-v0.2","","957.9000000059605","V","bacs1","#f73b6a7A","32","32","1","-1","2458.6000000089407","1","1","","","","","test","71","4","3","lose","go","0"
"pit-trial","101","526006","0.0-74.0","battery-v0.2","","-1","E","bacs1","#f73b6a7A","-1","-1","1","-1","","0","1","","","","","test","72","5","4","lose","no-go","0"
"pit-trial","102","529273","0.0-75.0","battery-v0.2","","558.7999999970198","F","bacs1","#3366ff99","32","32","1","+10","2059.7999999970198","1","1","","","","","test","73","7","1","win","go","0"
"pit-trial","103","533287","0.0-76.0","battery-v0.2","","-1","T","bacs1","#3366ff99","-1","-1","1","+10","","0","1","","","","","test","74","6","2","win","no-go","0"
"pit-trial","104","537301","0.0-77.0","battery-v0.2","","-1","A","bacs1","#3366ff99","32","-1","0","+1","","0","1","","","","","test","75","8","1","win","go","0"
"pit-trial","105","540615","0.0-78.0","battery-v0.2","","603","V","bacs1","#f73b6a7A","32","32","1","-1","2104.4000000059605","1","1","","","","","test","76","4","3","lose","go","0"
"pit-trial","106","544631","0.0-79.0","battery-v0.2","","-1","T","bacs1","#3366ff99","-1","-1","1","+10","","0","1","","","","","test","77","6","2","win","no-go","0"
"pit-trial","107","547893","0.0-80.0","battery-v0.2","","553.7000000029802","V","bacs1","#f73b6a7A","32","32","1","-1","2054.1000000089407","1","1","","","","","test","78","4","3","lose","go","0"
"pit-trial","108","551264","0.0-81.0","battery-v0.2","","660.2000000029802","A","bacs1","#3366ff99","32","32","1","+10","2160.5","1","1","","","","","test","79","8","1","win","go","0"
"pit-trial","109","554494","0.0-82.0","battery-v0.2","","522.7999999970198","F","bacs1","#3366ff99","32","32","1","+1","2023.0999999940395","1","1","","","","","test","80","7","1","win","go","1"
"pit-trial","110","558505","0.0-83.0","battery-v0.2","","-1","T","bacs1","#3366ff99","-1","-1","1","+10","","0","1","","","","","test","81","6","2","win","no-go","0"
"pit-trial","111","561746","0.0-84.0","battery-v0.2","","527.5","A","bacs1","#3366ff99","32","32","1","+10","2028","1","1","","","","","test","82","8","1","win","go","0"
"pit-trial","112","564978","0.0-85.0","battery-v0.2","","519.3999999910593","F","bacs1","#3366ff99","32","32","1","+10","2021.3999999910593","1","1","","","","","test","83","7","1","win","go","0"
"pit-trial","113","568990","0.0-86.0","battery-v0.2","","-1","C","bacs1","#3366ff99","-1","-1","1","+10","","0","1","","","","","test","84","9","2","win","no-go","0"
"pit-trial","114","573000","0.0-87.0","battery-v0.2","","-1","C","bacs1","#3366ff99","-1","-1","1","+10","","0","1","","","","","test","85","9","2","win","no-go","0"
"pit-trial","115","577012","0.0-88.0","battery-v0.2","","-1","T","bacs1","#3366ff99","-1","-1","1","+10","","0","1","","","","","test","86","6","2","win","no-go","0"
"pit-trial","116","580217","0.0-89.0","battery-v0.2","","494.30000001192093","F","bacs1","#3366ff99","32","32","1","+10","1994.6000000089407","1","1","","","","","test","87","7","1","win","go","0"
"pit-trial","117","583651","0.0-90.0","battery-v0.2","","726.2000000029802","A","bacs1","#3366ff99","32","32","1","+10","2226.9000000059605","1","1","","","","","test","88","8","1","win","go","0"
"pit-trial","118","586724","0.0-91.0","battery-v0.2","","360.90000000596046","A","bacs1","#3366ff99","32","32","1","+10","1861.0999999940395","1","1","","","","","test","89","8","1","win","go","0"
"pit-trial","119","590737","0.0-92.0","battery-v0.2","","-1","L","bacs1","#f73b6a7A","32","-1","0","-10","","0","1","","","","","test","90","10","3","lose","go","0"
"pit-trial","120","594749","0.0-93.0","battery-v0.2","","-1","C","bacs1","#3366ff99","-1","-1","1","+10","","0","1","","","","","test","91","9","2","win","no-go","0"
"pit-trial","121","598191","0.0-94.0","battery-v0.2","","732","Q","bacs1","#f73b6a7A","-1","32","0","-1","2233.7000000029802","1","1","","","","","test","92","11","4","lose","no-go","1"
"pit-trial","122","601289","0.0-95.0","battery-v0.2","","386.19999998807907","Q","bacs1","#f73b6a7A","-1","32","0","-10","1886.7000000029802","1","1","","","","","test","93","11","4","lose","no-go","0"
"pit-trial","123","604535","0.0-96.0","battery-v0.2","","535.6000000089407","L","bacs1","#f73b6a7A","32","32","1","-1","2036.1000000089407","1","1","","","","","test","94","10","3","lose","go","0"
"pit-trial","124","607817","0.0-97.0","battery-v0.2","","572.3999999910593","A","bacs1","#3366ff99","32","32","1","+10","2073.9000000059605","1","1","","","","","test","95","8","1","win","go","0"
"pit-trial","125","611825","0.0-98.0","battery-v0.2","","-1","C","bacs1","#3366ff99","-1","-1","1","+10","","0","1","","","","","test","96","9","2","win","no-go","0"
"pit-trial","126","615255","0.0-99.0","battery-v0.2","","718.9000000059605","L","bacs1","#f73b6a7A","32","32","1","-10","2219.2000000029802","1","1","","","","","test","97","10","3","lose","go","1"
"pit-trial","127","619271","0.0-100.0","battery-v0.2","","-1","C","bacs1","#3366ff99","-1","-1","1","+10","","0","1","","","","","test","98","9","2","win","no-go","0"
"pit-trial","128","622651","0.0-101.0","battery-v0.2","","671.2999999970198","A","bacs1","#3366ff99","32","32","1","+10","2172.4000000059605","1","1","","","","","test","99","8","1","win","go","0"
"pit-trial","129","626218","0.0-102.0","battery-v0.2","","857.0999999940395","Q","bacs1","#f73b6a7A","-1","32","0","-1","2357.300000011921","1","1","","","","","test","100","11","4","lose","no-go","1"
"pit-trial","130","630231","0.0-103.0","battery-v0.2","","-1","C","bacs1","#3366ff99","-1","-1","1","+10","","0","1","","","","","test","101","9","2","win","no-go","0"
"pit-trial","131","633692","0.0-104.0","battery-v0.2","","750.5","Q","bacs1","#f73b6a7A","-1","32","0","-10","2252.7999999970198","1","1","","","","","test","102","11","4","lose","no-go","0"
"pit-trial","132","636886","0.0-105.0","battery-v0.2","","481.29999999701977","A","bacs1","#3366ff99","32","32","1","+10","1981.7999999970198","1","1","","","","","test","103","8","1","win","go","0"
"pit-trial","133","640190","0.0-106.0","battery-v0.2","","593.7000000029802","L","bacs1","#f73b6a7A","32","32","1","-1","2095.3999999910593","1","1","","","","","test","104","10","3","lose","go","0"
"pit-trial","134","643243","0.0-107.0","battery-v0.2","","346.1000000089407","L","bacs1","#f73b6a7A","32","32","1","-1","1846.2000000029802","1","1","","","","","test","105","10","3","lose","go","0"
"pit-trial","135","646510","0.0-108.0","battery-v0.2","","557","Q","bacs1","#f73b6a7A","-1","32","0","-10","2057.5","1","1","","","","","test","106","11","4","lose","no-go","0"
"pit-trial","136","650524","0.0-109.0","battery-v0.2","","-1","C","bacs1","#3366ff99","-1","-1","1","+1","","0","1","","","","","test","107","9","2","win","no-go","1"
"pit-trial","137","653719","0.0-110.0","battery-v0.2","","483.29999999701977","A","bacs1","#3366ff99","32","32","1","+10","1983.5999999940395","1","1","","","","","test","108","8","1","win","go","0"
"pit-trial","138","657728","0.0-111.0","battery-v0.2","","-1","C","bacs1","#3366ff99","-1","-1","1","+10","","0","1","","","","","test","109","9","2","win","no-go","0"
"pit-trial","139","661055","0.0-112.0","battery-v0.2","","613.6000000089407","Q","bacs1","#f73b6a7A","-1","32","0","-10","2115.2000000029802","1","1","","","","","test","110","11","4","lose","no-go","0"
"pit-trial","140","664447","0.0-113.0","battery-v0.2","","667.2000000029802","A","bacs1","#3366ff99","32","32","1","+10","2167.7999999970198","1","1","","","","","test","111","8","1","win","go","0"
"pit-trial","141","667778","0.0-114.0","battery-v0.2","","618.6999999880791","L","bacs1","#f73b6a7A","32","32","1","-10","2120.199999988079","1","1","","","","","test","112","10","3","lose","go","1"
"pit-trial","142","671041","0.0-115.0","battery-v0.2","","554.3999999910593","L","bacs1","#f73b6a7A","32","32","1","-1","2054.7000000029802","1","1","","","","","test","113","10","3","lose","go","0"
"pit-trial","143","675049","0.0-116.0","battery-v0.2","","-1","Q","bacs1","#f73b6a7A","-1","-1","1","-1","","0","1","","","","","test","114","11","4","lose","no-go","0"
"pit-trial","144","679062","0.0-117.0","battery-v0.2","","-1","C","bacs1","#3366ff99","-1","-1","1","+10","","0","1","","","","","test","115","9","2","win","no-go","0"
"pit-trial","145","682395","0.0-118.0","battery-v0.2","","622","A","bacs1","#3366ff99","32","32","1","+1","2122.2000000029802","1","1","","","","","test","116","8","1","win","go","1"
"pit-trial","146","685645","0.0-119.0","battery-v0.2","","539.1000000089407","A","bacs1","#3366ff99","32","32","1","+10","2040.0999999940395","1","1","","","","","test","117","8","1","win","go","0"
"pit-trial","147","689658","0.0-120.0","battery-v0.2","","-1","L","bacs1","#f73b6a7A","32","-1","0","-10","","0","1","","","","","test","118","10","3","lose","go","0"
"pit-trial","148","693669","0.0-121.0","battery-v0.2","","-1","Q","bacs1","#f73b6a7A","-1","-1","1","-1","","0","1","","","","","test","119","11","4","lose","no-go","0"
"pit-trial","149","697687","0.0-122.0","battery-v0.2","","-1","C","bacs1","#3366ff99","-1","-1","1","+10","","0","1","","","","","test","120","9","2","win","no-go","0"
"pit-instructions","150","707180","0.0-123.0","battery-v0.2","[{""page_index"":0,""viewing_time"":7233.29999999702},{""page_index"":1,""viewing_time"":2252.7999999970198}]","9486.79999999702","","","","","","","","","","","","","","","","","","","","",""
"pit-trial","151","710600","0.0-124.0","battery-v0.2","","709","N","bacs1","#3366ff99","-1","32","0","+1","2209.2000000029802","1","2","","","","","test","121","0","2","win","no-go","0"
"pit-trial","152","714163","0.0-125.0","battery-v0.2","","850.6000000089407","I","bacs1","#3366ff99","32","32","1","+10","2351","1","2","","","","","test","122","2","1","win","go","0"
"pit-trial","153","717717","0.0-126.0","battery-v0.2","","840","O","bacs1","#f73b6a7A","32","32","1","-1","2340.4000000059605","1","2","","","","","test","123","3","3","lose","go","0"
"pit-trial","154","721491","0.0-127.0","battery-v0.2","","1063.7999999970198","G","bacs1","#3366ff99","-1","32","0","+1","2564.5","1","2","","","","","test","124","1","2","win","no-go","0"
"pit-trial","155","724780","0.0-128.0","battery-v0.2","","581.7999999970198","N","bacs1","#3366ff99","-1","32","0","+1","2082.6000000089407","1","2","","","","","test","125","0","2","win","no-go","0"
"pit-trial","156","728791","0.0-129.0","battery-v0.2","","-1","O","bacs1","#f73b6a7A","32","-1","0","-10","","0","2","","","","","test","126","3","3","lose","go","0"
"pit-trial","157","732277","0.0-130.0","battery-v0.2","","773.4000000059605","I","bacs1","#3366ff99","32","32","1","+10","2273.9000000059605","1","2","","","","","test","127","2","1","win","go","0"
"pit-trial","158","735633","0.0-131.0","battery-v0.2","","646","G","bacs1","#3366ff99","-1","32","0","+1","2146.5","1","2","","","","","test","128","1","2","win","no-go","0"
"pit-trial","159","738947","0.0-132.0","battery-v0.2","","606.9000000059605","I","bacs1","#3366ff99","32","32","1","+1","2107.0999999940395","1","2","","","","","test","129","2","1","win","go","1"
"pit-trial","160","742268","0.0-133.0","battery-v0.2","","608.3999999910593","G","bacs1","#3366ff99","-1","32","0","+10","2108.8999999910593","1","2","","","","","test","130","1","2","win","no-go","1"
"pit-trial","161","745571","0.0-134.0","battery-v0.2","","587.5","O","bacs1","#f73b6a7A","32","32","1","-10","2089.9000000059605","1","2","","","","","test","131","3","3","lose","go","1"
"pit-trial","162","748833","0.0-135.0","battery-v0.2","","550.6999999880791","N","bacs1","#3366ff99","-1","32","0","+1","2053.3999999910593","1","2","","","","","test","132","0","2","win","no-go","0"
"pit-trial","163","751982","0.0-136.0","battery-v0.2","","439.8999999910593","I","bacs1","#3366ff99","32","32","1","+10","1940.2999999970198","1","2","","","","","test","133","2","1","win","go","0"
"pit-trial","164","755320","0.0-137.0","battery-v0.2","","624.6999999880791","G","bacs1","#3366ff99","-1","32","0","+1","2125.5","1","2","","","","","test","134","1","2","win","no-go","0"
"pit-trial","165","758591","0.0-138.0","battery-v0.2","","558.7000000029802","O","bacs1","#f73b6a7A","32","32","1","-1","2059.2000000029802","1","2","","","","","test","135","3","3","lose","go","0"
"pit-trial","166","761918","0.0-139.0","battery-v0.2","","613.5","N","bacs1","#3366ff99","-1","32","0","+1","2113.7999999970198","1","2","","","","","test","136","0","2","win","no-go","0"
"pit-trial","167","765173","0.0-140.0","battery-v0.2","","545.2000000029802","G","bacs1","#3366ff99","-1","32","0","+1","2045.7000000029802","1","2","","","","","test","137","1","2","win","no-go","0"
"pit-trial","168","768360","0.0-141.0","battery-v0.2","","477.90000000596046","N","bacs1","#3366ff99","-1","32","0","+10","1978.1000000089407","1","2","","","","","test","138","0","2","win","no-go","1"
"pit-trial","169","771556","0.0-142.0","battery-v0.2","","486.90000000596046","O","bacs1","#f73b6a7A","32","32","1","-10","1987.0999999940395","1","2","","","","","test","139","3","3","lose","go","1"
"pit-trial","170","774663","0.0-143.0","battery-v0.2","","397.20000000298023","I","bacs1","#3366ff99","32","32","1","+1","1898.5999999940395","1","2","","","","","test","140","2","1","win","go","1"
"pit-trial","171","777890","0.0-144.0","battery-v0.2","","516.5","N","bacs1","#3366ff99","-1","32","0","+10","2016.8999999910593","1","2","","","","","test","141","0","2","win","no-go","1"
"pit-trial","172","781904","0.0-145.0","battery-v0.2","","-1","G","bacs1","#3366ff99","-1","-1","1","+1","","0","2","","","","","test","142","1","2","win","no-go","1"
"pit-trial","173","785915","0.0-146.0","battery-v0.2","","-1","O","bacs1","#f73b6a7A","32","-1","0","-1","","0","2","","","","","test","143","3","3","lose","go","1"
"pit-trial","174","789096","0.0-147.0","battery-v0.2","","473.20000000298023","I","bacs1","#3366ff99","32","32","1","+10","1973.0999999940395","1","2","","","","","test","144","2","1","win","go","0"
"pit-trial","175","793114","0.0-148.0","battery-v0.2","","-1","O","bacs1","#f73b6a7A","32","-1","0","-10","","0","2","","","","","test","145","3","3","lose","go","0"
"pit-trial","176","796397","0.0-149.0","battery-v0.2","","566.7000000029802","N","bacs1","#3366ff99","-1","32","0","+1","2069.5999999940395,2506.5","2","2","","","","","test","146","0","2","win","no-go","0"
"pit-trial","177","799642","0.0-150.0","battery-v0.2","","530.5999999940395","I","bacs1","#3366ff99","32","32","1","+10","2033.3999999910593","1","2","","","","","test","147","2","1","win","go","0"
"pit-trial","178","802839","0.0-151.0","battery-v0.2","","488.70000000298023","G","bacs1","#3366ff99","-1","32","0","+1","1989","1","2","","","","","test","148","1","2","win","no-go","0"
"pit-trial","179","806850","0.0-152.0","battery-v0.2","","-1","G","bacs1","#3366ff99","-1","-1","1","+10","","0","2","","","","","test","149","1","2","win","no-go","0"
"pit-trial","180","810866","0.0-153.0","battery-v0.2","","-1","O","bacs1","#f73b6a7A","32","-1","0","-10","","0","2","","","","","test","150","3","3","lose","go","0"
"pit-trial","181","814113","0.0-154.0","battery-v0.2","","534.0999999940395","I","bacs1","#3366ff99","32","32","1","+10","2034.5999999940395","1","2","","","","","test","151","2","1","win","go","0"
"pit-trial","182","818130","0.0-155.0","battery-v0.2","","-1","N","bacs1","#3366ff99","-1","-1","1","+10","","0","2","","","","","test","152","0","2","win","no-go","0"
"pit-trial","183","821726","0.0-156.0","battery-v0.2","","885.7999999970198","D","bacs1","#f73b6a7A","-1","32","0","-1","2386.199999988079","1","2","","","","","test","153","4","4","lose","no-go","1"
"pit-trial","184","825741","0.0-157.0","battery-v0.2","","-1","K","bacs1","#f73b6a7A","32","-1","0","-10","","0","2","","","","","test","154","5","3","lose","go","0"
"pit-trial","185","828988","0.0-158.0","battery-v0.2","","534.4000000059605","I","bacs1","#3366ff99","32","32","1","+10","2035","1","2","","","","","test","155","2","1","win","go","0"
"pit-trial","186","833005","0.0-159.0","battery-v0.2","","-1","N","bacs1","#3366ff99","-1","-1","1","+10","","0","2","","","","","test","156","0","2","win","no-go","0"
"pit-trial","187","837022","0.0-160.0","battery-v0.2","","-1","D","bacs1","#f73b6a7A","-1","-1","1","-1","","0","2","","","","","test","157","4","4","lose","no-go","0"
"pit-trial","188","841035","0.0-161.0","battery-v0.2","","-1","N","bacs1","#3366ff99","-1","-1","1","+10","","0","2","","","","","test","158","0","2","win","no-go","0"
"pit-trial","189","844452","0.0-162.0","battery-v0.2","","707.4000000059605","I","bacs1","#3366ff99","32","32","1","+10","2208.1000000089407","1","2","","","","","test","159","2","1","win","go","0"
"pit-trial","190","848462","0.0-163.0","battery-v0.2","","-1","K","bacs1","#f73b6a7A","32","-1","0","-10","","0","2","","","","","test","160","5","3","lose","go","0"
"pit-trial","191","852024","0.0-164.0","battery-v0.2","","851.9000000059605","K","bacs1","#f73b6a7A","32","32","1","-1","2352.1000000089407","1","2","","","","","test","161","5","3","lose","go","0"
"pit-trial","192","856036","0.0-165.0","battery-v0.2","","-1","D","bacs1","#f73b6a7A","-1","-1","1","-1","","0","2","","","","","test","162","4","4","lose","no-go","0"
"pit-trial","193","860053","0.0-166.0","battery-v0.2","","-1","S","bacs1","#3366ff99","-1","-1","1","+1","","0","2","","","","","test","163","6","2","win","no-go","1"
"pit-trial","194","863290","0.0-167.0","battery-v0.2","","524.1000000089407","I","bacs1","#3366ff99","32","32","1","+10","2024.4000000059605","1","2","","","","","test","164","2","1","win","go","0"
"pit-trial","195","866668","0.0-168.0","battery-v0.2","","670.1000000089407","S","bacs1","#3366ff99","-1","32","0","+1","2170.2999999970198","1","2","","","","","test","165","6","2","win","no-go","0"
"pit-trial","196","869989","0.0-169.0","battery-v0.2","","613.5","K","bacs1","#f73b6a7A","32","32","1","-1","2114.2000000029802","1","2","","","","","test","166","5","3","lose","go","0"
"pit-trial","197","873238","0.0-170.0","battery-v0.2","","539","I","bacs1","#3366ff99","32","32","1","+10","2039.4000000059605","1","2","","","","","test","167","2","1","win","go","0"
"pit-trial","198","877250","0.0-171.0","battery-v0.2","","-1","D","bacs1","#f73b6a7A","-1","-1","1","-10","","0","2","","","","","test","168","4","4","lose","no-go","1"
"pit-trial","199","881264","0.0-172.0","battery-v0.2","","-1","S","bacs1","#3366ff99","-1","-1","1","+10","2930.3999999910593","1","2","","","","","test","169","6","2","win","no-go","0"
"pit-trial","200","885278","0.0-173.0","battery-v0.2","","-1","U","bacs1","#f73b6a7A","-1","-1","1","-1","","0","2","","","","","test","170","7","4","lose","no-go","0"
"pit-trial","201","888620","0.0-174.0","battery-v0.2","","628.5","K","bacs1","#f73b6a7A","32","32","1","-10","2132.9000000059605","1","2","","","","","test","171","5","3","lose","go","1"
"pit-trial","202","892635","0.0-175.0","battery-v0.2","","-1","D","bacs1","#f73b6a7A","-1","-1","1","-1","","0","2","","","","","test","172","4","4","lose","no-go","0"
"pit-trial","203","896647","0.0-176.0","battery-v0.2","","-1","U","bacs1","#f73b6a7A","-1","-1","1","-1","","0","2","","","","","test","173","7","4","lose","no-go","0"
"pit-trial","204","900663","0.0-177.0","battery-v0.2","","-1","K","bacs1","#f73b6a7A","32","-1","0","-10","","0","2","","","","","test","174","5","3","lose","go","0"
"pit-trial","205","904681","0.0-178.0","battery-v0.2","","-1","D","bacs1","#f73b6a7A","-1","-1","1","-10","","0","2","","","","","test","175","4","4","lose","no-go","1"
"pit-trial","206","908320","0.0-179.0","battery-v0.2","","928.2999999970198","S","bacs1","#3366ff99","-1","32","0","+1","2428.5","1","2","","","","","test","176","6","2","win","no-go","0"
"pit-trial","207","912333","0.0-180.0","battery-v0.2","","-1","S","bacs1","#3366ff99","-1","-1","1","+10","","0","2","","","","","test","177","6","2","win","no-go","0"
"pit-trial","208","916348","0.0-181.0","battery-v0.2","","-1","U","bacs1","#f73b6a7A","-1","-1","1","-1","","0","2","","","","","test","178","7","4","lose","no-go","0"
"pit-trial","209","919597","0.0-182.0","battery-v0.2","","536.1999999880791","K","bacs1","#f73b6a7A","32","32","1","-1","2036.5999999940395","1","2","","","","","test","179","5","3","lose","go","0"
"pit-trial","210","923615","0.0-183.0","battery-v0.2","","-1","D","bacs1","#f73b6a7A","-1","-1","1","-1","","0","2","","","","","test","180","4","4","lose","no-go","0"
"pit-trial","211","927633","0.0-184.0","battery-v0.2","","-1","U","bacs1","#f73b6a7A","-1","-1","1","-1","","0","2","","","","","test","181","7","4","lose","no-go","0"
"pit-trial","212","931648","0.0-185.0","battery-v0.2","","-1","S","bacs1","#3366ff99","-1","-1","1","+10","","0","2","","","","","test","182","6","2","win","no-go","0"
"pit-trial","213","935659","0.0-186.0","battery-v0.2","","-1","D","bacs1","#f73b6a7A","-1","-1","1","-1","","0","2","","","","","test","183","4","4","lose","no-go","0"
"pit-trial","214","938678","0.0-187.0","battery-v0.2","","309.79999999701977","K","bacs1","#f73b6a7A","32","32","1","-1","1810.2000000029802","1","2","","","","","test","184","5","3","lose","go","0"
"pit-trial","215","941659","0.0-188.0","battery-v0.2","","267","K","bacs1","#f73b6a7A","32","32","1","-1","1767.5999999940395","1","2","","","","","test","185","5","3","lose","go","0"
"pit-trial","216","945669","0.0-189.0","battery-v0.2","","-1","S","bacs1","#3366ff99","-1","-1","1","+10","","0","2","","","","","test","186","6","2","win","no-go","0"
"pit-trial","217","949686","0.0-190.0","battery-v0.2","","-1","D","bacs1","#f73b6a7A","-1","-1","1","-1","","0","2","","","","","test","187","4","4","lose","no-go","0"
"pit-trial","218","953698","0.0-191.0","battery-v0.2","","-1","U","bacs1","#f73b6a7A","-1","-1","1","-1","","0","2","","","","","test","188","7","4","lose","no-go","0"
"pit-trial","219","957713","0.0-192.0","battery-v0.2","","-1","S","bacs1","#3366ff99","-1","-1","1","+10","","0","2","","","","","test","189","6","2","win","no-go","0"
"pit-trial","220","961018","0.0-193.0","battery-v0.2","","596.2999999970198","K","bacs1","#f73b6a7A","32","32","1","-1","2098","1","2","","","","","test","190","5","3","lose","go","0"
"pit-trial","221","965033","0.0-194.0","battery-v0.2","","-1","U","bacs1","#f73b6a7A","-1","-1","1","-1","","0","2","","","","","test","191","7","4","lose","no-go","0"
"pit-trial","222","969040","0.0-195.0","battery-v0.2","","-1","D","bacs1","#f73b6a7A","-1","-1","1","-1","","0","2","","","","","test","192","4","4","lose","no-go","0"
"pit-trial","223","973051","0.0-196.0","battery-v0.2","","-1","M","bacs1","#f73b6a7A","-1","-1","1","-10","","0","2","","","","","test","193","8","4","lose","no-go","1"
"pit-trial","224","977063","0.0-197.0","battery-v0.2","","-1","S","bacs1","#3366ff99","-1","-1","1","+1","","0","2","","","","","test","194","6","2","win","no-go","1"
"pit-trial","225","981078","0.0-198.0","battery-v0.2","","-1","U","bacs1","#f73b6a7A","-1","-1","1","-10","","0","2","","","","","test","195","7","4","lose","no-go","1"
"pit-trial","226","984236","0.0-199.0","battery-v0.2","","448.6000000089407","K","bacs1","#f73b6a7A","32","32","1","-1","1949.5","1","2","","","","","test","196","5","3","lose","go","0"
"pit-trial","227","987627","0.0-200.0","battery-v0.2","","678.2999999970198","M","bacs1","#f73b6a7A","-1","32","0","-10","2179.0999999940395","1","2","","","","","test","197","8","4","lose","no-go","0"
"pit-trial","228","991640","0.0-201.0","battery-v0.2","","-1","S","bacs1","#3366ff99","-1","-1","1","+10","","0","2","","","","","test","198","6","2","win","no-go","0"
"pit-trial","229","994909","0.0-202.0","battery-v0.2","","556.2000000029802","K","bacs1","#f73b6a7A","32","32","1","-1","2056.5","1","2","","","","","test","199","5","3","lose","go","0"
"pit-trial","230","998920","0.0-203.0","battery-v0.2","","-1","U","bacs1","#f73b6a7A","-1","-1","1","-1","","0","2","","","","","test","200","7","4","lose","no-go","0"
"pit-trial","231","1002935","0.0-204.0","battery-v0.2","","-1","P","bacs1","#3366ff99","32","-1","0","+1","","0","2","","","","","test","201","9","1","win","go","0"
"pit-trial","232","1006438","0.0-205.0","battery-v0.2","","788.3999999910593","H","bacs1","#f73b6a7A","32","32","1","-1","2290.2999999970198","1","2","","","","","test","202","10","3","lose","go","0"
"pit-trial","233","1010451","0.0-206.0","battery-v0.2","","-1","S","bacs1","#3366ff99","-1","-1","1","+10","","0","2","","","","","test","203","6","2","win","no-go","0"
"pit-trial","234","1013967","0.0-207.0","battery-v0.2","","803","M","bacs1","#f73b6a7A","-1","32","0","-10","2303.0999999940395","1","2","","","","","test","204","8","4","lose","no-go","0"
"pit-trial","235","1017975","0.0-208.0","battery-v0.2","","-1","M","bacs1","#f73b6a7A","-1","-1","1","-1","","0","2","","","","","test","205","8","4","lose","no-go","0"
"pit-trial","236","1021307","0.0-209.0","battery-v0.2","","618.8999999910593","P","bacs1","#3366ff99","32","32","1","+10","2119.699999988079","1","2","","","","","test","206","9","1","win","go","0"
"pit-trial","237","1025321","0.0-210.0","battery-v0.2","","-1","S","bacs1","#3366ff99","-1","-1","1","+10","","0","2","","","","","test","207","6","2","win","no-go","0"
"pit-trial","238","1028680","0.0-211.0","battery-v0.2","","646.5999999940395","H","bacs1","#f73b6a7A","32","32","1","-1","2146.699999988079","1","2","","","","","test","208","10","3","lose","go","0"
"pit-trial","239","1031725","0.0-212.0","battery-v0.2","","330.5","P","bacs1","#3366ff99","32","32","1","+1","1832.5","1","2","","","","","test","209","9","1","win","go","1"
"pit-trial","240","1035738","0.0-213.0","battery-v0.2","","-1","Y","bacs1","#3366ff99","32","-1","0","+10","","0","2","","","","","test","210","11","1","win","go","1"
"pit-trial","241","1039755","0.0-214.0","battery-v0.2","","-1","M","bacs1","#f73b6a7A","-1","-1","1","-1","","0","2","","","","","test","211","8","4","lose","no-go","0"
"pit-trial","242","1043196","0.0-215.0","battery-v0.2","","725.5","H","bacs1","#f73b6a7A","32","32","1","-10","2228","1","2","","","","","test","212","10","3","lose","go","1"
"pit-trial","243","1047209","0.0-216.0","battery-v0.2","","-1","Y","bacs1","#3366ff99","32","-1","0","+10","","0","2","","","","","test","213","11","1","win","go","1"
"pit-trial","244","1051223","0.0-217.0","battery-v0.2","","-1","P","bacs1","#3366ff99","32","-1","0","+10","","0","2","","","","","test","214","9","1","win","go","1"
"pit-trial","245","1054431","0.0-218.0","battery-v0.2","","499","H","bacs1","#f73b6a7A","32","32","1","-1","2000.2999999970198","1","2","","","","","test","215","10","3","lose","go","0"
"pit-trial","246","1058446","0.0-219.0","battery-v0.2","","-1","M","bacs1","#f73b6a7A","-1","-1","1","-1","","0","2","","","","","test","216","8","4","lose","no-go","0"
"pit-trial","247","1061798","0.0-220.0","battery-v0.2","","639.6999999880791","P","bacs1","#3366ff99","32","32","1","+10","2141.5999999940395","1","2","","","","","test","217","9","1","win","go","0"
"pit-trial","248","1065551","0.0-221.0","battery-v0.2","","1039.5999999940395","H","bacs1","#f73b6a7A","32","32","1","-10","2541.7000000029802","1","2","","","","","test","218","10","3","lose","go","1"
"pit-trial","249","1069566","0.0-222.0","battery-v0.2","","-1","Y","bacs1","#3366ff99","32","-1","0","+1","","0","2","","","","","test","219","11","1","win","go","0"
"pit-trial","250","1073579","0.0-223.0","battery-v0.2","","-1","M","bacs1","#f73b6a7A","-1","-1","1","-1","","0","2","","","","","test","220","8","4","lose","no-go","0"
"pit-trial","251","1077593","0.0-224.0","battery-v0.2","","-1","P","bacs1","#3366ff99","32","-1","0","+1","","0","2","","","","","test","221","9","1","win","go","0"
"pit-trial","252","1081607","0.0-225.0","battery-v0.2","","-1","Y","bacs1","#3366ff99","32","-1","0","+1","","0","2","","","","","test","222","11","1","win","go","0"
"pit-trial","253","1085623","0.0-226.0","battery-v0.2","","-1","M","bacs1","#f73b6a7A","-1","-1","1","-1","","0","2","","","","","test","223","8","4","lose","no-go","0"
"pit-trial","254","1089275","0.0-227.0","battery-v0.2","","939.0999999940395","H","bacs1","#f73b6a7A","32","32","1","-10","2439.7999999970198","1","2","","","","","test","224","10","3","lose","go","1"
"pit-trial","255","1093292","0.0-228.0","battery-v0.2","","-1","M","bacs1","#f73b6a7A","-1","-1","1","-1","","0","2","","","","","test","225","8","4","lose","no-go","0"
"pit-trial","256","1097309","0.0-229.0","battery-v0.2","","-1","P","bacs1","#3366ff99","32","-1","0","+1","","0","2","","","","","test","226","9","1","win","go","0"
"pit-trial","257","1101320","0.0-230.0","battery-v0.2","","-1","H","bacs1","#f73b6a7A","32","-1","0","-10","","0","2","","","","","test","227","10","3","lose","go","0"
"pit-trial","258","1105332","0.0-231.0","battery-v0.2","","-1","Y","bacs1","#3366ff99","32","-1","0","+10","","0","2","","","","","test","228","11","1","win","go","1"
"pit-trial","259","1109340","0.0-232.0","battery-v0.2","","-1","P","bacs1","#3366ff99","32","-1","0","+1","","0","2","","","","","test","229","9","1","win","go","0"
"pit-trial","260","1113355","0.0-233.0","battery-v0.2","","-1","Y","bacs1","#3366ff99","32","-1","0","+1","","0","2","","","","","test","230","11","1","win","go","0"
"pit-trial","261","1117370","0.0-234.0","battery-v0.2","","-1","H","bacs1","#f73b6a7A","32","-1","0","-1","","0","2","","","","","test","231","10","3","lose","go","1"
"pit-trial","262","1121383","0.0-235.0","battery-v0.2","","-1","M","bacs1","#f73b6a7A","-1","-1","1","-1","","0","2","","","","","test","232","8","4","lose","no-go","0"
"pit-trial","263","1125402","0.0-236.0","battery-v0.2","","-1","Y","bacs1","#3366ff99","32","-1","0","+1","","0","2","","","","","test","233","11","1","win","go","0"
"pit-trial","264","1129411","0.0-237.0","battery-v0.2","","-1","H","bacs1","#f73b6a7A","32","-1","0","-10","","0","2","","","","","test","234","10","3","lose","go","0"
"pit-trial","265","1133424","0.0-238.0","battery-v0.2","","-1","M","bacs1","#f73b6a7A","-1","-1","1","-1","","0","2","","","","","test","235","8","4","lose","no-go","0"
"pit-trial","266","1137434","0.0-239.0","battery-v0.2","","-1","P","bacs1","#3366ff99","32","-1","0","+1","","0","2","","","","","test","236","9","1","win","go","0"
"pit-trial","267","1141445","0.0-240.0","battery-v0.2","","-1","Y","bacs1","#3366ff99","32","-1","0","+1","","0","2","","","","","test","237","11","1","win","go","0"
"pit-trial","268","1145458","0.0-241.0","battery-v0.2","","-1","P","bacs1","#3366ff99","32","-1","0","+1","","0","2","","","","","test","238","9","1","win","go","0"
"pit-trial","269","1149468","0.0-242.0","battery-v0.2","","-1","M","bacs1","#f73b6a7A","-1","-1","1","-1","","0","2","","","","","test","239","8","4","lose","no-go","0"
"pit-trial","270","1152804","0.0-243.0","battery-v0.2","","627","H","bacs1","#f73b6a7A","32","32","1","-1","2127.2000000029802","1","2","","","","","test","240","10","3","lose","go","0"
