"trial_type","trial_index","time_elapsed","internal_node_id","task_version","success","view_history","rt","responses","num_errors","age","subject","participantId","rune","rune_set","hex","correct","choice","accuracy","outcome","keys","total_keys","block","practice","value","sub","trial","stimulus","robot","valence","action","sham","browser_interactions"
"pavlovia","0","5","0.0-0.0","battery-v0.2","","","","","","","","","","","","","","","","","","","","","","","","","","","",""
"fullscreen","1","3956","0.0-1.0","battery-v0.2","true","","","","","","","","","","","","","","","","","","","","","","","","","","",""
"pit-instructions","2","9908","0.0-2.0-0.0","battery-v0.2","","[{""page_index"":0,""viewing_time"":5948}]","5948","","","","","","","","","","","","","","","","","","","","","","","","",""
"pit-comprehension","3","14104","0.0-2.0-1.0-0.0","battery-v0.2","","","4133","[""shark""]","0","10","996","1085","","","","","","","","","","","","","","","","","","","",""
"pit-instructions","4","22742","0.0-2.0-1.0-1.0","battery-v0.2","","[{""page_index"":0,""viewing_time"":8636}]","8636","","","","","","","","","","","","","","","","","","","","","","","","",""
"pit-comprehension","5","26207","0.0-2.0-2.0-0.0","battery-v0.2","","","3461","[""tiger""]","0","10","996","1085","","","","","","","","","","","","","","","","","","","",""
"pit-instructions","6","28400","0.0-2.0-2.0-1.0","battery-v0.2","","[{""page_index"":0,""viewing_time"":2191}]","2191","","","","","","","","","","","","","","","","","","","","","","","","",""
"pit-instructions","7","135364","0.0-2.0-3.0","battery-v0.2","","[{""page_index"":0,""viewing_time"":10336},{""page_index"":1,""viewing_time"":5884},{""page_index"":2,""viewing_time"":7707},{""page_index"":3,""viewing_time"":5140},{""page_index"":4,""viewing_time"":5704.000000000007},{""page_index"":5,""viewing_time"":5164.000000000007},{""page_index"":6,""viewing_time"":6805.999999999985},{""page_index"":7,""viewing_time"":6199},{""page_index"":8,""viewing_time"":6761},{""page_index"":9,""viewing_time"":15952},{""page_index"":10,""viewing_time"":7425.000000000015},{""page_index"":11,""viewing_time"":7920.999999999985},{""page_index"":12,""viewing_time"":6355},{""page_index"":13,""viewing_time"":9608}]","106962","","","","","","","","","","","","","","","","","","","","","","","","",""
"pit-trial","8","139701","0.0-2.0-4.0-0.0","battery-v0.2","","","1484","","","10","996","1085","&#9784;","elianto","#FFFFF080"," "," ","1","&#10004","[2334]","1","0","0","","","","","","","","",""
"pit-trial","9","143495","0.0-2.0-4.1-0.1","battery-v0.2","","","942","","","10","996","1085","&#9784;","elianto","#FFFFF080"," "," ","1","&#10004","[1792]","1","0","0","","","","","","","","",""
"pit-trial","10","146994","0.0-2.0-4.2-0.2","battery-v0.2","","","646","","","10","996","1085","&#9784;","elianto","#FFFFF080"," "," ","1","&#10004","[1496]","1","0","0","","","","","","","","",""
"pit-trial","11","150438","0.0-2.0-4.3-0.3","battery-v0.2","","","591","","","10","996","1085","&#9784;","elianto","#FFFFF080"," "," ","1","&#10004","[1441]","1","0","0","","","","","","","","",""
"pit-trial","12","154020","0.0-2.0-4.4-0.4","battery-v0.2","","","730","","","10","996","1085","&#9784;","elianto","#FFFFF080"," "," ","1","&#10004","[1579.999999999971]","1","0","0","","","","","","","","",""
"pit-instructions","13","176898","0.0-2.0-5.0","battery-v0.2","","[{""page_index"":0,""viewing_time"":4796},{""page_index"":1,""viewing_time"":5569},{""page_index"":2,""viewing_time"":4725},{""page_index"":3,""viewing_time"":7785}]","22875","","","","","","","","","","","","","","","","","","","","","","","","",""
"pit-trial","14","181750","0.0-2.0-6.0-0.0","battery-v0.2","","","-1","","","10","996","1085","&#9854;","elianto","#FFFFF080","-1","-1","1","&#10004","[]","0","0","1","","","","","","","","",""
"pit-trial","15","186604","0.0-2.0-6.1-0.1","battery-v0.2","","","-1","","","10","996","1085","&#9854;","elianto","#FFFFF080","-1","-1","1","&#10004","[]","0","0","1","","","","","","","","",""
"pit-trial","16","191457","0.0-2.0-6.2-0.2","battery-v0.2","","","-1","","","10","996","1085","&#9854;","elianto","#FFFFF080","-1","-1","1","&#10004","[]","0","0","1","","","","","","","","",""
"pit-trial","17","196310","0.0-2.0-6.3-0.3","battery-v0.2","","","-1","","","10","996","1085","&#9854;","elianto","#FFFFF080","-1","-1","1","&#10004","[]","0","0","1","","","","","","","","",""
"pit-trial","18","201163","0.0-2.0-6.4-0.4","battery-v0.2","","","-1","","","10","996","1085","&#9854;","elianto","#FFFFF080","-1","-1","1","&#10004","[]","0","0","1","","","","","","","","",""
"pit-instructions","19","317870","0.0-2.0-7.0","battery-v0.2","","[{""page_index"":0,""viewing_time"":6197.999999999971},{""page_index"":1,""viewing_time"":6626},{""page_index"":2,""viewing_time"":5603},{""page_index"":3,""viewing_time"":6007},{""page_index"":4,""viewing_time"":5648},{""page_index"":5,""viewing_time"":5490.000000000029},{""page_index"":6,""viewing_time"":4578.999999999971},{""page_index"":7,""viewing_time"":7391.000000000029},{""page_index"":8,""viewing_time"":6242.999999999971},{""page_index"":9,""viewing_time"":5704},{""page_index"":10,""viewing_time"":8325},{""page_index"":11,""viewing_time"":4815},{""page_index"":12,""viewing_time"":6728},{""page_index"":13,""viewing_time"":6862},{""page_index"":14,""viewing_time"":10147.000000000058},{""page_index"":15,""viewing_time"":6074.999999999942},{""page_index"":16,""viewing_time"":6964},{""page_index"":17,""viewing_time"":7301}]","116705.99999999997","","","","","","","","","","","","","","","","","","","","","","","","",""
"pit-trial","20","321500","0.0-2.0-8.0-0.0","battery-v0.2","","","776","","","10","996","1085","&#9776;","elianto","#3366ff99"," "," ","1","+10","[1626]","1","0","1","","","","","","","","",""
"pit-trial","21","325149","0.0-2.0-8.0-1.0","battery-v0.2","","","796.9999999999418","","","10","996","1085","&#9776;","elianto","#3366ff99"," "," ","1","+10","[1647.9999999999418]","1","0","1","","","","","","","","",""
"pit-trial","22","328705","0.0-2.0-8.0-2.0","battery-v0.2","","","702.9999999999418","","","10","996","1085","&#9776;","elianto","#3366ff99"," "," ","1","+10","[1553]","1","0","1","","","","","","","","",""
"pit-trial","23","332213","0.0-2.0-8.0-3.0","battery-v0.2","","","655","","","10","996","1085","&#9776;","elianto","#3366ff99"," "," ","1","0","[1505]","1","0","1","","","","","","","","",""
"pit-trial","24","335746","0.0-2.0-8.0-4.0","battery-v0.2","","","680","","","10","996","1085","&#9776;","elianto","#3366ff99"," "," ","1","+10","[1531]","1","0","1","","","","","","","","",""
"call-function","25","335748","0.0-2.0-9.0","battery-v0.2","","","","","","","","","","","","","","","","","","","","","","","","","","","",""
"pit-instructions","26","377743","0.0-2.0-10.0","battery-v0.2","","[{""page_index"":0,""viewing_time"":8762},{""page_index"":1,""viewing_time"":6334},{""page_index"":2,""viewing_time"":9833},{""page_index"":3,""viewing_time"":8865.000000000058},{""page_index"":4,""viewing_time"":8200.999999999942}]","41995","","","","","","","","","","","","","","","","","","","","","","","","",""
"pit-trial","27","381074","0.0-2.0-11.0-0.0","battery-v0.2","","","477","","","10","996","1085","&#9761;","elianto","#3366ff99","-1"," ","0","0","[1329]","1","0","2","","","","","","","","",""
"pit-trial","28","385929","0.0-2.0-11.0-1.0","battery-v0.2","","","-1","","","10","996","1085","&#9761;","elianto","#3366ff99","-1","-1","1","+10","[]","0","0","2","","","","","","","","",""
"pit-trial","29","390782","0.0-2.0-11.0-2.0","battery-v0.2","","","-1","","","10","996","1085","&#9761;","elianto","#3366ff99","-1","-1","1","+10","[]","0","0","2","","","","","","","","",""
"pit-trial","30","395635","0.0-2.0-11.0-3.0","battery-v0.2","","","-1","","","10","996","1085","&#9761;","elianto","#3366ff99","-1","-1","1","0","[]","0","0","2","","","","","","","","",""
"pit-trial","31","400488","0.0-2.0-11.0-4.0","battery-v0.2","","","-1","","","10","996","1085","&#9761;","elianto","#3366ff99","-1","-1","1","+10","[]","0","0","2","","","","","","","","",""
"call-function","32","400490","0.0-2.0-12.0","battery-v0.2","","","","","","","","","","","","","","","","","","","","","","","","","","","",""
"pit-instructions","33","431742","0.0-2.0-13.0","battery-v0.2","","[{""page_index"":0,""viewing_time"":5163},{""page_index"":1,""viewing_time"":7098},{""page_index"":2,""viewing_time"":4366},{""page_index"":3,""viewing_time"":10574},{""page_index"":4,""viewing_time"":4051}]","31252","","","","","","","","","","","","","","","","","","","","","","","","",""
"pit-trial","34","435658","0.0-2.0-14.0-0.0","battery-v0.2","","","1063","","","10","996","1085","&#9826;","elianto","#f73b6a7A","-1"," ","0","-10","[1914]","1","0","3","","","","","","","","",""
"pit-trial","35","440511","0.0-2.0-14.0-1.0","battery-v0.2","","","-1","","","10","996","1085","&#9826;","elianto","#f73b6a7A","-1","-1","1","0","[]","0","0","3","","","","","","","","",""
"pit-trial","36","445364","0.0-2.0-14.0-2.0","battery-v0.2","","","-1","","","10","996","1085","&#9826;","elianto","#f73b6a7A","-1","-1","1","0","[]","0","0","3","","","","","","","","",""
"pit-trial","37","450218","0.0-2.0-14.0-3.0","battery-v0.2","","","-1","","","10","996","1085","&#9826;","elianto","#f73b6a7A","-1","-1","1","-10","[]","0","0","3","","","","","","","","",""
"pit-trial","38","455071","0.0-2.0-14.0-4.0","battery-v0.2","","","-1","","","10","996","1085","&#9826;","elianto","#f73b6a7A","-1","-1","1","0","[]","0","0","3","","","","","","","","",""
"call-function","39","455072","0.0-2.0-15.0","battery-v0.2","","","","","","","","","","","","","","","","","","","","","","","","","","","",""
"pit-instructions","40","481905","0.0-2.0-16.0","battery-v0.2","","[{""page_index"":0,""viewing_time"":6583},{""page_index"":1,""viewing_time"":8673},{""page_index"":2,""viewing_time"":6818},{""page_index"":3,""viewing_time"":4758}]","26832","","","","","","","","","","","","","","","","","","","","","","","","",""
"pit-trial","41","485358","0.0-2.0-17.0-0.0","battery-v0.2","","","599","","","10","996","1085","&#9789;","elianto","#f73b6a7A"," "," ","1","0","[1451]","1","0","4","","","","","","","","",""
"pit-trial","42","488578","0.0-2.0-17.0-1.0","battery-v0.2","","","367.0000000000582","","","10","996","1085","&#9789;","elianto","#f73b6a7A"," "," ","1","0","[1217.0000000000582]","1","0","4","","","","","","","","",""
"pit-trial","43","491958","0.0-2.0-17.0-2.0","battery-v0.2","","","527","","","10","996","1085","&#9789;","elianto","#f73b6a7A"," "," ","1","0","[1377]","1","0","4","","","","","","","","",""
"pit-trial","44","495751","0.0-2.0-17.0-3.0","battery-v0.2","","","939.0000000000582","","","10","996","1085","&#9789;","elianto","#f73b6a7A"," "," ","1","-10","[1790.0000000000582]","1","0","4","","","","","","","","",""
"pit-trial","45","499439","0.0-2.0-17.0-4.0","battery-v0.2","","","835","","","10","996","1085","&#9789;","elianto","#f73b6a7A"," "," ","1","0","[1685]","1","0","4","","","","","","","","",""
"call-function","46","499440","0.0-2.0-18.0","battery-v0.2","","","","","","","","","","","","","","","","","","","","","","","","","","","",""
"pit-instructions","47","568519","0.0-2.0-19.0","battery-v0.2","","[{""page_index"":0,""viewing_time"":7451.000000000058},{""page_index"":1,""viewing_time"":6670.999999999942},{""page_index"":2,""viewing_time"":13275},{""page_index"":3,""viewing_time"":7449},{""page_index"":4,""viewing_time"":8166},{""page_index"":5,""viewing_time"":8617},{""page_index"":6,""viewing_time"":7886},{""page_index"":7,""viewing_time"":5794},{""page_index"":8,""viewing_time"":3769}]","69078","","","","","","","","","","","","","","","","","","","","","","","","",""
"pit-comprehension","48","575989","0.0-2.0-20.0-0.0","battery-v0.2","","","7469","[""SPACE""]","0","10","996","1085","","","","","","","","","","","","","","","","","","","",""
"pit-instructions","49","580162","0.0-2.0-20.0-1.0","battery-v0.2","","[{""page_index"":0,""viewing_time"":4151}]","4151","","","","","","","","","","","","","","","","","","","","","","","","",""
"pit-comprehension","50","588476","0.0-2.0-21.0-0.0","battery-v0.2","","","8313","[""10""]","0","10","996","1085","","","","","","","","","","","","","","","","","","","",""
"pit-instructions","51","593841","0.0-2.0-21.0-1.0","battery-v0.2","","[{""page_index"":0,""viewing_time"":5341}]","5341","","","","","","","","","","","","","","","","","","","","","","","","",""
"pit-comprehension","52","602179","0.0-2.0-22.0-0.0","battery-v0.2","","","8335","[""0""]","0","10","996","1085","","","","","","","","","","","","","","","","","","","",""
"pit-instructions","53","603663","0.0-2.0-22.0-1.0","battery-v0.2","","[{""page_index"":0,""viewing_time"":1461}]","1461","","","","","","","","","","","","","","","","","","","","","","","","",""
"pit-comprehension","54","613980","0.0-2.0-23.0-0.0","battery-v0.2","","","10314","[""True""]","0","10","996","1085","","","","","","","","","","","","","","","","","","","",""
"pit-instructions","55","615700","0.0-2.0-23.0-1.0","battery-v0.2","","[{""page_index"":0,""viewing_time"":1696}]","1696","","","","","","","","","","","","","","","","","","","","","","","","",""
"pit-comprehension","56","629045","0.0-2.0-24.0-0.0","battery-v0.2","","","13342","[""True""]","0","10","996","1085","","","","","","","","","","","","","","","","","","","",""
"pit-instructions","57","630595","0.0-2.0-24.0-1.0","battery-v0.2","","[{""page_index"":0,""viewing_time"":1524}]","1524","","","","","","","","","","","","","","","","","","","","","","","","",""
"pit-comprehension","58","638065","0.0-2.0-25.0-0.0","battery-v0.2","","","7468.000000000116","[""True""]","0","10","996","1085","","","","","","","","","","","","","","","","","","","",""
"pit-instructions","59","639550","0.0-2.0-25.0-1.0","battery-v0.2","","[{""page_index"":0,""viewing_time"":1459}]","1459","","","","","","","","","","","","","","","","","","","","","","","","",""
"pit-comprehension","60","646817","0.0-2.0-26.0-0.0","battery-v0.2","","","7265","[""False""]","0","10","996","1085","","","","","","","","","","","","","","","","","","","",""
"pit-instructions","61","648572","0.0-2.0-26.0-1.0","battery-v0.2","","[{""page_index"":0,""viewing_time"":1729}]","1729","","","","","","","","","","","","","","","","","","","","","","","","",""
"pit-instructions","62","670869","0.0-3.0","battery-v0.2","","[{""page_index"":0,""viewing_time"":8042},{""page_index"":1,""viewing_time"":5163},{""page_index"":2,""viewing_time"":9090}]","22295","","","","","","","","","","","","","","","","","","","","","","","","",""
"pit-trial","63","674682","0.0-4.0","battery-v0.2","","","959","","","10","996","1085","&#9730;","elianto","#3366ff99"," "," ","1","0","[1810]","1","1","","","996","1","1","1","win","go","1","[]"
"pit-trial","64","678395","0.0-5.0","battery-v0.2","","","860","","","10","996","1085","&#9733;","elianto","#3366ff99","-1"," ","0","0","[1710]","1","1","","","996","2","2","2","win","no-go","0","0"
"pit-trial","65","682285","0.0-6.0","battery-v0.2","","","1036","","","10","996","1085","&#9728;","elianto","#f73b6a7A","-1"," ","0","-10","[1887]","1","1","","","996","3","0","4","lose","no-go","0","0"
"pit-trial","66","685810","0.0-7.0","battery-v0.2","","","673","","","10","996","1085","&#9752;","elianto","#f73b6a7A"," "," ","1","0","[1523.0000000001164]","1","1","","","996","4","3","3","lose","go","0","0"
"pit-trial","67","689324","0.0-8.0","battery-v0.2","","","661","","","10","996","1085","&#9752;","elianto","#f73b6a7A"," "," ","1","0","[1511]","1","1","","","996","5","3","3","lose","go","0","0"
"pit-trial","68","694179","0.0-9.0","battery-v0.2","","","-1","","","10","996","1085","&#9730;","elianto","#3366ff99"," ","-1","0","0","[]","0","1","","","996","6","1","1","win","go","0","0"
"pit-trial","69","698328","0.0-10.0","battery-v0.2","","","1295","","","10","996","1085","&#9733;","elianto","#3366ff99","-1"," ","0","0","[2145]","1","1","","","996","7","2","2","win","no-go","0","0"
"pit-trial","70","703184","0.0-11.0","battery-v0.2","","","-1","","","10","996","1085","&#9728;","elianto","#f73b6a7A","-1","-1","1","0","[]","0","1","","","996","8","0","4","lose","no-go","0","0"
"pit-trial","71","707037","0.0-12.0","battery-v0.2","","","1000","","","10","996","1085","&#9752;","elianto","#f73b6a7A"," "," ","1","0","[1850]","1","1","","","996","9","3","3","lose","go","0","0"
"pit-trial","72","710713","0.0-13.0","battery-v0.2","","","822","","","10","996","1085","&#9730;","elianto","#3366ff99"," "," ","1","+10","[1673]","1","1","","","996","10","1","1","win","go","0","0"
"pit-trial","73","715568","0.0-14.0","battery-v0.2","","","-1","","","10","996","1085","&#9728;","elianto","#f73b6a7A","-1","-1","1","0","[]","0","1","","","996","11","0","4","lose","no-go","0","0"
"pit-trial","74","720423","0.0-15.0","battery-v0.2","","","-1","","","10","996","1085","&#9733;","elianto","#3366ff99","-1","-1","1","+10","[]","0","1","","","996","12","2","2","win","no-go","0","0"
"pit-trial","75","724609","0.0-16.0","battery-v0.2","","","1332","","","10","996","1085","&#9733;","elianto","#3366ff99","-1"," ","0","0","[2183]","1","1","","","996","13","2","2","win","no-go","0","0"
"pit-trial","76","728477","0.0-17.0","battery-v0.2","","","1014","","","10","996","1085","&#9752;","elianto","#f73b6a7A"," "," ","1","0","[1863.9999999998836]","1","1","","","996","14","3","3","lose","go","0","0"
"pit-trial","77","733331","0.0-18.0","battery-v0.2","","","-1","","","10","996","1085","&#9730;","elianto","#3366ff99"," ","-1","0","+10","[2893]","1","1","","","996","15","1","1","win","go","1","0"
"pit-trial","78","738186","0.0-19.0","battery-v0.2","","","-1","","","10","996","1085","&#9728;","elianto","#f73b6a7A","-1","-1","1","0","[]","0","1","","","996","16","0","4","lose","no-go","0","0"
"pit-trial","79","743041","0.0-20.0","battery-v0.2","","","-1","","","10","996","1085","&#9733;","elianto","#3366ff99","-1","-1","1","+10","[]","0","1","","","996","17","2","2","win","no-go","0","0"
"pit-trial","80","747895","0.0-21.0","battery-v0.2","","","-1","","","10","996","1085","&#9728;","elianto","#f73b6a7A","-1","-1","1","0","[]","0","1","","","996","18","0","4","lose","no-go","0","0"
"pit-trial","81","751804","0.0-22.0","battery-v0.2","","","1056","","","10","996","1085","&#9730;","elianto","#3366ff99"," "," ","1","+10","[1906]","1","1","","","996","19","1","1","win","go","0","0"
"pit-trial","82","755715","0.0-23.0","battery-v0.2","","","1057","","","10","996","1085","&#9752;","elianto","#f73b6a7A"," "," ","1","-10","[1907]","1","1","","","996","20","3","3","lose","go","1","0"
"pit-instructions","83","768519","0.0-24.0","battery-v0.2","","[{""page_index"":0,""viewing_time"":5937.999999999884},{""page_index"":1,""viewing_time"":6863}]","12801.999999999884","","","","","","","","","","","","","","","","","","","","","","","","",""
"pit-trial","84","772328","0.0-25.0","battery-v0.2","","","953","","","10","996","1085","h","elianto","#3366ff99"," "," ","1","+10","[1804]","1","2","","","996","21","3","1","win","go","0","0"
"pit-trial","85","775846","0.0-26.0","battery-v0.2","","","665","","","10","996","1085","m","elianto","#3366ff99","-1"," ","0","0","[1515]","1","2","","","996","22","0","2","win","no-go","0","0"
"pit-trial","86","779769","0.0-27.0","battery-v0.2","","","1070","","","10","996","1085","r","elianto","#f73b6a7A"," "," ","1","0","[1921]","1","2","","","996","23","1","3","lose","go","0","0"
"pit-trial","87","783598","0.0-28.0","battery-v0.2","","","976","","","10","996","1085","y","elianto","#f73b6a7A","-1"," ","0","-10","[1826]","1","2","","","996","24","2","4","lose","no-go","0","0"
"pit-trial","88","787769","0.0-29.0","battery-v0.2","","","1317","","","10","996","1085","h","elianto","#3366ff99"," "," ","1","+10","[2168]","1","2","","","996","25","3","1","win","go","0","0"
"pit-trial","89","792623","0.0-30.0","battery-v0.2","","","-1","","","10","996","1085","r","elianto","#f73b6a7A"," ","-1","0","-10","[]","0","2","","","996","26","1","3","lose","go","0","0"
"pit-trial","90","797477","0.0-31.0","battery-v0.2","","","-1","","","10","996","1085","y","elianto","#f73b6a7A","-1","-1","1","-10","[]","0","2","","","996","27","2","4","lose","no-go","1","0"
"pit-trial","91","802331","0.0-32.0","battery-v0.2","","","-1","","","10","996","1085","m","elianto","#3366ff99","-1","-1","1","0","[]","0","2","","","996","28","0","2","win","no-go","1","0"
"pit-trial","92","807185","0.0-33.0","battery-v0.2","","","-1","","","10","996","1085","r","elianto","#f73b6a7A"," ","-1","0","0","[]","0","2","","","996","29","1","3","lose","go","1","0"
"pit-trial","93","811141","0.0-34.0","battery-v0.2","","","1101","","","10","996","1085","m","elianto","#3366ff99","-1"," ","0","+10","[1952]","1","2","","","996","30","0","2","win","no-go","1","0"
"pit-trial","94","815996","0.0-35.0","battery-v0.2","","","-1","","","10","996","1085","h","elianto","#3366ff99"," ","-1","0","0","[]","0","2","","","996","31","3","1","win","go","0","0"
"pit-trial","95","820850","0.0-36.0","battery-v0.2","","","-1","","","10","996","1085","y","elianto","#f73b6a7A","-1","-1","1","0","[]","0","2","","","996","32","2","4","lose","no-go","0","0"
"pit-trial","96","825704","0.0-37.0","battery-v0.2","","","-1","","","10","996","1085","h","elianto","#3366ff99"," ","-1","0","0","[3036]","1","2","","","996","33","3","1","win","go","0","0"
"pit-trial","97","830559","0.0-38.0","battery-v0.2","","","-1","","","10","996","1085","m","elianto","#3366ff99","-1","-1","1","+10","[]","0","2","","","996","34","0","2","win","no-go","0","0"
"pit-trial","98","835413","0.0-39.0","battery-v0.2","","","-1","","","10","996","1085","y","elianto","#f73b6a7A","-1","-1","1","0","[]","0","2","","","996","35","2","4","lose","no-go","0","0"
"pit-trial","99","839807","0.0-40.0","battery-v0.2","","","1540.0000000001164","","","10","996","1085","r","elianto","#f73b6a7A"," "," ","1","0","[2390]","1","2","","","996","36","1","3","lose","go","0","0"
"pit-trial","100","844661","0.0-41.0","battery-v0.2","","","-1","","","10","996","1085","h","elianto","#3366ff99"," ","-1","0","0","[]","0","2","","","996","37","3","1","win","go","0","0"
"pit-trial","101","849515","0.0-42.0","battery-v0.2","","","-1","","","10","996","1085","y","elianto","#f73b6a7A","-1","-1","1","0","[]","0","2","","","996","38","2","4","lose","no-go","0","0"
"pit-trial","102","853457","0.0-43.0","battery-v0.2","","","1087.0000000001164","","","10","996","1085","m","elianto","#3366ff99","-1"," ","0","0","[1937.0000000001164]","1","2","","","996","39","0","2","win","no-go","0","0"
"pit-trial","103","857747","0.0-44.0","battery-v0.2","","","1437","","","10","996","1085","r","elianto","#f73b6a7A"," "," ","1","0","[2287]","1","2","","","996","40","1","3","lose","go","0","0"
"pit-trial","104","861305","0.0-45.0","battery-v0.2","","","703","","","10","996","1085","h","elianto","#3366ff99"," "," ","1","+10","[1554]","1","2","","","996","41","3","1","win","go","0","0"
"pit-trial","105","866159","0.0-46.0","battery-v0.2","","","-1","","","10","996","1085","y","elianto","#f73b6a7A","-1","-1","1","0","[]","0","2","","","996","42","2","4","lose","no-go","0","0"
"pit-trial","106","871013","0.0-47.0","battery-v0.2","","","-1","","","10","996","1085","m","elianto","#3366ff99","-1","-1","1","+10","[]","0","2","","","996","43","0","2","win","no-go","0","0"
"pit-trial","107","875351","0.0-48.0","battery-v0.2","","","1485","","","10","996","1085","r","elianto","#f73b6a7A"," "," ","1","-10","[2335]","1","2","","","996","44","1","3","lose","go","1","0"
"pit-trial","108","880204","0.0-49.0","battery-v0.2","","","-1","","","10","996","1085","y","elianto","#f73b6a7A","-1","-1","1","0","[]","0","2","","","996","45","2","4","lose","no-go","0","0"
"pit-trial","109","884515","0.0-50.0","battery-v0.2","","","1457","","","10","996","1085","r","elianto","#f73b6a7A"," "," ","1","0","[2308]","1","2","","","996","46","1","3","lose","go","0","0"
"pit-trial","110","888096","0.0-51.0","battery-v0.2","","","726","","","10","996","1085","h","elianto","#3366ff99"," "," ","1","0","[1577]","1","2","","","996","47","3","1","win","go","1","0"
"pit-trial","111","892950","0.0-52.0","battery-v0.2","","","-1","","","10","996","1085","m","elianto","#3366ff99","-1","-1","1","+10","[]","0","2","","","996","48","0","2","win","no-go","0","0"
"pit-trial","112","897805","0.0-53.0","battery-v0.2","","","-1","","","10","996","1085","y","elianto","#f73b6a7A","-1","-1","1","0","[]","0","2","","","996","49","2","4","lose","no-go","0","0"
"pit-trial","113","901637","0.0-54.0","battery-v0.2","","","978","","","10","996","1085","h","elianto","#3366ff99"," "," ","1","0","[1828,3163,3286.0000000001164,3409,3551.0000000001164]","5","2","","","996","50","3","1","win","go","1","0"
"pit-trial","114","905210","0.0-55.0","battery-v0.2","","","720.0000000001164","","","10","996","1085","m","elianto","#3366ff99","-1"," ","0","0","[1570.0000000001164]","1","2","","","996","51","0","2","win","no-go","0","0"
"pit-trial","115","909234","0.0-56.0","battery-v0.2","","","1169","","","10","996","1085","r","elianto","#f73b6a7A"," "," ","1","-10","[2020]","1","2","","","996","52","1","3","lose","go","1","0"
"pit-trial","116","914088","0.0-57.0","battery-v0.2","","","-1","","","10","996","1085","y","elianto","#f73b6a7A","-1","-1","1","0","[]","0","2","","","996","53","2","4","lose","no-go","0","0"
"pit-trial","117","918493","0.0-58.0","battery-v0.2","","","1552","","","10","996","1085","z","elianto","#f73b6a7A"," "," ","1","0","[2402]","1","2","","","996","54","4","3","lose","go","0","0"
"pit-trial","118","923348","0.0-59.0","battery-v0.2","","","-1","","","10","996","1085","r","elianto","#f73b6a7A"," ","-1","0","-10","[]","0","2","","","996","55","1","3","lose","go","0","0"
"pit-trial","119","927169","0.0-60.0","battery-v0.2","","","967","","","10","996","1085","c","elianto","#f73b6a7A","-1"," ","0","-10","[1818]","1","2","","","996","56","5","4","lose","no-go","0","0"
"pit-trial","120","931652","0.0-61.0","battery-v0.2","","","1629.0000000001164","","","10","996","1085","r","elianto","#f73b6a7A"," "," ","1","0","[2479.0000000001164]","1","2","","","996","57","1","3","lose","go","0","0"
"pit-trial","121","936506","0.0-62.0","battery-v0.2","","","-1","","","10","996","1085","c","elianto","#f73b6a7A","-1","-1","1","0","[]","0","2","","","996","58","5","4","lose","no-go","0","0"
"pit-trial","122","941360","0.0-63.0","battery-v0.2","","","-1","","","10","996","1085","z","elianto","#f73b6a7A"," ","-1","0","0","[]","0","2","","","996","59","4","3","lose","go","1","0"
"pit-trial","123","946215","0.0-64.0","battery-v0.2","","","-1","","","10","996","1085","y","elianto","#f73b6a7A","-1","-1","1","0","[]","0","2","","","996","60","2","4","lose","no-go","0","0"
"pit-trial","124","950246","0.0-65.0","battery-v0.2","","","1177","","","10","996","1085","b","elianto","#3366ff99","-1"," ","0","+10","[2028]","1","2","","","996","61","6","2","win","no-go","1","0"
"pit-trial","125","955101","0.0-66.0","battery-v0.2","","","-1","","","10","996","1085","c","elianto","#f73b6a7A","-1","-1","1","0","[]","0","2","","","996","62","5","4","lose","no-go","0","0"
"pit-trial","126","959956","0.0-67.0","battery-v0.2","","","-1","","","10","996","1085","z","elianto","#f73b6a7A"," ","-1","0","-10","[]","0","2","","","996","63","4","3","lose","go","0","0"
"pit-trial","127","964811","0.0-68.0","battery-v0.2","","","-1","","","10","996","1085","y","elianto","#f73b6a7A","-1","-1","1","0","[]","0","2","","","996","64","2","4","lose","no-go","0","0"
"pit-trial","128","968573","0.0-69.0","battery-v0.2","","","908","","","10","996","1085","b","elianto","#3366ff99","-1"," ","0","0","[1759,3161,3290.0000000001164,3410.0000000001164,3522]","5","2","","","996","65","6","2","win","no-go","0","0"
"pit-trial","129","973428","0.0-70.0","battery-v0.2","","","-1","","","10","996","1085","c","elianto","#f73b6a7A","-1","-1","1","0","[]","0","2","","","996","66","5","4","lose","no-go","0","0"
"pit-trial","130","978282","0.0-71.0","battery-v0.2","","","-1","","","10","996","1085","y","elianto","#f73b6a7A","-1","-1","1","0","[]","0","2","","","996","67","2","4","lose","no-go","0","0"
"pit-trial","131","982805","0.0-72.0","battery-v0.2","","","1668","","","10","996","1085","z","elianto","#f73b6a7A"," "," ","1","-10","[2519]","1","2","","","996","68","4","3","lose","go","1","0"
"pit-trial","132","987659","0.0-73.0","battery-v0.2","","","-1","","","10","996","1085","z","elianto","#f73b6a7A"," ","-1","0","-10","[]","0","2","","","996","69","4","3","lose","go","0","0"
"pit-trial","133","991538","0.0-74.0","battery-v0.2","","","1023","","","10","996","1085","b","elianto","#3366ff99","-1"," ","0","0","[1874]","1","2","","","996","70","6","2","win","no-go","0","0"
"pit-trial","134","995488","0.0-75.0","battery-v0.2","","","1095","","","10","996","1085","t","elianto","#3366ff99"," "," ","1","0","[1946]","1","2","","","996","71","7","1","win","go","1","0"
"pit-trial","135","1000343","0.0-76.0","battery-v0.2","","","-1","","","10","996","1085","c","elianto","#f73b6a7A","-1","-1","1","0","[]","0","2","","","996","72","5","4","lose","no-go","0","0"
"pit-trial","136","1005197","0.0-77.0","battery-v0.2","","","-1","","","10","996","1085","b","elianto","#3366ff99","-1","-1","1","+10","[]","0","2","","","996","73","6","2","win","no-go","0","0"
"pit-trial","137","1010052","0.0-78.0","battery-v0.2","","","-1","","","10","996","1085","c","elianto","#f73b6a7A","-1","-1","1","0","[]","0","2","","","996","74","5","4","lose","no-go","0","0"
"pit-trial","138","1014906","0.0-79.0","battery-v0.2","","","-1","","","10","996","1085","t","elianto","#3366ff99"," ","-1","0","0","[4295.999999999884,4544.999999999884,4798.999999999884]","3","2","","","996","75","7","1","win","go","0","0"
"pit-trial","139","1019761","0.0-80.0","battery-v0.2","","","-1","","","10","996","1085","z","elianto","#f73b6a7A"," ","-1","0","-10","[]","0","2","","","996","76","4","3","lose","go","0","0"
"pit-trial","140","1023377","0.0-81.0","battery-v0.2","","","762.0000000001164","","","10","996","1085","z","elianto","#f73b6a7A"," "," ","1","0","[1613.0000000001164]","1","2","","","996","77","4","3","lose","go","0","0"
"pit-trial","141","1028231","0.0-82.0","battery-v0.2","","","-1","","","10","996","1085","c","elianto","#f73b6a7A","-1","-1","1","0","[]","0","2","","","996","78","5","4","lose","no-go","0","0"
"pit-trial","142","1033086","0.0-83.0","battery-v0.2","","","-1","","","10","996","1085","b","elianto","#3366ff99","-1","-1","1","0","[]","0","2","","","996","79","6","2","win","no-go","1","0"
"pit-trial","143","1037940","0.0-84.0","battery-v0.2","","","-1","","","10","996","1085","t","elianto","#3366ff99"," ","-1","0","0","[]","0","2","","","996","80","7","1","win","go","0","0"
"pit-trial","144","1041760","0.0-85.0","battery-v0.2","","","965.0000000001164","","","10","996","1085","t","elianto","#3366ff99"," "," ","1","+10","[1816]","1","2","","","996","81","7","1","win","go","0","0"
"pit-trial","145","1046615","0.0-86.0","battery-v0.2","","","-1","","","10","996","1085","b","elianto","#3366ff99","-1","-1","1","+10","[]","0","2","","","996","82","6","2","win","no-go","0","0"
"pit-trial","146","1051469","0.0-87.0","battery-v0.2","","","-1","","","10","996","1085","c","elianto","#f73b6a7A","-1","-1","1","-10","[]","0","2","","","996","83","5","4","lose","no-go","1","0"
"pit-trial","147","1055732","0.0-88.0","battery-v0.2","","","1409","","","10","996","1085","z","elianto","#f73b6a7A"," "," ","1","0","[2259]","1","2","","","996","84","4","3","lose","go","0","0"
"pit-trial","148","1060585","0.0-89.0","battery-v0.2","","","-1","","","10","996","1085","c","elianto","#f73b6a7A","-1","-1","1","0","[]","0","2","","","996","85","5","4","lose","no-go","0","0"
"pit-trial","149","1064846","0.0-90.0","battery-v0.2","","","1408","","","10","996","1085","z","elianto","#f73b6a7A"," "," ","1","0","[2259]","1","2","","","996","86","4","3","lose","go","0","0"
"pit-trial","150","1069235","0.0-91.0","battery-v0.2","","","1535","","","10","996","1085","b","elianto","#3366ff99","-1"," ","0","0","[2386]","1","2","","","996","87","6","2","win","no-go","0","0"
"pit-trial","151","1074090","0.0-92.0","battery-v0.2","","","-1","","","10","996","1085","t","elianto","#3366ff99"," ","-1","0","+10","[]","0","2","","","996","88","7","1","win","go","1","0"
"pit-trial","152","1078088","0.0-93.0","battery-v0.2","","","1144","","","10","996","1085","z","elianto","#f73b6a7A"," "," ","1","-10","[1995]","1","2","","","996","89","4","3","lose","go","1","0"
"pit-trial","153","1082943","0.0-94.0","battery-v0.2","","","-1","","","10","996","1085","t","elianto","#3366ff99"," ","-1","0","0","[]","0","2","","","996","90","7","1","win","go","0","0"
"pit-trial","154","1087797","0.0-95.0","battery-v0.2","","","-1","","","10","996","1085","b","elianto","#3366ff99","-1","-1","1","0","[]","0","2","","","996","91","6","2","win","no-go","1","0"
"pit-trial","155","1092652","0.0-96.0","battery-v0.2","","","-1","","","10","996","1085","c","elianto","#f73b6a7A","-1","-1","1","0","[188,507]","2","2","","","996","92","5","4","lose","no-go","0","0"
"pit-trial","156","1096383","0.0-97.0","battery-v0.2","","","876","","","10","996","1085","t","elianto","#3366ff99"," "," ","1","0","[1727]","1","2","","","996","93","7","1","win","go","1","0"
"pit-trial","157","1100855","0.0-98.0","battery-v0.2","","","1617.0000000002328","","","10","996","1085","z","elianto","#f73b6a7A"," "," ","1","0","[2468.000000000233,2842,3048,3174,3305.000000000233]","5","2","","","996","94","4","3","lose","go","0","0"
"pit-trial","158","1104986","0.0-99.0","battery-v0.2","","","1278","","","10","996","1085","x","elianto","#3366ff99"," "," ","1","+10","[2128]","1","2","","","996","95","8","1","win","go","0","0"
"pit-trial","159","1109841","0.0-100.0","battery-v0.2","","","-1","","","10","996","1085","b","elianto","#3366ff99","-1","-1","1","+10","[4688.999999999767]","1","2","","","996","96","6","2","win","no-go","0","0"
"pit-trial","160","1113914","0.0-101.0","battery-v0.2","","","1219","","","10","996","1085","z","elianto","#f73b6a7A"," "," ","1","0","[2070]","1","2","","","996","97","4","3","lose","go","0","0"
"pit-trial","161","1117622","0.0-102.0","battery-v0.2","","","853.9999999997672","","","10","996","1085","x","elianto","#3366ff99"," "," ","1","0","[1705]","1","2","","","996","98","8","1","win","go","1","0"
"pit-trial","162","1122476","0.0-103.0","battery-v0.2","","","-1","","","10","996","1085","b","elianto","#3366ff99","-1","-1","1","+10","[]","0","2","","","996","99","6","2","win","no-go","0","0"
"pit-trial","163","1127331","0.0-104.0","battery-v0.2","","","-1","","","10","996","1085","t","elianto","#3366ff99"," ","-1","0","0","[3222]","1","2","","","996","100","7","1","win","go","0","0"
"pit-trial","164","1131511","0.0-105.0","battery-v0.2","","","1326","","","10","996","1085","f","elianto","#3366ff99","-1"," ","0","0","[2177]","1","2","","","996","101","9","2","win","no-go","0","0"
"pit-trial","165","1135855","0.0-106.0","battery-v0.2","","","1490","","","10","996","1085","b","elianto","#3366ff99","-1"," ","0","0","[2339.000000000233]","1","2","","","996","102","6","2","win","no-go","0","0"
"pit-trial","166","1140709","0.0-107.0","battery-v0.2","","","-1","","","10","996","1085","t","elianto","#3366ff99"," ","-1","0","+10","[]","0","2","","","996","103","7","1","win","go","1","0"
"pit-trial","167","1145386","0.0-108.0","battery-v0.2","","","1823","","","10","996","1085","x","elianto","#3366ff99"," "," ","1","+10","[2673]","1","2","","","996","104","8","1","win","go","0","0"
"pit-trial","168","1149806","0.0-109.0","battery-v0.2","","","1567","","","10","996","1085","t","elianto","#3366ff99"," "," ","1","+10","[2417]","1","2","","","996","105","7","1","win","go","0","0"
"pit-trial","169","1153662","0.0-110.0","battery-v0.2","","","1001","","","10","996","1085","f","elianto","#3366ff99","-1"," ","0","0","[1851]","1","2","","","996","106","9","2","win","no-go","0","0"
"pit-trial","170","1157957","0.0-111.0","battery-v0.2","","","1441","","","10","996","1085","x","elianto","#3366ff99"," "," ","1","+10","[2292]","1","2","","","996","107","8","1","win","go","0","0"
"pit-trial","171","1162811","0.0-112.0","battery-v0.2","","","-1","","","10","996","1085","b","elianto","#3366ff99","-1","-1","1","+10","[]","0","2","","","996","108","6","2","win","no-go","0","0"
"pit-trial","172","1167072","0.0-113.0","battery-v0.2","","","1406","","","10","996","1085","q","elianto","#f73b6a7A","-1"," ","0","-10","[2257]","1","2","","","996","109","11","4","lose","no-go","0","0"
"pit-trial","173","1171284","0.0-114.0","battery-v0.2","","","1359","","","10","996","1085","n","elianto","#f73b6a7A"," "," ","1","-10","[2209]","1","2","","","996","110","10","3","lose","go","1","0"
"pit-trial","174","1175779","0.0-115.0","battery-v0.2","","","1642","","","10","996","1085","f","elianto","#3366ff99","-1"," ","0","0","[2491]","1","2","","","996","111","9","2","win","no-go","0","0"
"pit-trial","175","1179757","0.0-116.0","battery-v0.2","","","1123.0000000002328","","","10","996","1085","x","elianto","#3366ff99"," "," ","1","0","[1974.0000000002328]","1","2","","","996","112","8","1","win","go","1","0"
"pit-trial","176","1184612","0.0-117.0","battery-v0.2","","","-1","","","10","996","1085","n","elianto","#f73b6a7A"," ","-1","0","-10","[]","0","2","","","996","113","10","3","lose","go","0","0"
"pit-trial","177","1188709","0.0-118.0","battery-v0.2","","","1243.0000000002328","","","10","996","1085","f","elianto","#3366ff99","-1"," ","0","0","[2094.000000000233,2393]","2","2","","","996","114","9","2","win","no-go","0","0"
"pit-trial","178","1193564","0.0-119.0","battery-v0.2","","","-1","","","10","996","1085","q","elianto","#f73b6a7A","-1","-1","1","0","[]","0","2","","","996","115","11","4","lose","no-go","0","0"
"pit-trial","179","1197706","0.0-120.0","battery-v0.2","","","1287","","","10","996","1085","x","elianto","#3366ff99"," "," ","1","+10","[2137]","1","2","","","996","116","8","1","win","go","0","0"
"pit-trial","180","1201621","0.0-121.0","battery-v0.2","","","1061","","","10","996","1085","x","elianto","#3366ff99"," "," ","1","+10","[1911]","1","2","","","996","117","8","1","win","go","0","0"
"pit-trial","181","1206475","0.0-122.0","battery-v0.2","","","-1","","","10","996","1085","q","elianto","#f73b6a7A","-1","-1","1","0","[]","0","2","","","996","118","11","4","lose","no-go","0","0"
"pit-trial","182","1210562","0.0-123.0","battery-v0.2","","","1234","","","10","996","1085","f","elianto","#3366ff99","-1"," ","0","0","[2083.999999999767]","1","2","","","996","119","9","2","win","no-go","0","0"
"pit-trial","183","1215416","0.0-124.0","battery-v0.2","","","-1","","","10","996","1085","n","elianto","#f73b6a7A"," ","-1","0","-10","[]","0","2","","","996","120","10","3","lose","go","0","0"
"pit-trial","184","1219275","0.0-125.0","battery-v0.2","","","1005","","","10","996","1085","x","elianto","#3366ff99"," "," ","1","+10","[1855]","1","2","","","996","121","8","1","win","go","0","0"
"pit-trial","185","1223707","0.0-126.0","battery-v0.2","","","1578","","","10","996","1085","n","elianto","#f73b6a7A"," "," ","1","0","[2429]","1","2","","","996","122","10","3","lose","go","0","0"
"pit-trial","186","1228561","0.0-127.0","battery-v0.2","","","-1","","","10","996","1085","q","elianto","#f73b6a7A","-1","-1","1","0","[]","0","2","","","996","123","11","4","lose","no-go","0","0"
"pit-trial","187","1233415","0.0-128.0","battery-v0.2","","","-1","","","10","996","1085","f","elianto","#3366ff99","-1","-1","1","+10","[]","0","2","","","996","124","9","2","win","no-go","0","0"
"pit-trial","188","1238270","0.0-129.0","battery-v0.2","","","-1","","","10","996","1085","n","elianto","#f73b6a7A"," ","-1","0","-10","[]","0","2","","","996","125","10","3","lose","go","0","0"
"pit-trial","189","1242067","0.0-130.0","battery-v0.2","","","943","","","10","996","1085","x","elianto","#3366ff99"," "," ","1","+10","[1794]","1","2","","","996","126","8","1","win","go","0","0"
"pit-trial","190","1246922","0.0-131.0","battery-v0.2","","","-1","","","10","996","1085","f","elianto","#3366ff99","-1","-1","1","+10","[]","0","2","","","996","127","9","2","win","no-go","0","0"
"pit-trial","191","1251776","0.0-132.0","battery-v0.2","","","-1","","","10","996","1085","q","elianto","#f73b6a7A","-1","-1","1","0","[]","0","2","","","996","128","11","4","lose","no-go","0","0"
"pit-trial","192","1255702","0.0-133.0","battery-v0.2","","","1071","","","10","996","1085","x","elianto","#3366ff99"," "," ","1","+10","[1922]","1","2","","","996","129","8","1","win","go","0","0"
"pit-trial","193","1260555","0.0-134.0","battery-v0.2","","","-1","","","10","996","1085","f","elianto","#3366ff99","-1","-1","1","+10","[]","0","2","","","996","130","9","2","win","no-go","0","0"
"pit-trial","194","1265409","0.0-135.0","battery-v0.2","","","-1","","","10","996","1085","q","elianto","#f73b6a7A","-1","-1","1","-10","[]","0","2","","","996","131","11","4","lose","no-go","1","0"
"pit-trial","195","1268983","0.0-136.0","battery-v0.2","","","719","","","10","996","1085","n","elianto","#f73b6a7A"," "," ","1","0","[1570]","1","2","","","996","132","10","3","lose","go","0","0"
"pit-trial","196","1273837","0.0-137.0","battery-v0.2","","","-1","","","10","996","1085","f","elianto","#3366ff99","-1","-1","1","+10","[]","0","2","","","996","133","9","2","win","no-go","0","0"
"pit-trial","197","1277743","0.0-138.0","battery-v0.2","","","1052","","","10","996","1085","x","elianto","#3366ff99"," "," ","1","+10","[1902]","1","2","","","996","134","8","1","win","go","0","0"
"pit-trial","198","1282597","0.0-139.0","battery-v0.2","","","-1","","","10","996","1085","q","elianto","#f73b6a7A","-1","-1","1","0","[]","0","2","","","996","135","11","4","lose","no-go","0","0"
"pit-trial","199","1286342","0.0-140.0","battery-v0.2","","","891","","","10","996","1085","n","elianto","#f73b6a7A"," "," ","1","0","[1742]","1","2","","","996","136","10","3","lose","go","0","0"
"pit-trial","200","1289938","0.0-141.0","battery-v0.2","","","742","","","10","996","1085","x","elianto","#3366ff99"," "," ","1","+10","[1593]","1","2","","","996","137","8","1","win","go","0","0"
"pit-trial","201","1294792","0.0-142.0","battery-v0.2","","","-1","","","10","996","1085","q","elianto","#f73b6a7A","-1","-1","1","-10","[]","0","2","","","996","138","11","4","lose","no-go","1","0"
"pit-trial","202","1299631","0.0-143.0","battery-v0.2","","","1986","","","10","996","1085","n","elianto","#f73b6a7A"," "," ","1","0","[2836.000000000233]","1","2","","","996","139","10","3","lose","go","0","0"
"pit-trial","203","1304485","0.0-144.0","battery-v0.2","","","-1","","","10","996","1085","f","elianto","#3366ff99","-1","-1","1","+10","[]","0","2","","","996","140","9","2","win","no-go","0","0"
"pit-instructions","204","1552426","0.0-145.0","battery-v0.2","","[{""page_index"":0,""viewing_time"":239110},{""page_index"":1,""viewing_time"":8831}]","247941","","","","","","","","","","","","","","","","","","","","","","","","",""
"pit-trial","205","1556526","0.0-146.0","battery-v0.2","","","1245","","","10","996","1085","g","elianto","#f73b6a7A"," "," ","1","0","[2095]","1","3","","","996","141","3","3","lose","go","0","0"
"pit-trial","206","1561380","0.0-147.0","battery-v0.2","","","-1","","","10","996","1085","u","elianto","#3366ff99","-1","-1","1","+10","[3046,3262.000000000233]","2","3","","","996","142","0","2","win","no-go","0","0"
"pit-trial","207","1565419","0.0-148.0","battery-v0.2","","","1183.9999999997672","","","10","996","1085","a","elianto","#3366ff99"," "," ","1","+10","[2035]","1","3","","","996","143","2","1","win","go","0","0"
"pit-trial","208","1569279","0.0-149.0","battery-v0.2","","","1006.9999999997672","","","10","996","1085","l","elianto","#3366ff99","-1"," ","0","+10","[1857]","1","3","","","996","144","1","2","win","no-go","1","0"
"pit-trial","209","1574133","0.0-150.0","battery-v0.2","","","-1","","","10","996","1085","u","elianto","#3366ff99","-1","-1","1","0","[]","0","3","","","996","145","0","2","win","no-go","1","0"
"pit-trial","210","1578368","0.0-151.0","battery-v0.2","","","1381.0000000002328","","","10","996","1085","g","elianto","#f73b6a7A"," "," ","1","0","[2231]","1","3","","","996","146","3","3","lose","go","0","0"
"pit-trial","211","1582654","0.0-152.0","battery-v0.2","","","1432","","","10","996","1085","a","elianto","#3366ff99"," "," ","1","+10","[2282,2562]","2","3","","","996","147","2","1","win","go","0","0"
"pit-trial","212","1586438","0.0-153.0","battery-v0.2","","","930","","","10","996","1085","l","elianto","#3366ff99","-1"," ","0","0","[1780]","1","3","","","996","148","1","2","win","no-go","0","0"
"pit-trial","213","1590233","0.0-154.0","battery-v0.2","","","941","","","10","996","1085","a","elianto","#3366ff99"," "," ","1","+10","[1792]","1","3","","","996","149","2","1","win","go","0","0"
"pit-trial","214","1594305","0.0-155.0","battery-v0.2","","","1219","","","10","996","1085","g","elianto","#f73b6a7A"," "," ","1","-10","[2069]","1","3","","","996","150","3","3","lose","go","1","0"
"pit-trial","215","1599159","0.0-156.0","battery-v0.2","","","-1","","","10","996","1085","l","elianto","#3366ff99","-1","-1","1","+10","[3087]","1","3","","","996","151","1","2","win","no-go","0","0"
"pit-trial","216","1602946","0.0-157.0","battery-v0.2","","","931.0000000002328","","","10","996","1085","u","elianto","#3366ff99","-1"," ","0","0","[1783.0000000002328]","1","3","","","996","152","0","2","win","no-go","0","0"
"pit-trial","217","1606670","0.0-158.0","battery-v0.2","","","870","","","10","996","1085","a","elianto","#3366ff99"," "," ","1","+10","[1721]","1","3","","","996","153","2","1","win","go","0","0"
"pit-trial","218","1610776","0.0-159.0","battery-v0.2","","","1253","","","10","996","1085","g","elianto","#f73b6a7A"," "," ","1","0","[2103]","1","3","","","996","154","3","3","lose","go","0","0"
"pit-trial","219","1615629","0.0-160.0","battery-v0.2","","","-1","","","10","996","1085","l","elianto","#3366ff99","-1","-1","1","+10","[]","0","3","","","996","155","1","2","win","no-go","0","0"
"pit-trial","220","1620484","0.0-161.0","battery-v0.2","","","-1","","","10","996","1085","u","elianto","#3366ff99","-1","-1","1","+10","[]","0","3","","","996","156","0","2","win","no-go","0","0"
"pit-trial","221","1624053","0.0-162.0","battery-v0.2","","","716","","","10","996","1085","a","elianto","#3366ff99"," "," ","1","0","[1566]","1","3","","","996","157","2","1","win","go","1","0"
"pit-trial","222","1628023","0.0-163.0","battery-v0.2","","","1116.0000000002328","","","10","996","1085","g","elianto","#f73b6a7A"," "," ","1","0","[648,1966.0000000002328]","2","3","","","996","158","3","3","lose","go","0","0"
"pit-trial","223","1632877","0.0-164.0","battery-v0.2","","","-1","","","10","996","1085","l","elianto","#3366ff99","-1","-1","1","+10","[]","0","3","","","996","159","1","2","win","no-go","0","0"
"pit-trial","224","1637730","0.0-165.0","battery-v0.2","","","-1","","","10","996","1085","u","elianto","#3366ff99","-1","-1","1","+10","[]","0","3","","","996","160","0","2","win","no-go","0","0"
"pit-trial","225","1642099","0.0-166.0","battery-v0.2","","","1515","","","10","996","1085","g","elianto","#f73b6a7A"," "," ","1","0","[2365.999999999767]","1","3","","","996","161","3","3","lose","go","0","0"
"pit-trial","226","1646954","0.0-167.0","battery-v0.2","","","-1","","","10","996","1085","l","elianto","#3366ff99","-1","-1","1","0","[]","0","3","","","996","162","1","2","win","no-go","1","0"
"pit-trial","227","1650647","0.0-168.0","battery-v0.2","","","840","","","10","996","1085","a","elianto","#3366ff99"," "," ","1","0","[1691]","1","3","","","996","163","2","1","win","go","1","0"
"pit-trial","228","1655500","0.0-169.0","battery-v0.2","","","-1","","","10","996","1085","u","elianto","#3366ff99","-1","-1","1","+10","[]","0","3","","","996","164","0","2","win","no-go","0","0"
"pit-trial","229","1659299","0.0-170.0","battery-v0.2","","","945","","","10","996","1085","a","elianto","#3366ff99"," "," ","1","+10","[1795]","1","3","","","996","165","2","1","win","go","0","0"
"pit-trial","230","1664153","0.0-171.0","battery-v0.2","","","-1","","","10","996","1085","u","elianto","#3366ff99","-1","-1","1","+10","[]","0","3","","","996","166","0","2","win","no-go","0","0"
"pit-trial","231","1669008","0.0-172.0","battery-v0.2","","","-1","","","10","996","1085","l","elianto","#3366ff99","-1","-1","1","+10","[]","0","3","","","996","167","1","2","win","no-go","0","0"
"pit-trial","232","1673861","0.0-173.0","battery-v0.2","","","-1","","","10","996","1085","g","elianto","#f73b6a7A"," ","-1","0","0","[]","0","3","","","996","168","3","3","lose","go","1","0"
"pit-trial","233","1677915","0.0-174.0","battery-v0.2","","","1201","","","10","996","1085","a","elianto","#3366ff99"," "," ","1","0","[2052]","1","3","","","996","169","2","1","win","go","1","0"
"pit-trial","234","1682770","0.0-175.0","battery-v0.2","","","-1","","","10","996","1085","u","elianto","#3366ff99","-1","-1","1","+10","[]","0","3","","","996","170","0","2","win","no-go","0","0"
"pit-trial","235","1686920","0.0-176.0","battery-v0.2","","","1296","","","10","996","1085","g","elianto","#f73b6a7A"," "," ","1","0","[2147]","1","3","","","996","171","3","3","lose","go","0","0"
"pit-trial","236","1691775","0.0-177.0","battery-v0.2","","","-1","","","10","996","1085","l","elianto","#3366ff99","-1","-1","1","+10","[]","0","3","","","996","172","1","2","win","no-go","0","0"
"pit-trial","237","1695822","0.0-178.0","battery-v0.2","","","1194","","","10","996","1085","a","elianto","#3366ff99"," "," ","1","+10","[2044]","1","3","","","996","173","2","1","win","go","0","0"
"pit-trial","238","1700676","0.0-179.0","battery-v0.2","","","-1","","","10","996","1085","u","elianto","#3366ff99","-1","-1","1","+10","[]","0","3","","","996","174","0","2","win","no-go","0","0"
"pit-trial","239","1705388","0.0-180.0","battery-v0.2","","","1856.9999999997672","","","10","996","1085","p","elianto","#f73b6a7A","-1"," ","0","-10","[2708]","1","3","","","996","175","4","4","lose","no-go","0","0"
"pit-trial","240","1709935","0.0-181.0","battery-v0.2","","","1693","","","10","996","1085","s","elianto","#f73b6a7A"," "," ","1","0","[2543.000000000233]","1","3","","","996","176","5","3","lose","go","0","0"
"pit-trial","241","1714752","0.0-182.0","battery-v0.2","","","1965","","","10","996","1085","s","elianto","#f73b6a7A"," "," ","1","0","[2815]","1","3","","","996","177","5","3","lose","go","0","0"
"pit-trial","242","1718738","0.0-183.0","battery-v0.2","","","1134","","","10","996","1085","a","elianto","#3366ff99"," "," ","1","+10","[1984]","1","3","","","996","178","2","1","win","go","0","0"
"pit-trial","243","1723593","0.0-184.0","battery-v0.2","","","-1","","","10","996","1085","p","elianto","#f73b6a7A","-1","-1","1","0","[]","0","3","","","996","179","4","4","lose","no-go","0","0"
"pit-trial","244","1728442","0.0-185.0","battery-v0.2","","","1995","","","10","996","1085","u","elianto","#3366ff99","-1"," ","0","0","[2846]","1","3","","","996","180","0","2","win","no-go","0","0"
"pit-trial","245","1732538","0.0-186.0","battery-v0.2","","","1242","","","10","996","1085","w","elianto","#3366ff99","-1"," ","0","0","[2093]","1","3","","","996","181","6","2","win","no-go","0","0"
"pit-trial","246","1736153","0.0-187.0","battery-v0.2","","","761","","","10","996","1085","a","elianto","#3366ff99"," "," ","1","+10","[1612]","1","3","","","996","182","2","1","win","go","0","0"
"pit-trial","247","1741007","0.0-188.0","battery-v0.2","","","-1","","","10","996","1085","p","elianto","#f73b6a7A","-1","-1","1","0","[]","0","3","","","996","183","4","4","lose","no-go","0","0"
"pit-trial","248","1744910","0.0-189.0","battery-v0.2","","","1048","","","10","996","1085","s","elianto","#f73b6a7A"," "," ","1","0","[1898.9999999997672]","1","3","","","996","184","5","3","lose","go","0","0"
"pit-trial","249","1748699","0.0-190.0","battery-v0.2","","","934","","","10","996","1085","a","elianto","#3366ff99"," "," ","1","0","[1785]","1","3","","","996","185","2","1","win","go","1","0"
"pit-trial","250","1753553","0.0-191.0","battery-v0.2","","","-1","","","10","996","1085","p","elianto","#f73b6a7A","-1","-1","1","-10","[]","0","3","","","996","186","4","4","lose","no-go","1","0"
"pit-trial","251","1758408","0.0-192.0","battery-v0.2","","","-1","","","10","996","1085","w","elianto","#3366ff99","-1","-1","1","+10","[]","0","3","","","996","187","6","2","win","no-go","0","0"
"pit-trial","252","1762806","0.0-193.0","battery-v0.2","","","1544","","","10","996","1085","s","elianto","#f73b6a7A"," "," ","1","-10","[2394]","1","3","","","996","188","5","3","lose","go","1","0"
"pit-trial","253","1767661","0.0-194.0","battery-v0.2","","","-1","","","10","996","1085","s","elianto","#f73b6a7A"," ","-1","0","-10","[]","0","3","","","996","189","5","3","lose","go","0","0"
"pit-trial","254","1771662","0.0-195.0","battery-v0.2","","","1147","","","10","996","1085","p","elianto","#f73b6a7A","-1"," ","0","-10","[1997.9999999997672]","1","3","","","996","190","4","4","lose","no-go","0","0"
"pit-trial","255","1776516","0.0-196.0","battery-v0.2","","","-1","","","10","996","1085","w","elianto","#3366ff99","-1","-1","1","+10","[]","0","3","","","996","191","6","2","win","no-go","0","0"
"pit-trial","256","1781259","0.0-197.0","battery-v0.2","","","1890.0000000002328","","","10","996","1085","e","elianto","#f73b6a7A","-1"," ","0","-10","[2741.000000000233]","1","3","","","996","192","7","4","lose","no-go","0","0"
"pit-trial","257","1786113","0.0-198.0","battery-v0.2","","","-1","","","10","996","1085","e","elianto","#f73b6a7A","-1","-1","1","0","[]","0","3","","","996","193","7","4","lose","no-go","0","0"
"pit-trial","258","1790968","0.0-199.0","battery-v0.2","","","-1","","","10","996","1085","s","elianto","#f73b6a7A"," ","-1","0","-10","[]","0","3","","","996","194","5","3","lose","go","0","0"
"pit-trial","259","1795823","0.0-200.0","battery-v0.2","","","-1","","","10","996","1085","p","elianto","#f73b6a7A","-1","-1","1","0","[]","0","3","","","996","195","4","4","lose","no-go","0","0"
"pit-trial","260","1800677","0.0-201.0","battery-v0.2","","","-1","","","10","996","1085","w","elianto","#3366ff99","-1","-1","1","+10","[]","0","3","","","996","196","6","2","win","no-go","0","0"
"pit-trial","261","1805532","0.0-202.0","battery-v0.2","","","-1","","","10","996","1085","p","elianto","#f73b6a7A","-1","-1","1","0","[]","0","3","","","996","197","4","4","lose","no-go","0","0"
"pit-trial","262","1810349","0.0-203.0","battery-v0.2","","","1963.9999999997672","","","10","996","1085","s","elianto","#f73b6a7A"," "," ","1","0","[2814]","1","3","","","996","198","5","3","lose","go","0","0"
"pit-trial","263","1815203","0.0-204.0","battery-v0.2","","","-1","","","10","996","1085","w","elianto","#3366ff99","-1","-1","1","+10","[]","0","3","","","996","199","6","2","win","no-go","0","0"
"pit-trial","264","1820058","0.0-205.0","battery-v0.2","","","-1","","","10","996","1085","e","elianto","#f73b6a7A","-1","-1","1","0","[]","0","3","","","996","200","7","4","lose","no-go","0","0"
"pit-trial","265","1824912","0.0-206.0","battery-v0.2","","","-1","","","10","996","1085","w","elianto","#3366ff99","-1","-1","1","0","[]","0","3","","","996","201","6","2","win","no-go","1","0"
"pit-trial","266","1829668","0.0-207.0","battery-v0.2","","","1901","","","10","996","1085","s","elianto","#f73b6a7A"," "," ","1","0","[2752]","1","3","","","996","202","5","3","lose","go","0","0"
"pit-trial","267","1834524","0.0-208.0","battery-v0.2","","","-1","","","10","996","1085","e","elianto","#f73b6a7A","-1","-1","1","0","[]","0","3","","","996","203","7","4","lose","no-go","0","0"
"pit-trial","268","1839378","0.0-209.0","battery-v0.2","","","-1","","","10","996","1085","p","elianto","#f73b6a7A","-1","-1","1","0","[]","0","3","","","996","204","4","4","lose","no-go","0","0"
"pit-trial","269","1844233","0.0-210.0","battery-v0.2","","","-1","","","10","996","1085","e","elianto","#f73b6a7A","-1","-1","1","0","[]","0","3","","","996","205","7","4","lose","no-go","0","0"
"pit-trial","270","1848258","0.0-211.0","battery-v0.2","","","1170.9999999997672","","","10","996","1085","s","elianto","#f73b6a7A"," "," ","1","0","[2021]","1","3","","","996","206","5","3","lose","go","0","0"
"pit-trial","271","1853113","0.0-212.0","battery-v0.2","","","-1","","","10","996","1085","w","elianto","#3366ff99","-1","-1","1","0","[]","0","3","","","996","207","6","2","win","no-go","1","0"
"pit-trial","272","1857967","0.0-213.0","battery-v0.2","","","-1","","","10","996","1085","p","elianto","#f73b6a7A","-1","-1","1","0","[]","0","3","","","996","208","4","4","lose","no-go","0","0"
"pit-trial","273","1862822","0.0-214.0","battery-v0.2","","","-1","","","10","996","1085","w","elianto","#3366ff99","-1","-1","1","+10","[]","0","3","","","996","209","6","2","win","no-go","0","0"
"pit-trial","274","1866334","0.0-215.0","battery-v0.2","","","658","","","10","996","1085","s","elianto","#f73b6a7A"," "," ","1","0","[1509]","1","3","","","996","210","5","3","lose","go","0","0"
"pit-trial","275","1871188","0.0-216.0","battery-v0.2","","","-1","","","10","996","1085","p","elianto","#f73b6a7A","-1","-1","1","-10","[]","0","3","","","996","211","4","4","lose","no-go","1","0"
"pit-trial","276","1876043","0.0-217.0","battery-v0.2","","","-1","","","10","996","1085","e","elianto","#f73b6a7A","-1","-1","1","0","[]","0","3","","","996","212","7","4","lose","no-go","0","0"
"pit-trial","277","1879514","0.0-218.0","battery-v0.2","","","616","","","10","996","1085","s","elianto","#f73b6a7A"," "," ","1","0","[1467]","1","3","","","996","213","5","3","lose","go","0","0"
"pit-trial","278","1883973","0.0-219.0","battery-v0.2","","","1606","","","10","996","1085","k","elianto","#f73b6a7A","-1"," ","0","-10","[2456]","1","3","","","996","214","8","4","lose","no-go","0","0"
"pit-trial","279","1888828","0.0-220.0","battery-v0.2","","","-1","","","10","996","1085","e","elianto","#f73b6a7A","-1","-1","1","0","[]","0","3","","","996","215","7","4","lose","no-go","0","0"
"pit-trial","280","1893682","0.0-221.0","battery-v0.2","","","-1","","","10","996","1085","w","elianto","#3366ff99","-1","-1","1","+10","[]","0","3","","","996","216","6","2","win","no-go","0","0"
"pit-trial","281","1898537","0.0-222.0","battery-v0.2","","","-1","","","10","996","1085","w","elianto","#3366ff99","-1","-1","1","+10","[]","0","3","","","996","217","6","2","win","no-go","0","0"
"pit-trial","282","1903391","0.0-223.0","battery-v0.2","","","-1","","","10","996","1085","e","elianto","#f73b6a7A","-1","-1","1","0","[]","0","3","","","996","218","7","4","lose","no-go","0","0"
"pit-trial","283","1907167","0.0-224.0","battery-v0.2","","","921","","","10","996","1085","s","elianto","#f73b6a7A"," "," ","1","0","[1772.9999999997672]","1","3","","","996","219","5","3","lose","go","0","0"
"pit-trial","284","1912021","0.0-225.0","battery-v0.2","","","-1","","","10","996","1085","k","elianto","#f73b6a7A","-1","-1","1","-10","[]","0","3","","","996","220","8","4","lose","no-go","1","0"
"pit-trial","285","1916875","0.0-226.0","battery-v0.2","","","-1","","","10","996","1085","k","elianto","#f73b6a7A","-1","-1","1","0","[]","0","3","","","996","221","8","4","lose","no-go","0","0"
"pit-trial","286","1921092","0.0-227.0","battery-v0.2","","","1364","","","10","996","1085","j","elianto","#f73b6a7A"," "," ","1","0","[2214]","1","3","","","996","222","10","3","lose","go","0","0"
"pit-trial","287","1925946","0.0-228.0","battery-v0.2","","","-1","","","10","996","1085","w","elianto","#3366ff99","-1","-1","1","+10","[]","0","3","","","996","223","6","2","win","no-go","0","0"
"pit-trial","288","1930264","0.0-229.0","battery-v0.2","","","1463","","","10","996","1085","d","elianto","#3366ff99"," "," ","1","0","[2314]","1","3","","","996","224","9","1","win","go","1","0"
"pit-trial","289","1935118","0.0-230.0","battery-v0.2","","","-1","","","10","996","1085","d","elianto","#3366ff99"," ","-1","0","0","[4071,4270.000000000233,4512,4706]","4","3","","","996","225","9","1","win","go","0","0"
"pit-trial","290","1939507","0.0-231.0","battery-v0.2","","","1536","","","10","996","1085","j","elianto","#f73b6a7A"," "," ","1","0","[88,345,2386]","3","3","","","996","226","10","3","lose","go","0","0"
"pit-trial","291","1944362","0.0-232.0","battery-v0.2","","","-1","","","10","996","1085","w","elianto","#3366ff99","-1","-1","1","+10","[]","0","3","","","996","227","6","2","win","no-go","0","0"
"pit-trial","292","1949216","0.0-233.0","battery-v0.2","","","-1","","","10","996","1085","k","elianto","#f73b6a7A","-1","-1","1","0","[]","0","3","","","996","228","8","4","lose","no-go","0","0"
"pit-trial","293","1954071","0.0-234.0","battery-v0.2","","","-1","","","10","996","1085","j","elianto","#f73b6a7A"," ","-1","0","-10","[]","0","3","","","996","229","10","3","lose","go","0","0"
"pit-trial","294","1958925","0.0-235.0","battery-v0.2","","","-1","","","10","996","1085","d","elianto","#3366ff99"," ","-1","0","0","[4363]","1","3","","","996","230","9","1","win","go","0","0"
"pit-trial","295","1962941","0.0-236.0","battery-v0.2","","","1162.0000000002328","","","10","996","1085","v","elianto","#3366ff99"," "," ","1","0","[2012.0000000002328]","1","3","","","996","231","11","1","win","go","1","0"
"pit-trial","296","1967796","0.0-237.0","battery-v0.2","","","-1","","","10","996","1085","k","elianto","#f73b6a7A","-1","-1","1","-10","[]","0","3","","","996","232","8","4","lose","no-go","1","0"
"pit-trial","297","1972650","0.0-238.0","battery-v0.2","","","-1","","","10","996","1085","j","elianto","#f73b6a7A"," ","-1","0","-10","[]","0","3","","","996","233","10","3","lose","go","0","0"
"pit-trial","298","1977151","0.0-239.0","battery-v0.2","","","1648.0000000002328","","","10","996","1085","v","elianto","#3366ff99"," "," ","1","0","[2497.999999999767,4088.999999999767,4284.999999999767,4451]","4","3","","","996","234","11","1","win","go","1","0"
"pit-trial","299","1982006","0.0-240.0","battery-v0.2","","","-1","","","10","996","1085","d","elianto","#3366ff99"," ","-1","0","0","[]","0","3","","","996","235","9","1","win","go","0","0"
"pit-trial","300","1986861","0.0-241.0","battery-v0.2","","","-1","","","10","996","1085","k","elianto","#f73b6a7A","-1","-1","1","0","[]","0","3","","","996","236","8","4","lose","no-go","0","0"
"pit-trial","301","1991009","0.0-242.0","battery-v0.2","","","1294.0000000002328","","","10","996","1085","d","elianto","#3366ff99"," "," ","1","+10","[2145]","1","3","","","996","237","9","1","win","go","0","0"
"pit-trial","302","1995863","0.0-243.0","battery-v0.2","","","-1","","","10","996","1085","v","elianto","#3366ff99"," ","-1","0","0","[]","0","3","","","996","238","11","1","win","go","0","0"
"pit-trial","303","2000717","0.0-244.0","battery-v0.2","","","-1","","","10","996","1085","j","elianto","#f73b6a7A"," ","-1","0","-10","[]","0","3","","","996","239","10","3","lose","go","0","0"
"pit-trial","304","2005572","0.0-245.0","battery-v0.2","","","-1","","","10","996","1085","k","elianto","#f73b6a7A","-1","-1","1","-10","[]","0","3","","","996","240","8","4","lose","no-go","1","0"
"pit-trial","305","2010427","0.0-246.0","battery-v0.2","","","-1","","","10","996","1085","j","elianto","#f73b6a7A"," ","-1","0","-10","[2894]","1","3","","","996","241","10","3","lose","go","0","0"
"pit-trial","306","2014644","0.0-247.0","battery-v0.2","","","1364","","","10","996","1085","k","elianto","#f73b6a7A","-1"," ","0","-10","[2215]","1","3","","","996","242","8","4","lose","no-go","0","0"
"pit-trial","307","2018542","0.0-248.0","battery-v0.2","","","1043.9999999997672","","","10","996","1085","v","elianto","#3366ff99"," "," ","1","+10","[1895]","1","3","","","996","243","11","1","win","go","0","0"
"pit-trial","308","2022059","0.0-249.0","battery-v0.2","","","663","","","10","996","1085","d","elianto","#3366ff99"," "," ","1","+10","[1513.9999999997672]","1","3","","","996","244","9","1","win","go","0","0"
"pit-trial","309","2025963","0.0-250.0","battery-v0.2","","","1049","","","10","996","1085","d","elianto","#3366ff99"," "," ","1","+10","[1900]","1","3","","","996","245","9","1","win","go","0","0"
"pit-trial","310","2029531","0.0-251.0","battery-v0.2","","","712","","","10","996","1085","v","elianto","#3366ff99"," "," ","1","+10","[1564]","1","3","","","996","246","11","1","win","go","0","0"
"pit-trial","311","2034386","0.0-252.0","battery-v0.2","","","-1","","","10","996","1085","j","elianto","#f73b6a7A"," ","-1","0","-10","[4149]","1","3","","","996","247","10","3","lose","go","0","0"
"pit-trial","312","2039240","0.0-253.0","battery-v0.2","","","-1","","","10","996","1085","k","elianto","#f73b6a7A","-1","-1","1","0","[]","0","3","","","996","248","8","4","lose","no-go","0","0"
"pit-trial","313","2043621","0.0-254.0","battery-v0.2","","","1525.9999999997672","","","10","996","1085","j","elianto","#f73b6a7A"," "," ","1","-10","[2377]","1","3","","","996","249","10","3","lose","go","1","0"
"pit-trial","314","2047397","0.0-255.0","battery-v0.2","","","922","","","10","996","1085","d","elianto","#3366ff99"," "," ","1","+10","[1772]","1","3","","","996","250","9","1","win","go","0","0"
"pit-trial","315","2052252","0.0-256.0","battery-v0.2","","","-1","","","10","996","1085","k","elianto","#f73b6a7A","-1","-1","1","0","[]","0","3","","","996","251","8","4","lose","no-go","0","0"
"pit-trial","316","2056213","0.0-257.0","battery-v0.2","","","1107","","","10","996","1085","v","elianto","#3366ff99"," "," ","1","0","[1958]","1","3","","","996","252","11","1","win","go","1","0"
"pit-trial","317","2060510","0.0-258.0","battery-v0.2","","","1444","","","10","996","1085","j","elianto","#f73b6a7A"," "," ","1","0","[2293.999999999767]","1","3","","","996","253","10","3","lose","go","0","0"
"pit-trial","318","2064367","0.0-259.0","battery-v0.2","","","1001.9999999997672","","","10","996","1085","v","elianto","#3366ff99"," "," ","1","+10","[1851.9999999997672]","1","3","","","996","254","11","1","win","go","0","0"
"pit-trial","319","2069221","0.0-260.0","battery-v0.2","","","-1","","","10","996","1085","k","elianto","#f73b6a7A","-1","-1","1","0","[]","0","3","","","996","255","8","4","lose","no-go","0","0"
"pit-trial","320","2072748","0.0-261.0","battery-v0.2","","","672","","","10","996","1085","d","elianto","#3366ff99"," "," ","1","+10","[1523.0000000002328]","1","3","","","996","256","9","1","win","go","0","0"
"pit-trial","321","2076561","0.0-262.0","battery-v0.2","","","959.0000000002328","","","10","996","1085","j","elianto","#f73b6a7A"," "," ","1","0","[1809.0000000002328]","1","3","","","996","257","10","3","lose","go","0","0"
"pit-trial","322","2079961","0.0-263.0","battery-v0.2","","","546","","","10","996","1085","d","elianto","#3366ff99"," "," ","1","+10","[1395.9999999997672]","1","3","","","996","258","9","1","win","go","0","0"
"pit-trial","323","2084029","0.0-264.0","battery-v0.2","","","1213.9999999997672","","","10","996","1085","v","elianto","#3366ff99"," "," ","1","0","[2064.9999999995343]","1","3","","","996","259","11","1","win","go","1","0"
"pit-trial","324","2088884","0.0-265.0","battery-v0.2","","","-1","","","10","996","1085","k","elianto","#f73b6a7A","-1","-1","1","0","[]","0","3","","","996","260","8","4","lose","no-go","0","0"
"pit-instructions","325","2119329","0.0-266.0","battery-v0.2","","[{""page_index"":0,""viewing_time"":30444}]","30444","","","","","","","","","","","","","","","","","","","","","","","","",""
