"trial_type","trial_index","time_elapsed","internal_node_id","task_version","success","view_history","rt","responses","num_errors","age","subject","participantId","rune","rune_set","hex","correct","choice","accuracy","outcome","keys","total_keys","block","practice","value","sub","trial","stimulus","robot","valence","action","sham","browser_interactions"
"pavlovia","0","26","0.0-0.0","battery-v0.2","","","","","","","","","","","","","","","","","","","","","","","","","","","",""
"fullscreen","1","35521","0.0-1.0","battery-v0.2","true","","","","","","","","","","","","","","","","","","","","","","","","","","",""
"pit-instructions","2","270953","0.0-2.0-0.0","battery-v0.2","","[{""page_index"":0,""viewing_time"":235423.2}]","235425.3","","","","","","","","","","","","","","","","","","","","","","","","",""
"pit-comprehension","3","275197","0.0-2.0-1.0-0.0","battery-v0.2","","","4230","[""shark""]","0","15","1049","1183","","","","","","","","","","","","","","","","","","","",""
"pit-instructions","4","283624","0.0-2.0-1.0-1.0","battery-v0.2","","[{""page_index"":0,""viewing_time"":8407.5}]","8408.200000000012","","","","","","","","","","","","","","","","","","","","","","","","",""
"pit-comprehension","5","362967","0.0-2.0-2.0-0.0","battery-v0.2","","","79334.59999999998","[""tiger""]","0","15","1049","1183","","","","","","","","","","","","","","","","","","","",""
"pit-instructions","6","364193","0.0-2.0-2.0-1.0","battery-v0.2","","[{""page_index"":0,""viewing_time"":1220.2000000000698}]","1220.9000000000233","","","","","","","","","","","","","","","","","","","","","","","","",""
"pit-instructions","7","916745","0.0-2.0-3.0","battery-v0.2","","[{""page_index"":0,""viewing_time"":18901},{""page_index"":1,""viewing_time"":56985.09999999998},{""page_index"":2,""viewing_time"":138002.90000000008},{""page_index"":3,""viewing_time"":37484.30000000005},{""page_index"":4,""viewing_time"":5614.899999999907},{""page_index"":5,""viewing_time"":146253.8999999999},{""page_index"":6,""viewing_time"":28384.90000000014},{""page_index"":7,""viewing_time"":6549.09999999986},{""page_index"":8,""viewing_time"":8501.200000000186},{""page_index"":9,""viewing_time"":47466.09999999986},{""page_index"":10,""viewing_time"":9170.300000000047},{""page_index"":11,""viewing_time"":7987.699999999953},{""page_index"":12,""viewing_time"":10678.800000000047},{""page_index"":13,""viewing_time"":30564.699999999953}]","552546","","","","","","","","","","","","","","","","","","","","","","","","",""
"pit-trial","8","920518","0.0-2.0-4.0-0.0","battery-v0.2","","","914.6000000000931","","","15","1049","1183","&#9784;","elianto","#FFFFF080"," "," ","1","&#10004","[1766.5,3506.8000000000466]","2","0","0","","","","","","","","",""
"pit-trial","9","923688","0.0-2.0-4.1-0.1","battery-v0.2","","","314.19999999995343","","","15","1049","1183","&#9784;","elianto","#FFFFF080"," "," ","1","&#10004","[250.5,1164.5,2598]","3","0","0","","","","","","","","",""
"pit-trial","10","927920","0.0-2.0-4.2-0.2","battery-v0.2","","","1377.1999999999534","","","15","1049","1183","&#9784;","elianto","#FFFFF080"," "," ","1","&#10004","[555.3000000000466,2227.3000000000466,3960]","3","0","0","","","","","","","","",""
"pit-trial","11","932589","0.0-2.0-4.3-0.3","battery-v0.2","","","1813.5","","","15","1049","1183","&#9784;","elianto","#FFFFF080"," "," ","1","&#10004","[2663.5999999998603,4432.199999999953]","2","0","0","","","","","","","","",""
"pit-trial","12","936175","0.0-2.0-4.4-0.4","battery-v0.2","","","730","","","15","1049","1183","&#9784;","elianto","#FFFFF080"," "," ","1","&#10004","[1580.1000000000931,3211.600000000093]","2","0","0","","","","","","","","",""
"pit-instructions","13","978104","0.0-2.0-5.0","battery-v0.2","","[{""page_index"":0,""viewing_time"":6004.199999999953},{""page_index"":1,""viewing_time"":11311.59999999986},{""page_index"":2,""viewing_time"":19044.40000000014},{""page_index"":3,""viewing_time"":5563.5}]","41924.59999999986","","","","","","","","","","","","","","","","","","","","","","","","",""
"pit-trial","14","982958","0.0-2.0-6.0-0.0","battery-v0.2","","","-1","","","15","1049","1183","&#9854;","elianto","#FFFFF080","-1","-1","1","&#10004","[]","0","0","1","","","","","","","","",""
"pit-trial","15","987815","0.0-2.0-6.1-0.1","battery-v0.2","","","-1","","","15","1049","1183","&#9854;","elianto","#FFFFF080","-1","-1","1","&#10004","[]","0","0","1","","","","","","","","",""
"pit-trial","16","992672","0.0-2.0-6.2-0.2","battery-v0.2","","","-1","","","15","1049","1183","&#9854;","elianto","#FFFFF080","-1","-1","1","&#10004","[]","0","0","1","","","","","","","","",""
"pit-trial","17","997527","0.0-2.0-6.3-0.3","battery-v0.2","","","-1","","","15","1049","1183","&#9854;","elianto","#FFFFF080","-1","-1","1","&#10004","[]","0","0","1","","","","","","","","",""
"pit-trial","18","1002383","0.0-2.0-6.4-0.4","battery-v0.2","","","-1","","","15","1049","1183","&#9854;","elianto","#FFFFF080","-1","-1","1","&#10004","[]","0","0","1","","","","","","","","",""
"pit-instructions","19","1527467","0.0-2.0-7.0","battery-v0.2","","[{""page_index"":0,""viewing_time"":89634.79999999981},{""page_index"":1,""viewing_time"":9924.700000000186},{""page_index"":2,""viewing_time"":13834.5},{""page_index"":3,""viewing_time"":14528.199999999953},{""page_index"":4,""viewing_time"":8345.300000000047},{""page_index"":5,""viewing_time"":7498.09999999986},{""page_index"":6,""viewing_time"":9626.300000000047},{""page_index"":7,""viewing_time"":7406.699999999953},{""page_index"":8,""viewing_time"":27432},{""page_index"":9,""viewing_time"":96501.1000000001},{""page_index"":10,""viewing_time"":32507.300000000047},{""page_index"":11,""viewing_time"":13557},{""page_index"":12,""viewing_time"":27012.59999999986},{""page_index"":13,""viewing_time"":22946.300000000047},{""page_index"":14,""viewing_time"":26199.300000000047},{""page_index"":15,""viewing_time"":105606.8999999999},{""page_index"":16,""viewing_time"":6257.90000000014},{""page_index"":17,""viewing_time"":6259.399999999907}]","525079.2999999998","","","","","","","","","","","","","","","","","","","","","","","","",""
"pit-trial","20","1530525","0.0-2.0-8.0-0.0","battery-v0.2","","","203.19999999995343","","","15","1049","1183","&#9776;","elianto","#3366ff99"," "," ","1","+10","[160.5999999998603,473.19999999995343,1053.1999999999534,1290.8999999999069,1509,1723.8999999999069,1916,2103.6999999999534,2307.0999999998603,2620.5999999998603,2831.6999999999534,3033.1999999999534]","12","0","1","","","","","","","","",""
"pit-trial","21","1533681","0.0-2.0-8.0-1.0","battery-v0.2","","","301.30000000004657","","","15","1049","1183","&#9776;","elianto","#3366ff99"," "," ","1","+10","[200.60000000009313,461.9000000001397,692.3000000000466,1151.9000000001397,1355.1000000000931,1827.1999999999534,2024,2258.5,2493,2707.4000000001397,2952]","11","0","1","","","","","","","","",""
"pit-trial","22","1537478","0.0-2.0-8.0-2.0","battery-v0.2","","","942","","","15","1049","1183","&#9776;","elianto","#3366ff99"," "," ","1","+10","[56.800000000046566,515.7000000001863,750,1792.2000000001863,2032.5,2449.9000000001397,2720.9000000001397,2986.7000000001863,3383.600000000093,3588.600000000093]","10","0","1","","","","","","","","",""
"pit-trial","23","1540379","0.0-2.0-8.0-3.0","battery-v0.2","","","45.0999999998603","","","15","1049","1183","&#9776;","elianto","#3366ff99"," "," ","1","0","[117.30000000004657,351,591.5,896.4000000001397,1139.9000000001397,1466.8000000000466,2243.2000000001863,2553.3000000000466,2821.100000000093]","9","0","1","","","","","","","","",""
"pit-trial","24","1543435","0.0-2.0-8.0-4.0","battery-v0.2","","","200.69999999995343","","","15","1049","1183","&#9776;","elianto","#3366ff99"," "," ","1","+10","[222.19999999995343,771.1999999999534,1052.3000000000466,1348,1641.5,1949.4000000001397,2309.9000000001397,2664.100000000093]","8","0","1","","","","","","","","",""
"call-function","25","1543439","0.0-2.0-9.0","battery-v0.2","","","","","","","","","","","","","","","","","","","","","","","","","","","",""
"pit-instructions","26","1691933","0.0-2.0-10.0","battery-v0.2","","[{""page_index"":0,""viewing_time"":9382.800000000047},{""page_index"":1,""viewing_time"":6021.100000000093},{""page_index"":2,""viewing_time"":22608.399999999907},{""page_index"":3,""viewing_time"":24639},{""page_index"":4,""viewing_time"":85840.80000000005}]","148493.5","","","","","","","","","","","","","","","","","","","","","","","","",""
"pit-trial","27","1696789","0.0-2.0-11.0-0.0","battery-v0.2","","","-1","","","15","1049","1183","&#9761;","elianto","#3366ff99","-1","-1","1","+10","[]","0","0","2","","","","","","","","",""
"pit-trial","28","1701644","0.0-2.0-11.0-1.0","battery-v0.2","","","-1","","","15","1049","1183","&#9761;","elianto","#3366ff99","-1","-1","1","+10","[]","0","0","2","","","","","","","","",""
"pit-trial","29","1706498","0.0-2.0-11.0-2.0","battery-v0.2","","","-1","","","15","1049","1183","&#9761;","elianto","#3366ff99","-1","-1","1","+10","[]","0","0","2","","","","","","","","",""
"pit-trial","30","1711353","0.0-2.0-11.0-3.0","battery-v0.2","","","-1","","","15","1049","1183","&#9761;","elianto","#3366ff99","-1","-1","1","0","[]","0","0","2","","","","","","","","",""
"pit-trial","31","1716208","0.0-2.0-11.0-4.0","battery-v0.2","","","-1","","","15","1049","1183","&#9761;","elianto","#3366ff99","-1","-1","1","+10","[]","0","0","2","","","","","","","","",""
"call-function","32","1716211","0.0-2.0-12.0","battery-v0.2","","","","","","","","","","","","","","","","","","","","","","","","","","","",""
"pit-instructions","33","1804330","0.0-2.0-13.0","battery-v0.2","","[{""page_index"":0,""viewing_time"":17733.800000000047},{""page_index"":1,""viewing_time"":12696.5},{""page_index"":2,""viewing_time"":19594.800000000047},{""page_index"":3,""viewing_time"":13682.5},{""page_index"":4,""viewing_time"":24409.5}]","88118.5","","","","","","","","","","","","","","","","","","","","","","","","",""
"pit-trial","34","1808296","0.0-2.0-14.0-0.0","battery-v0.2","","","1110.1000000000931","","","15","1049","1183","&#9826;","elianto","#f73b6a7A","-1"," ","0","-10","[1960.1000000000931]","1","0","3","","","","","","","","",""
"pit-trial","35","1813151","0.0-2.0-14.0-1.0","battery-v0.2","","","-1","","","15","1049","1183","&#9826;","elianto","#f73b6a7A","-1","-1","1","0","[]","0","0","3","","","","","","","","",""
"pit-trial","36","1818006","0.0-2.0-14.0-2.0","battery-v0.2","","","-1","","","15","1049","1183","&#9826;","elianto","#f73b6a7A","-1","-1","1","0","[]","0","0","3","","","","","","","","",""
"pit-trial","37","1822861","0.0-2.0-14.0-3.0","battery-v0.2","","","-1","","","15","1049","1183","&#9826;","elianto","#f73b6a7A","-1","-1","1","-10","[]","0","0","3","","","","","","","","",""
"pit-trial","38","1827717","0.0-2.0-14.0-4.0","battery-v0.2","","","-1","","","15","1049","1183","&#9826;","elianto","#f73b6a7A","-1","-1","1","0","[]","0","0","3","","","","","","","","",""
"call-function","39","1827720","0.0-2.0-15.0","battery-v0.2","","","","","","","","","","","","","","","","","","","","","","","","","","","",""
"pit-instructions","40","1926579","0.0-2.0-16.0","battery-v0.2","","[{""page_index"":0,""viewing_time"":76000.40000000014},{""page_index"":1,""viewing_time"":9292.599999999627},{""page_index"":2,""viewing_time"":7563.200000000186},{""page_index"":3,""viewing_time"":6000.5}]","98857.90000000014","","","","","","","","","","","","","","","","","","","","","","","","",""
"pit-trial","41","1931434","0.0-2.0-17.0-0.0","battery-v0.2","","","-1","","","15","1049","1183","&#9789;","elianto","#f73b6a7A"," ","-1","0","-10","[]","0","0","4","","","","","","","","",""
"pit-trial","42","1936290","0.0-2.0-17.0-1.0","battery-v0.2","","","-1","","","15","1049","1183","&#9789;","elianto","#f73b6a7A"," ","-1","0","-10","[]","0","0","4","","","","","","","","",""
"pit-trial","43","1939152","0.0-2.0-17.0-2.0","battery-v0.2","","","4.199999999720603","","","15","1049","1183","&#9789;","elianto","#f73b6a7A"," "," ","1","0","[856.7000000001863]","1","0","4","","","","","","","","",""
"pit-trial","44","1942337","0.0-2.0-17.0-3.0","battery-v0.2","","","329.39999999990687","","","15","1049","1183","&#9789;","elianto","#f73b6a7A"," "," ","1","-10","[393.29999999981374,1179.5,1779.5,2819.2999999998137]","4","0","4","","","","","","","","",""
"pit-trial","45","1945250","0.0-2.0-17.0-4.0","battery-v0.2","","","58.40000000037253","","","15","1049","1183","&#9789;","elianto","#f73b6a7A"," "," ","1","0","[250.8000000002794,908.9000000003725,1341.9000000003725,1695.9000000003725,2094.3000000002794,2415.7000000001863,2753.100000000093]","7","0","4","","","","","","","","",""
"pit-trial","46","1948107","0.0-2.0-17.1-0.1","battery-v0.2","","","0.5","","","15","1049","1183","&#9789;","elianto","#f73b6a7A"," "," ","1","0","[104.70000000018626,367.8000000002794,596.6000000000931,850.7000000001863,1076.5,1351.8000000002794,1635.3000000002794,1890.3000000002794,2138.2000000001863,2646.600000000093]","10","0","4","","","","","","","","",""
"pit-trial","47","1951209","0.0-2.0-17.1-1.1","battery-v0.2","","","247.29999999981374","","","15","1049","1183","&#9789;","elianto","#f73b6a7A"," "," ","1","0","[27.700000000186265,296.20000000018626,537.7000000001863,825.5,1097.3999999999069,1371.3000000002794,1660.8000000002794,1918.6000000000931,2243.899999999907,2520.899999999907,2799.7000000001863]","11","0","4","","","","","","","","",""
"pit-trial","48","1954077","0.0-2.0-17.1-2.1","battery-v0.2","","","13.600000000093132","","","15","1049","1183","&#9789;","elianto","#f73b6a7A"," "," ","1","0","[323.90000000037253,865,1209.3000000002794,1524.7000000001863,1831.4000000003725,2139.8000000002794,2479.4000000003725,2791]","8","0","4","","","","","","","","",""
"pit-trial","49","1957582","0.0-2.0-17.1-3.1","battery-v0.2","","","650.3999999999069","","","15","1049","1183","&#9789;","elianto","#f73b6a7A"," "," ","1","-10","[248.39999999990687,608,1500.3999999999069,1833.8000000002794,2174.600000000093,2459,2723.8000000002794,3046.399999999907,3381.899999999907]","9","0","4","","","","","","","","",""
"pit-trial","50","1960653","0.0-2.0-17.1-4.1","battery-v0.2","","","217.10000000009313","","","15","1049","1183","&#9789;","elianto","#f73b6a7A"," "," ","1","0","[158.59999999962747,436.1999999997206,778.1999999997206,1067.2999999998137,1387.6999999997206,1617.3999999999069,1886,2181.5999999996275,2646.6999999997206,2970.899999999907]","10","0","4","","","","","","","","",""
"call-function","51","1960655","0.0-2.0-18.0","battery-v0.2","","","","","","","","","","","","","","","","","","","","","","","","","","","",""
"pit-instructions","52","2546224","0.0-2.0-19.0","battery-v0.2","","[{""page_index"":0,""viewing_time"":9177.399999999907},{""page_index"":1,""viewing_time"":184475.90000000014},{""page_index"":2,""viewing_time"":40677},{""page_index"":3,""viewing_time"":4254.800000000279},{""page_index"":4,""viewing_time"":94903.1000000001},{""page_index"":5,""viewing_time"":109535.09999999963},{""page_index"":6,""viewing_time"":91387.1000000001},{""page_index"":7,""viewing_time"":11164.80000000028},{""page_index"":8,""viewing_time"":39991.69999999972}]","585567.9000000001","","","","","","","","","","","","","","","","","","","","","","","","",""
"pit-comprehension","53","2552861","0.0-2.0-20.0-0.0","battery-v0.2","","","6631","[""SPACE""]","0","15","1049","1183","","","","","","","","","","","","","","","","","","","",""
"pit-instructions","54","2585240","0.0-2.0-20.0-1.0","battery-v0.2","","[{""page_index"":0,""viewing_time"":32359.600000000093}]","32360.200000000186","","","","","","","","","","","","","","","","","","","","","","","","",""
"pit-comprehension","55","2590840","0.0-2.0-21.0-0.0","battery-v0.2","","","5592","[""10""]","0","15","1049","1183","","","","","","","","","","","","","","","","","","","",""
"pit-instructions","56","2709550","0.0-2.0-21.0-1.0","battery-v0.2","","[{""page_index"":0,""viewing_time"":118690.59999999963}]","118691.19999999972","","","","","","","","","","","","","","","","","","","","","","","","",""
"pit-comprehension","57","2715780","0.0-2.0-22.0-0.0","battery-v0.2","","","6223.299999999814","[""-10""]","1","15","1049","1183","","","","","","","","","","","","","","","","","","","",""
"pit-instructions","58","2805825","0.0-2.0-22.0-1.0","battery-v0.2","","[{""page_index"":0,""viewing_time"":90023.8999999999}]","90024.79999999981","","","","","","","","","","","","","","","","","","","","","","","","",""
"pit-instructions","59","2813564","0.0-2.0-22.0-2.0-0.0","battery-v0.2","","[{""page_index"":0,""viewing_time"":7733.699999999721}]","7734.5","","","","","","","","","","","","","","","","","","","","","","","","",""
"pit-comprehension","60","2821955","0.0-2.0-22.1-0.1","battery-v0.2","","","8385.399999999907","[""0""]","0","15","1049","1183","","","","","","","","","","","","","","","","","","","",""
"pit-instructions","61","2824234","0.0-2.0-22.1-1.1","battery-v0.2","","[{""page_index"":0,""viewing_time"":2257.1999999997206}]","2258.1999999997206","","","","","","","","","","","","","","","","","","","","","","","","",""
"pit-comprehension","62","2836029","0.0-2.0-23.0-0.0","battery-v0.2","","","11784.299999999814","[""True""]","0","15","1049","1183","","","","","","","","","","","","","","","","","","","",""
"pit-instructions","63","2843955","0.0-2.0-23.0-1.0","battery-v0.2","","[{""page_index"":0,""viewing_time"":7901.5}]","7902.200000000186","","","","","","","","","","","","","","","","","","","","","","","","",""
"pit-comprehension","64","2851748","0.0-2.0-24.0-0.0","battery-v0.2","","","7785.899999999907","[""True""]","0","15","1049","1183","","","","","","","","","","","","","","","","","","","",""
"pit-instructions","65","2878329","0.0-2.0-24.0-1.0","battery-v0.2","","[{""page_index"":0,""viewing_time"":26556.600000000093}]","26557.200000000186","","","","","","","","","","","","","","","","","","","","","","","","",""
"pit-comprehension","66","2884611","0.0-2.0-25.0-0.0","battery-v0.2","","","6275.0999999996275","[""True""]","0","15","1049","1183","","","","","","","","","","","","","","","","","","","",""
"pit-instructions","67","2980467","0.0-2.0-25.0-1.0","battery-v0.2","","[{""page_index"":0,""viewing_time"":95834.3999999999}]","95835.20000000019","","","","","","","","","","","","","","","","","","","","","","","","",""
"pit-comprehension","68","2992708","0.0-2.0-26.0-0.0","battery-v0.2","","","12232.69999999972","[""True""]","1","15","1049","1183","","","","","","","","","","","","","","","","","","","",""
"pit-instructions","69","2994663","0.0-2.0-26.0-1.0","battery-v0.2","","[{""page_index"":0,""viewing_time"":1931.3999999999069}]","1932.2000000001863","","","","","","","","","","","","","","","","","","","","","","","","",""
"pit-instructions","70","2995283","0.0-2.0-26.0-2.0-0.0","battery-v0.2","","[{""page_index"":0,""viewing_time"":615.8999999999069}]","616.7000000001863","","","","","","","","","","","","","","","","","","","","","","","","",""
"pit-comprehension","71","3001107","0.0-2.0-26.1-0.1","battery-v0.2","","","5816.699999999721","[""False""]","0","15","1049","1183","","","","","","","","","","","","","","","","","","","",""
"pit-instructions","72","3004464","0.0-2.0-26.1-1.1","battery-v0.2","","[{""page_index"":0,""viewing_time"":3335.0999999996275}]","3335.6999999997206","","","","","","","","","","","","","","","","","","","","","","","","",""
"pit-instructions","73","3467878","0.0-3.0","battery-v0.2","","[{""page_index"":0,""viewing_time"":4739.299999999814},{""page_index"":1,""viewing_time"":172380.2000000002},{""page_index"":2,""viewing_time"":286290.0999999996}]","463410.3999999999","","","","","","","","","","","","","","","","","","","","","","","","",""
"pit-trial","74","3471623","0.0-4.0","battery-v0.2","","","885.8999999999069","","","15","1049","1183","&#9730;","elianto","#3366ff99"," "," ","1","+10","[1736.2000000001863]","1","1","","","1049","1","1","1","win","go","0","[]"
"pit-trial","75","3474949","0.0-5.0","battery-v0.2","","","472","","","15","1049","1183","&#9733;","elianto","#3366ff99","-1"," ","0","+10","[1322.2999999998137]","1","1","","","1049","2","2","2","win","no-go","1","0"
"pit-trial","76","3477953","0.0-6.0","battery-v0.2","","","149.8000000002794","","","15","1049","1183","&#9728;","elianto","#f73b6a7A","-1"," ","0","-10","[999.7999999998137]","1","1","","","1049","3","0","4","lose","no-go","0","0"
"pit-trial","77","3482807","0.0-7.0","battery-v0.2","","","-1","","","15","1049","1183","&#9752;","elianto","#f73b6a7A"," ","-1","0","-10","[]","0","1","","","1049","4","3","3","lose","go","0","0"
"pit-trial","78","3487661","0.0-8.0","battery-v0.2","","","-1","","","15","1049","1183","&#9728;","elianto","#f73b6a7A","-1","-1","1","-10","[]","0","1","","","1049","5","0","4","lose","no-go","1","0"
"pit-trial","79","3491592","0.0-9.0","battery-v0.2","","","1074.1999999997206","","","15","1049","1183","&#9730;","elianto","#3366ff99"," "," ","1","+10","[1926.8999999999069]","1","1","","","1049","6","1","1","win","go","0","0"
"pit-trial","80","3494568","0.0-10.0","battery-v0.2","","","121.59999999962747","","","15","1049","1183","&#9752;","elianto","#f73b6a7A"," "," ","1","0","[971.7000000001863]","1","1","","","1049","7","3","3","lose","go","0","0"
"pit-trial","81","3497681","0.0-11.0","battery-v0.2","","","258.20000000018626","","","15","1049","1183","&#9733;","elianto","#3366ff99","-1"," ","0","0","[1108.1999999997206]","1","1","","","1049","8","2","2","win","no-go","0","0"
"pit-trial","82","3501352","0.0-12.0","battery-v0.2","","","816.1999999997206","","","15","1049","1183","&#9733;","elianto","#3366ff99","-1"," ","0","0","[1666.3999999999069]","1","1","","","1049","9","2","2","win","no-go","0","0"
"pit-trial","83","3505058","0.0-13.0","battery-v0.2","","","851.9000000003725","","","15","1049","1183","&#9730;","elianto","#3366ff99"," "," ","1","+10","[1702.2000000001863]","1","1","","","1049","10","1","1","win","go","0","0"
"pit-trial","84","3509140","0.0-14.0","battery-v0.2","","","1227.8999999999069","","","15","1049","1183","&#9752;","elianto","#f73b6a7A"," "," ","1","0","[2078]","1","1","","","1049","11","3","3","lose","go","0","0"
"pit-trial","85","3512837","0.0-15.0","battery-v0.2","","","842.3000000002794","","","15","1049","1183","&#9728;","elianto","#f73b6a7A","-1"," ","0","-10","[1692.5]","1","1","","","1049","12","0","4","lose","no-go","0","0"
"pit-trial","86","3517691","0.0-16.0","battery-v0.2","","","-1","","","15","1049","1183","&#9752;","elianto","#f73b6a7A"," ","-1","0","-10","[3194.2999999998137]","1","1","","","1049","13","3","3","lose","go","0","0"
"pit-trial","87","3522546","0.0-17.0","battery-v0.2","","","-1","","","15","1049","1183","&#9730;","elianto","#3366ff99"," ","-1","0","0","[3014.5]","1","1","","","1049","14","1","1","win","go","0","0"
"pit-trial","88","3526571","0.0-18.0","battery-v0.2","","","1169.2999999998137","","","15","1049","1183","&#9733;","elianto","#3366ff99","-1"," ","0","+10","[2020.7999999998137]","1","1","","","1049","15","2","2","win","no-go","1","0"
"pit-trial","89","3531426","0.0-19.0","battery-v0.2","","","-1","","","15","1049","1183","&#9728;","elianto","#f73b6a7A","-1","-1","1","0","[]","0","1","","","1049","16","0","4","lose","no-go","0","0"
"pit-trial","90","3535597","0.0-20.0","battery-v0.2","","","1315","","","15","1049","1183","&#9730;","elianto","#3366ff99"," "," ","1","+10","[2165.2999999998137]","1","1","","","1049","17","1","1","win","go","0","0"
"pit-trial","91","3540452","0.0-21.0","battery-v0.2","","","-1","","","15","1049","1183","&#9728;","elianto","#f73b6a7A","-1","-1","1","0","[]","0","1","","","1049","18","0","4","lose","no-go","0","0"
"pit-trial","92","3545307","0.0-22.0","battery-v0.2","","","-1","","","15","1049","1183","&#9752;","elianto","#f73b6a7A"," ","-1","0","-10","[]","0","1","","","1049","19","3","3","lose","go","0","0"
"pit-trial","93","3548749","0.0-23.0","battery-v0.2","","","587.6999999997206","","","15","1049","1183","&#9733;","elianto","#3366ff99","-1"," ","0","0","[1438]","1","1","","","1049","20","2","2","win","no-go","0","0"
"pit-instructions","94","3590522","0.0-24.0","battery-v0.2","","[{""page_index"":0,""viewing_time"":15389.399999999907},{""page_index"":1,""viewing_time"":26379}]","41769.299999999814","","","","","","","","","","","","","","","","","","","","","","","","",""
"pit-trial","95","3593929","0.0-25.0","battery-v0.2","","","548.7999999998137","","","15","1049","1183","g","elianto","#3366ff99"," "," ","1","+10","[1399]","1","2","","","1049","21","3","1","win","go","0","0"
"pit-trial","96","3597344","0.0-26.0","battery-v0.2","","","559.8999999999069","","","15","1049","1183","u","elianto","#3366ff99","-1"," ","0","0","[1410.2000000001863]","1","2","","","1049","22","0","2","win","no-go","0","0"
"pit-trial","97","3602199","0.0-27.0","battery-v0.2","","","-1","","","15","1049","1183","l","elianto","#f73b6a7A"," ","-1","0","-10","[]","0","2","","","1049","23","1","3","lose","go","0","0"
"pit-trial","98","3607055","0.0-28.0","battery-v0.2","","","-1","","","15","1049","1183","a","elianto","#f73b6a7A","-1","-1","1","-10","[]","0","2","","","1049","24","2","4","lose","no-go","1","0"
"pit-trial","99","3611910","0.0-29.0","battery-v0.2","","","-1","","","15","1049","1183","a","elianto","#f73b6a7A","-1","-1","1","0","[2947.399999999907]","1","2","","","1049","25","2","4","lose","no-go","0","0"
"pit-trial","100","3615530","0.0-30.0","battery-v0.2","","","765.1999999997206","","","15","1049","1183","l","elianto","#f73b6a7A"," "," ","1","0","[1615.3999999999069]","1","2","","","1049","26","1","3","lose","go","0","0"
"pit-trial","101","3619048","0.0-31.0","battery-v0.2","","","662.3999999999069","","","15","1049","1183","g","elianto","#3366ff99"," "," ","1","0","[1512.5]","1","2","","","1049","27","3","1","win","go","1","0"
"pit-trial","102","3622689","0.0-32.0","battery-v0.2","","","782.9000000003725","","","15","1049","1183","u","elianto","#3366ff99","-1"," ","0","0","[1635.3999999999069]","1","2","","","1049","28","0","2","win","no-go","0","0"
"pit-trial","103","3626424","0.0-33.0","battery-v0.2","","","879.8999999999069","","","15","1049","1183","g","elianto","#3366ff99"," "," ","1","+10","[1730]","1","2","","","1049","29","3","1","win","go","0","0"
"pit-trial","104","3631279","0.0-34.0","battery-v0.2","","","-1","","","15","1049","1183","l","elianto","#f73b6a7A"," ","-1","0","-10","[]","0","2","","","1049","30","1","3","lose","go","0","0"
"pit-trial","105","3636134","0.0-35.0","battery-v0.2","","","-1","","","15","1049","1183","a","elianto","#f73b6a7A","-1","-1","1","-10","[]","0","2","","","1049","31","2","4","lose","no-go","1","0"
"pit-trial","106","3640011","0.0-36.0","battery-v0.2","","","1022.1000000000931","","","15","1049","1183","u","elianto","#3366ff99","-1"," ","0","0","[1873.6000000000931,3145]","2","2","","","1049","32","0","2","win","no-go","0","0"
"pit-trial","107","3644721","0.0-37.0","battery-v0.2","","","1855.1999999997206","","","15","1049","1183","u","elianto","#3366ff99","-1"," ","0","+10","[2705.1999999997206]","1","2","","","1049","33","0","2","win","no-go","1","0"
"pit-trial","108","3649575","0.0-38.0","battery-v0.2","","","-1","","","15","1049","1183","l","elianto","#f73b6a7A"," ","-1","0","-10","[]","0","2","","","1049","34","1","3","lose","go","0","0"
"pit-trial","109","3654429","0.0-39.0","battery-v0.2","","","-1","","","15","1049","1183","a","elianto","#f73b6a7A","-1","-1","1","0","[]","0","2","","","1049","35","2","4","lose","no-go","0","0"
"pit-trial","110","3657918","0.0-40.0","battery-v0.2","","","635","","","15","1049","1183","g","elianto","#3366ff99"," "," ","1","+10","[1485]","1","2","","","1049","36","3","1","win","go","0","0"
"pit-trial","111","3661355","0.0-41.0","battery-v0.2","","","580.8999999999069","","","15","1049","1183","g","elianto","#3366ff99"," "," ","1","0","[1432.8999999999069]","1","2","","","1049","37","3","1","win","go","1","0"
"pit-trial","112","3666209","0.0-42.0","battery-v0.2","","","-1","","","15","1049","1183","l","elianto","#f73b6a7A"," ","-1","0","-10","[4784.799999999814]","1","2","","","1049","38","1","3","lose","go","0","0"
"pit-trial","113","3670129","0.0-43.0","battery-v0.2","","","1065.5","","","15","1049","1183","u","elianto","#3366ff99","-1"," ","0","0","[1915.5]","1","2","","","1049","39","0","2","win","no-go","0","0"
"pit-trial","114","3674984","0.0-44.0","battery-v0.2","","","-1","","","15","1049","1183","a","elianto","#f73b6a7A","-1","-1","1","0","[]","0","2","","","1049","40","2","4","lose","no-go","0","0"
"pit-trial","115","3678339","0.0-45.0","battery-v0.2","","","501.39999999990687","","","15","1049","1183","a","elianto","#f73b6a7A","-1"," ","0","-10","[1351.5]","1","2","","","1049","41","2","4","lose","no-go","0","0"
"pit-trial","116","3681926","0.0-46.0","battery-v0.2","","","732.3000000002794","","","15","1049","1183","g","elianto","#3366ff99"," "," ","1","0","[1582.5]","1","2","","","1049","42","3","1","win","go","1","0"
"pit-trial","117","3686781","0.0-47.0","battery-v0.2","","","-1","","","15","1049","1183","l","elianto","#f73b6a7A"," ","-1","0","-10","[]","0","2","","","1049","43","1","3","lose","go","0","0"
"pit-trial","118","3690444","0.0-48.0","battery-v0.2","","","809","","","15","1049","1183","u","elianto","#3366ff99","-1"," ","0","0","[1659.2000000001863]","1","2","","","1049","44","0","2","win","no-go","0","0"
"pit-trial","119","3695300","0.0-49.0","battery-v0.2","","","-1","","","15","1049","1183","a","elianto","#f73b6a7A","-1","-1","1","0","[]","0","2","","","1049","45","2","4","lose","no-go","0","0"
"pit-trial","120","3698641","0.0-50.0","battery-v0.2","","","486.70000000018626","","","15","1049","1183","g","elianto","#3366ff99"," "," ","1","+10","[1337]","1","2","","","1049","46","3","1","win","go","0","0"
"pit-trial","121","3702429","0.0-51.0","battery-v0.2","","","932.6000000000931","","","15","1049","1183","u","elianto","#3366ff99","-1"," ","0","+10","[1782.7000000001863,2428.3000000002794]","2","2","","","1049","47","0","2","win","no-go","1","0"
"pit-trial","122","3707284","0.0-52.0","battery-v0.2","","","-1","","","15","1049","1183","l","elianto","#f73b6a7A"," ","-1","0","-10","[]","0","2","","","1049","48","1","3","lose","go","0","0"
"pit-trial","123","3712139","0.0-53.0","battery-v0.2","","","-1","","","15","1049","1183","a","elianto","#f73b6a7A","-1","-1","1","0","[]","0","2","","","1049","49","2","4","lose","no-go","0","0"
"pit-trial","124","3716994","0.0-54.0","battery-v0.2","","","-1","","","15","1049","1183","l","elianto","#f73b6a7A"," ","-1","0","-10","[]","0","2","","","1049","50","1","3","lose","go","0","0"
"pit-trial","125","3721849","0.0-55.0","battery-v0.2","","","-1","","","15","1049","1183","g","elianto","#3366ff99"," ","-1","0","+10","[3309.2999999998137]","1","2","","","1049","51","3","1","win","go","1","0"
"pit-trial","126","3726426","0.0-56.0","battery-v0.2","","","1722","","","15","1049","1183","u","elianto","#3366ff99","-1"," ","0","+10","[2572.2000000001863]","1","2","","","1049","52","0","2","win","no-go","1","0"
"pit-trial","127","3731281","0.0-57.0","battery-v0.2","","","-1","","","15","1049","1183","l","elianto","#f73b6a7A"," ","-1","0","-10","[]","0","2","","","1049","53","1","3","lose","go","0","0"
"pit-trial","128","3736136","0.0-58.0","battery-v0.2","","","-1","","","15","1049","1183","a","elianto","#f73b6a7A","-1","-1","1","0","[]","0","2","","","1049","54","2","4","lose","no-go","0","0"
"pit-trial","129","3740991","0.0-59.0","battery-v0.2","","","-1","","","15","1049","1183","p","elianto","#f73b6a7A"," ","-1","0","0","[]","0","2","","","1049","55","4","3","lose","go","1","0"
"pit-trial","130","3744503","0.0-60.0","battery-v0.2","","","656.5","","","15","1049","1183","s","elianto","#f73b6a7A","-1"," ","0","-10","[1506.5]","1","2","","","1049","56","5","4","lose","no-go","0","0"
"pit-trial","131","3749358","0.0-61.0","battery-v0.2","","","-1","","","15","1049","1183","l","elianto","#f73b6a7A"," ","-1","0","-10","[]","0","2","","","1049","57","1","3","lose","go","0","0"
"pit-trial","132","3754213","0.0-62.0","battery-v0.2","","","-1","","","15","1049","1183","p","elianto","#f73b6a7A"," ","-1","0","-10","[]","0","2","","","1049","58","4","3","lose","go","0","0"
"pit-trial","133","3759069","0.0-63.0","battery-v0.2","","","-1","","","15","1049","1183","s","elianto","#f73b6a7A","-1","-1","1","0","[]","0","2","","","1049","59","5","4","lose","no-go","0","0"
"pit-trial","134","3763924","0.0-64.0","battery-v0.2","","","-1","","","15","1049","1183","a","elianto","#f73b6a7A","-1","-1","1","0","[]","0","2","","","1049","60","2","4","lose","no-go","0","0"
"pit-trial","135","3768780","0.0-65.0","battery-v0.2","","","-1","","","15","1049","1183","p","elianto","#f73b6a7A"," ","-1","0","-10","[]","0","2","","","1049","61","4","3","lose","go","0","0"
"pit-trial","136","3773635","0.0-66.0","battery-v0.2","","","-1","","","15","1049","1183","s","elianto","#f73b6a7A","-1","-1","1","0","[]","0","2","","","1049","62","5","4","lose","no-go","0","0"
"pit-trial","137","3778490","0.0-67.0","battery-v0.2","","","-1","","","15","1049","1183","w","elianto","#3366ff99","-1","-1","1","+10","[]","0","2","","","1049","63","6","2","win","no-go","0","0"
"pit-trial","138","3783346","0.0-68.0","battery-v0.2","","","-1","","","15","1049","1183","a","elianto","#f73b6a7A","-1","-1","1","-10","[]","0","2","","","1049","64","2","4","lose","no-go","1","0"
"pit-trial","139","3788202","0.0-69.0","battery-v0.2","","","-1","","","15","1049","1183","a","elianto","#f73b6a7A","-1","-1","1","0","[3051.899999999907]","1","2","","","1049","65","2","4","lose","no-go","0","0"
"pit-trial","140","3791703","0.0-70.0","battery-v0.2","","","646.2999999998137","","","15","1049","1183","w","elianto","#3366ff99","-1"," ","0","0","[1496.3000000002794]","1","2","","","1049","66","6","2","win","no-go","0","0"
"pit-trial","141","3795022","0.0-71.0","battery-v0.2","","","463.5","","","15","1049","1183","p","elianto","#f73b6a7A"," "," ","1","0","[1313.6000000000931]","1","2","","","1049","67","4","3","lose","go","0","0"
"pit-trial","142","3798445","0.0-72.0","battery-v0.2","","","566.5","","","15","1049","1183","s","elianto","#f73b6a7A","-1"," ","0","-10","[1417.6999999997206]","1","2","","","1049","68","5","4","lose","no-go","0","0"
"pit-trial","143","3802025","0.0-73.0","battery-v0.2","","","724.2999999998137","","","15","1049","1183","w","elianto","#3366ff99","-1"," ","0","0","[1574.6000000000931]","1","2","","","1049","69","6","2","win","no-go","0","0"
"pit-trial","144","3805855","0.0-74.0","battery-v0.2","","","974.3000000002794","","","15","1049","1183","s","elianto","#f73b6a7A","-1"," ","0","-10","[1824.4000000003725]","1","2","","","1049","70","5","4","lose","no-go","0","0"
"pit-trial","145","3809691","0.0-75.0","battery-v0.2","","","978.6999999997206","","","15","1049","1183","e","elianto","#3366ff99"," "," ","1","+10","[1830.1000000000931]","1","2","","","1049","71","7","1","win","go","0","0"
"pit-trial","146","3814545","0.0-76.0","battery-v0.2","","","-1","","","15","1049","1183","p","elianto","#f73b6a7A"," ","-1","0","0","[]","0","2","","","1049","72","4","3","lose","go","1","0"
"pit-trial","147","3817981","0.0-77.0","battery-v0.2","","","582.2999999998137","","","15","1049","1183","e","elianto","#3366ff99"," "," ","1","+10","[1432.1000000000931]","1","2","","","1049","73","7","1","win","go","0","0"
"pit-trial","148","3822836","0.0-78.0","battery-v0.2","","","-1","","","15","1049","1183","s","elianto","#f73b6a7A","-1","-1","1","0","[]","0","2","","","1049","74","5","4","lose","no-go","0","0"
"pit-trial","149","3826660","0.0-79.0","battery-v0.2","","","970.2000000001863","","","15","1049","1183","w","elianto","#3366ff99","-1"," ","0","0","[1820.5]","1","2","","","1049","75","6","2","win","no-go","0","0"
"pit-trial","150","3831515","0.0-80.0","battery-v0.2","","","-1","","","15","1049","1183","p","elianto","#f73b6a7A"," ","-1","0","-10","[]","0","2","","","1049","76","4","3","lose","go","0","0"
"pit-trial","151","3836369","0.0-81.0","battery-v0.2","","","-1","","","15","1049","1183","s","elianto","#f73b6a7A","-1","-1","1","0","[]","0","2","","","1049","77","5","4","lose","no-go","0","0"
"pit-trial","152","3841223","0.0-82.0","battery-v0.2","","","-1","","","15","1049","1183","p","elianto","#f73b6a7A"," ","-1","0","-10","[]","0","2","","","1049","78","4","3","lose","go","0","0"
"pit-trial","153","3845029","0.0-83.0","battery-v0.2","","","949.7000000001863","","","15","1049","1183","w","elianto","#3366ff99","-1"," ","0","0","[1801.7000000001863]","1","2","","","1049","79","6","2","win","no-go","0","0"
"pit-trial","154","3848981","0.0-84.0","battery-v0.2","","","1097.7999999998137","","","15","1049","1183","e","elianto","#3366ff99"," "," ","1","+10","[1947.8999999999069]","1","2","","","1049","80","7","1","win","go","0","0"
"pit-trial","155","3853836","0.0-85.0","battery-v0.2","","","-1","","","15","1049","1183","w","elianto","#3366ff99","-1","-1","1","+10","[]","0","2","","","1049","81","6","2","win","no-go","0","0"
"pit-trial","156","3858691","0.0-86.0","battery-v0.2","","","-1","","","15","1049","1183","s","elianto","#f73b6a7A","-1","-1","1","-10","[]","0","2","","","1049","82","5","4","lose","no-go","1","0"
"pit-trial","157","3863530","0.0-87.0","battery-v0.2","","","1981.7999999998137","","","15","1049","1183","e","elianto","#3366ff99"," "," ","1","+10","[2834.7999999998137]","1","2","","","1049","83","7","1","win","go","0","0"
"pit-trial","158","3868385","0.0-88.0","battery-v0.2","","","-1","","","15","1049","1183","p","elianto","#f73b6a7A"," ","-1","0","0","[]","0","2","","","1049","84","4","3","lose","go","1","0"
"pit-trial","159","3873240","0.0-89.0","battery-v0.2","","","-1","","","15","1049","1183","s","elianto","#f73b6a7A","-1","-1","1","0","[]","0","2","","","1049","85","5","4","lose","no-go","0","0"
"pit-trial","160","3878095","0.0-90.0","battery-v0.2","","","-1","","","15","1049","1183","p","elianto","#f73b6a7A"," ","-1","0","-10","[]","0","2","","","1049","86","4","3","lose","go","0","0"
"pit-trial","161","3882036","0.0-91.0","battery-v0.2","","","1086.5999999996275","","","15","1049","1183","w","elianto","#3366ff99","-1"," ","0","0","[1936.8000000002794]","1","2","","","1049","87","6","2","win","no-go","0","0"
"pit-trial","162","3885483","0.0-92.0","battery-v0.2","","","592.5","","","15","1049","1183","e","elianto","#3366ff99"," "," ","1","+10","[1442.6000000000931]","1","2","","","1049","88","7","1","win","go","0","0"
"pit-trial","163","3890338","0.0-93.0","battery-v0.2","","","-1","","","15","1049","1183","s","elianto","#f73b6a7A","-1","-1","1","-10","[]","0","2","","","1049","89","5","4","lose","no-go","1","0"
"pit-trial","164","3894096","0.0-94.0","battery-v0.2","","","903.2999999998137","","","15","1049","1183","e","elianto","#3366ff99"," "," ","1","+10","[1753.5]","1","2","","","1049","90","7","1","win","go","0","0"
"pit-trial","165","3898951","0.0-95.0","battery-v0.2","","","-1","","","15","1049","1183","p","elianto","#f73b6a7A"," ","-1","0","0","[]","0","2","","","1049","91","4","3","lose","go","1","0"
"pit-trial","166","3902447","0.0-96.0","battery-v0.2","","","641.2999999998137","","","15","1049","1183","w","elianto","#3366ff99","-1"," ","0","0","[1491.3999999999069]","1","2","","","1049","92","6","2","win","no-go","0","0"
"pit-trial","167","3907302","0.0-97.0","battery-v0.2","","","-1","","","15","1049","1183","p","elianto","#f73b6a7A"," ","-1","0","-10","[]","0","2","","","1049","93","4","3","lose","go","0","0"
"pit-trial","168","3911143","0.0-98.0","battery-v0.2","","","986.4000000003725","","","15","1049","1183","e","elianto","#3366ff99"," "," ","1","+10","[1836.5]","1","2","","","1049","94","7","1","win","go","0","0"
"pit-trial","169","3915162","0.0-99.0","battery-v0.2","","","1163","","","15","1049","1183","k","elianto","#3366ff99"," "," ","1","+10","[2014]","1","2","","","1049","95","8","1","win","go","0","0"
"pit-trial","170","3918620","0.0-100.0","battery-v0.2","","","602.6000000000931","","","15","1049","1183","w","elianto","#3366ff99","-1"," ","0","+10","[1452.5]","1","2","","","1049","96","6","2","win","no-go","1","0"
"pit-trial","171","3922345","0.0-101.0","battery-v0.2","","","869.5","","","15","1049","1183","e","elianto","#3366ff99"," "," ","1","+10","[1719.6000000000931]","1","2","","","1049","97","7","1","win","go","0","0"
"pit-trial","172","3926328","0.0-102.0","battery-v0.2","","","1128.1999999997206","","","15","1049","1183","k","elianto","#3366ff99"," "," ","1","+10","[1978.2000000001863]","1","2","","","1049","98","8","1","win","go","0","0"
"pit-trial","173","3931183","0.0-103.0","battery-v0.2","","","-1","","","15","1049","1183","p","elianto","#f73b6a7A"," ","-1","0","-10","[]","0","2","","","1049","99","4","3","lose","go","0","0"
"pit-trial","174","3934706","0.0-104.0","battery-v0.2","","","667.2999999998137","","","15","1049","1183","w","elianto","#3366ff99","-1"," ","0","0","[1517.5]","1","2","","","1049","100","6","2","win","no-go","0","0"
"pit-trial","175","3939492","0.0-105.0","battery-v0.2","","","1930.1000000000931","","","15","1049","1183","k","elianto","#3366ff99"," "," ","1","+10","[2780.399999999907]","1","2","","","1049","101","8","1","win","go","0","0"
"pit-trial","176","3942970","0.0-106.0","battery-v0.2","","","622.5","","","15","1049","1183","w","elianto","#3366ff99","-1"," ","0","0","[1472.7999999998137]","1","2","","","1049","102","6","2","win","no-go","0","0"
"pit-trial","177","3946916","0.0-107.0","battery-v0.2","","","1090.8999999999069","","","15","1049","1183","e","elianto","#3366ff99"," "," ","1","0","[1940.8999999999069]","1","2","","","1049","103","7","1","win","go","1","0"
"pit-trial","178","3950732","0.0-108.0","battery-v0.2","","","960.8999999999069","","","15","1049","1183","d","elianto","#3366ff99","-1"," ","0","0","[1811]","1","2","","","1049","104","9","2","win","no-go","0","0"
"pit-trial","179","3955240","0.0-109.0","battery-v0.2","","","1652.2999999998137","","","15","1049","1183","k","elianto","#3366ff99"," "," ","1","+10","[2502.3000000002794]","1","2","","","1049","105","8","1","win","go","0","0"
"pit-trial","180","3959751","0.0-110.0","battery-v0.2","","","1655.2999999998137","","","15","1049","1183","e","elianto","#3366ff99"," "," ","1","+10","[2505.6999999997206]","1","2","","","1049","106","7","1","win","go","0","0"
"pit-trial","181","3963652","0.0-111.0","battery-v0.2","","","1045.6000000000931","","","15","1049","1183","d","elianto","#3366ff99","-1"," ","0","0","[1895.8000000002794]","1","2","","","1049","107","9","2","win","no-go","0","0"
"pit-trial","182","3968312","0.0-112.0","battery-v0.2","","","1804.7999999998137","","","15","1049","1183","w","elianto","#3366ff99","-1"," ","0","0","[2654.899999999907]","1","2","","","1049","108","6","2","win","no-go","0","0"
"pit-trial","183","3972723","0.0-113.0","battery-v0.2","","","1555.3999999999069","","","15","1049","1183","d","elianto","#3366ff99","-1"," ","0","0","[2405.899999999907]","1","2","","","1049","109","9","2","win","no-go","0","0"
"pit-trial","184","3977579","0.0-114.0","battery-v0.2","","","-1","","","15","1049","1183","v","elianto","#f73b6a7A","-1","-1","1","0","[]","0","2","","","1049","110","11","4","lose","no-go","0","0"
"pit-trial","185","3982435","0.0-115.0","battery-v0.2","","","-1","","","15","1049","1183","j","elianto","#f73b6a7A"," ","-1","0","-10","[]","0","2","","","1049","111","10","3","lose","go","0","0"
"pit-trial","186","3986497","0.0-116.0","battery-v0.2","","","1205.9000000003725","","","15","1049","1183","k","elianto","#3366ff99"," "," ","1","+10","[2056]","1","2","","","1049","112","8","1","win","go","0","0"
"pit-trial","187","3991352","0.0-117.0","battery-v0.2","","","-1","","","15","1049","1183","j","elianto","#f73b6a7A"," ","-1","0","-10","[]","0","2","","","1049","113","10","3","lose","go","0","0"
"pit-trial","188","3996206","0.0-118.0","battery-v0.2","","","-1","","","15","1049","1183","v","elianto","#f73b6a7A","-1","-1","1","0","[]","0","2","","","1049","114","11","4","lose","no-go","0","0"
"pit-trial","189","4000510","0.0-119.0","battery-v0.2","","","1447.3999999994412","","","15","1049","1183","d","elianto","#3366ff99","-1"," ","0","+10","[2297.5]","1","2","","","1049","115","9","2","win","no-go","1","0"
"pit-trial","190","4004401","0.0-120.0","battery-v0.2","","","1037","","","15","1049","1183","k","elianto","#3366ff99"," "," ","1","+10","[1887.199999999255]","1","2","","","1049","116","8","1","win","go","0","0"
"pit-trial","191","4009255","0.0-121.0","battery-v0.2","","","-1","","","15","1049","1183","j","elianto","#f73b6a7A"," ","-1","0","-10","[]","0","2","","","1049","117","10","3","lose","go","0","0"
"pit-trial","192","4014109","0.0-122.0","battery-v0.2","","","-1","","","15","1049","1183","v","elianto","#f73b6a7A","-1","-1","1","0","[]","0","2","","","1049","118","11","4","lose","no-go","0","0"
"pit-trial","193","4018711","0.0-123.0","battery-v0.2","","","1748","","","15","1049","1183","d","elianto","#3366ff99","-1"," ","0","0","[2598.2000000001863]","1","2","","","1049","119","9","2","win","no-go","0","0"
"pit-trial","194","4022593","0.0-124.0","battery-v0.2","","","1027.699999999255","","","15","1049","1183","k","elianto","#3366ff99"," "," ","1","+10","[1877.7000000001863]","1","2","","","1049","120","8","1","win","go","0","0"
"pit-trial","195","4026356","0.0-125.0","battery-v0.2","","","909","","","15","1049","1183","d","elianto","#3366ff99","-1"," ","0","0","[1759,2559.9000000003725,3072.4000000003725,3543.100000000559]","4","2","","","1049","121","9","2","win","no-go","0","0"
"pit-trial","196","4031210","0.0-126.0","battery-v0.2","","","-1","","","15","1049","1183","j","elianto","#f73b6a7A"," ","-1","0","0","[5.7000000001862645]","1","2","","","1049","122","10","3","lose","go","1","0"
"pit-trial","197","4036065","0.0-127.0","battery-v0.2","","","-1","","","15","1049","1183","v","elianto","#f73b6a7A","-1","-1","1","0","[]","0","2","","","1049","123","11","4","lose","no-go","0","0"
"pit-trial","198","4039797","0.0-128.0","battery-v0.2","","","877.4000000003725","","","15","1049","1183","k","elianto","#3366ff99"," "," ","1","+10","[1728.0999999996275]","1","2","","","1049","124","8","1","win","go","0","0"
"pit-trial","199","4044652","0.0-129.0","battery-v0.2","","","-1","","","15","1049","1183","v","elianto","#f73b6a7A","-1","-1","1","0","[]","0","2","","","1049","125","11","4","lose","no-go","0","0"
"pit-trial","200","4049506","0.0-130.0","battery-v0.2","","","-1","","","15","1049","1183","j","elianto","#f73b6a7A"," ","-1","0","0","[]","0","2","","","1049","126","10","3","lose","go","1","0"
"pit-trial","201","4053090","0.0-131.0","battery-v0.2","","","729","","","15","1049","1183","d","elianto","#3366ff99","-1"," ","0","0","[1579.2000000001863]","1","2","","","1049","127","9","2","win","no-go","0","0"
"pit-trial","202","4056601","0.0-132.0","battery-v0.2","","","656.4000000003725","","","15","1049","1183","k","elianto","#3366ff99"," "," ","1","+10","[1506.7000000001863,2627.2999999998137]","2","2","","","1049","128","8","1","win","go","0","0"
"pit-trial","203","4061456","0.0-133.0","battery-v0.2","","","-1","","","15","1049","1183","j","elianto","#f73b6a7A"," ","-1","0","-10","[]","0","2","","","1049","129","10","3","lose","go","0","0"
"pit-trial","204","4065755","0.0-134.0","battery-v0.2","","","1444.3999999994412","","","15","1049","1183","d","elianto","#3366ff99","-1"," ","0","0","[2294.5999999996275]","1","2","","","1049","130","9","2","win","no-go","0","0"
"pit-trial","205","4069258","0.0-135.0","battery-v0.2","","","648.5","","","15","1049","1183","k","elianto","#3366ff99"," "," ","1","+10","[1498.6000000005588]","1","2","","","1049","131","8","1","win","go","0","0"
"pit-trial","206","4074113","0.0-136.0","battery-v0.2","","","-1","","","15","1049","1183","v","elianto","#f73b6a7A","-1","-1","1","0","[]","0","2","","","1049","132","11","4","lose","no-go","0","0"
"pit-trial","207","4078968","0.0-137.0","battery-v0.2","","","-1","","","15","1049","1183","v","elianto","#f73b6a7A","-1","-1","1","0","[]","0","2","","","1049","133","11","4","lose","no-go","0","0"
"pit-trial","208","4083823","0.0-138.0","battery-v0.2","","","-1","","","15","1049","1183","j","elianto","#f73b6a7A"," ","-1","0","-10","[]","0","2","","","1049","134","10","3","lose","go","0","0"
"pit-trial","209","4087217","0.0-139.0","battery-v0.2","","","539","","","15","1049","1183","k","elianto","#3366ff99"," "," ","1","+10","[1389.2000000001863]","1","2","","","1049","135","8","1","win","go","0","0"
"pit-trial","210","4092071","0.0-140.0","battery-v0.2","","","-1","","","15","1049","1183","d","elianto","#3366ff99","-1","-1","1","+10","[3905.5999999996275]","1","2","","","1049","136","9","2","win","no-go","0","0"
"pit-trial","211","4096926","0.0-141.0","battery-v0.2","","","-1","","","15","1049","1183","j","elianto","#f73b6a7A"," ","-1","0","-10","[]","0","2","","","1049","137","10","3","lose","go","0","0"
"pit-trial","212","4101781","0.0-142.0","battery-v0.2","","","-1","","","15","1049","1183","v","elianto","#f73b6a7A","-1","-1","1","0","[]","0","2","","","1049","138","11","4","lose","no-go","0","0"
"pit-trial","213","4105638","0.0-143.0","battery-v0.2","","","998.4000000003725","","","15","1049","1183","d","elianto","#3366ff99","-1"," ","0","0","[1851.3999999994412]","1","2","","","1049","139","9","2","win","no-go","0","0"
"pit-trial","214","4110493","0.0-144.0","battery-v0.2","","","-1","","","15","1049","1183","k","elianto","#3366ff99"," ","-1","0","0","[]","0","2","","","1049","140","8","1","win","go","0","0"
"pit-instructions","215","4749484","0.0-145.0","battery-v0.2","","[{""page_index"":0,""viewing_time"":347744.39999999944},{""page_index"":1,""viewing_time"":291243.2000000002}]","638988.2999999998","","","","","","","","","","","","","","","","","","","","","","","","",""
"pit-trial","216","4754343","0.0-146.0","battery-v0.2","","","-1","","","15","1049","1183","x","elianto","#f73b6a7A"," ","-1","0","-10","[]","0","3","","","1049","141","3","3","lose","go","0","0"
"pit-trial","217","4757847","0.0-147.0","battery-v0.2","","","650.2999999998137","","","15","1049","1183","f","elianto","#3366ff99"," "," ","1","+10","[1500.5999999996275]","1","3","","","1049","142","2","1","win","go","0","0"
"pit-trial","218","4761346","0.0-148.0","battery-v0.2","","","644.5","","","15","1049","1183","q","elianto","#3366ff99","-1"," ","0","0","[1494.800000000745]","1","3","","","1049","143","0","2","win","no-go","0","0"
"pit-trial","219","4764730","0.0-149.0","battery-v0.2","","","530.2000000001863","","","15","1049","1183","n","elianto","#3366ff99","-1"," ","0","0","[1380.2999999998137]","1","3","","","1049","144","1","2","win","no-go","0","0"
"pit-trial","220","4768223","0.0-150.0","battery-v0.2","","","639.5","","","15","1049","1183","f","elianto","#3366ff99"," "," ","1","+10","[1489.7999999998137]","1","3","","","1049","145","2","1","win","go","0","0"
"pit-trial","221","4771726","0.0-151.0","battery-v0.2","","","647.6000000005588","","","15","1049","1183","n","elianto","#3366ff99","-1"," ","0","0","[1498.9000000003725]","1","3","","","1049","146","1","2","win","no-go","0","0"
"pit-trial","222","4776581","0.0-152.0","battery-v0.2","","","-1","","","15","1049","1183","x","elianto","#f73b6a7A"," ","-1","0","-10","[]","0","3","","","1049","147","3","3","lose","go","0","0"
"pit-trial","223","4780000","0.0-153.0","battery-v0.2","","","565.4000000003725","","","15","1049","1183","q","elianto","#3366ff99","-1"," ","0","0","[1415.6000000005588]","1","3","","","1049","148","0","2","win","no-go","0","0"
"pit-trial","224","4784855","0.0-154.0","battery-v0.2","","","-1","","","15","1049","1183","n","elianto","#3366ff99","-1","-1","1","0","[]","0","3","","","1049","149","1","2","win","no-go","1","0"
"pit-trial","225","4789332","0.0-155.0","battery-v0.2","","","1622.800000000745","","","15","1049","1183","q","elianto","#3366ff99","-1"," ","0","0","[2473]","1","3","","","1049","150","0","2","win","no-go","0","0"
"pit-trial","226","4794187","0.0-156.0","battery-v0.2","","","-1","","","15","1049","1183","x","elianto","#f73b6a7A"," ","-1","0","-10","[]","0","3","","","1049","151","3","3","lose","go","0","0"
"pit-trial","227","4799042","0.0-157.0","battery-v0.2","","","-1","","","15","1049","1183","f","elianto","#3366ff99"," ","-1","0","+10","[4745.9000000003725]","1","3","","","1049","152","2","1","win","go","1","0"
"pit-trial","228","4802461","0.0-158.0","battery-v0.2","","","564.4000000003725","","","15","1049","1183","f","elianto","#3366ff99"," "," ","1","0","[1414.6000000005588]","1","3","","","1049","153","2","1","win","go","1","0"
"pit-trial","229","4806093","0.0-159.0","battery-v0.2","","","777.1999999992549","","","15","1049","1183","x","elianto","#f73b6a7A"," "," ","1","0","[1627.2000000001863]","1","3","","","1049","154","3","3","lose","go","0","0"
"pit-trial","230","4810947","0.0-160.0","battery-v0.2","","","-1","","","15","1049","1183","q","elianto","#3366ff99","-1","-1","1","+10","[]","0","3","","","1049","155","0","2","win","no-go","0","0"
"pit-trial","231","4814334","0.0-161.0","battery-v0.2","","","531.7999999998137","","","15","1049","1183","n","elianto","#3366ff99","-1"," ","0","0","[1381.9000000003725]","1","3","","","1049","156","1","2","win","no-go","0","0"
"pit-trial","232","4817998","0.0-162.0","battery-v0.2","","","808.9000000003725","","","15","1049","1183","q","elianto","#3366ff99","-1"," ","0","+10","[1659.1000000005588]","1","3","","","1049","157","0","2","win","no-go","1","0"
"pit-trial","233","4822634","0.0-163.0","battery-v0.2","","","1781.2999999998137","","","15","1049","1183","f","elianto","#3366ff99"," "," ","1","+10","[2631.4000000003725]","1","3","","","1049","158","2","1","win","go","0","0"
"pit-trial","234","4826103","0.0-164.0","battery-v0.2","","","614","","","15","1049","1183","n","elianto","#3366ff99","-1"," ","0","+10","[1464.2000000001863]","1","3","","","1049","159","1","2","win","no-go","1","0"
"pit-trial","235","4829709","0.0-165.0","battery-v0.2","","","751.5","","","15","1049","1183","x","elianto","#f73b6a7A"," "," ","1","-10","[1601.9000000003725]","1","3","","","1049","160","3","3","lose","go","1","0"
"pit-trial","236","4834565","0.0-166.0","battery-v0.2","","","-1","","","15","1049","1183","x","elianto","#f73b6a7A"," ","-1","0","-10","[]","0","3","","","1049","161","3","3","lose","go","0","0"
"pit-trial","237","4838654","0.0-167.0","battery-v0.2","","","1233.5999999996275","","","15","1049","1183","f","elianto","#3366ff99"," "," ","1","0","[2083.7000000001863]","1","3","","","1049","162","2","1","win","go","1","0"
"pit-trial","238","4842430","0.0-168.0","battery-v0.2","","","920.9000000003725","","","15","1049","1183","q","elianto","#3366ff99","-1"," ","0","0","[1771.0999999996275]","1","3","","","1049","163","0","2","win","no-go","0","0"
"pit-trial","239","4845970","0.0-169.0","battery-v0.2","","","685.6000000005588","","","15","1049","1183","n","elianto","#3366ff99","-1"," ","0","0","[1535.699999999255]","1","3","","","1049","164","1","2","win","no-go","0","0"
"pit-trial","240","4850826","0.0-170.0","battery-v0.2","","","-1","","","15","1049","1183","f","elianto","#3366ff99"," ","-1","0","0","[]","0","3","","","1049","165","2","1","win","go","0","0"
"pit-trial","241","4855682","0.0-171.0","battery-v0.2","","","-1","","","15","1049","1183","x","elianto","#f73b6a7A"," ","-1","0","0","[]","0","3","","","1049","166","3","3","lose","go","1","0"
"pit-trial","242","4859127","0.0-172.0","battery-v0.2","","","590.7999999998137","","","15","1049","1183","q","elianto","#3366ff99","-1"," ","0","+10","[1441.0999999996275]","1","3","","","1049","167","0","2","win","no-go","1","0"
"pit-trial","243","4862730","0.0-173.0","battery-v0.2","","","747.7000000001863","","","15","1049","1183","n","elianto","#3366ff99","-1"," ","0","0","[1597.9000000003725]","1","3","","","1049","168","1","2","win","no-go","0","0"
"pit-trial","244","4866306","0.0-174.0","battery-v0.2","","","721.0999999996275","","","15","1049","1183","n","elianto","#3366ff99","-1"," ","0","0","[1571.2999999998137]","1","3","","","1049","169","1","2","win","no-go","0","0"
"pit-trial","245","4871162","0.0-175.0","battery-v0.2","","","-1","","","15","1049","1183","x","elianto","#f73b6a7A"," ","-1","0","-10","[]","0","3","","","1049","170","3","3","lose","go","0","0"
"pit-trial","246","4874557","0.0-176.0","battery-v0.2","","","539.2999999998137","","","15","1049","1183","f","elianto","#3366ff99"," "," ","1","+10","[1389.2999999998137]","1","3","","","1049","171","2","1","win","go","0","0"
"pit-trial","247","4878675","0.0-177.0","battery-v0.2","","","1263.5","","","15","1049","1183","q","elianto","#3366ff99","-1"," ","0","0","[2113.5]","1","3","","","1049","172","0","2","win","no-go","0","0"
"pit-trial","248","4883532","0.0-178.0","battery-v0.2","","","-1","","","15","1049","1183","b","elianto","#f73b6a7A"," ","-1","0","-10","[]","0","3","","","1049","173","5","3","lose","go","0","0"
"pit-trial","249","4888387","0.0-179.0","battery-v0.2","","","-1","","","15","1049","1183","t","elianto","#f73b6a7A","-1","-1","1","0","[]","0","3","","","1049","174","4","4","lose","no-go","0","0"
"pit-trial","250","4891798","0.0-180.0","battery-v0.2","","","555.4000000003725","","","15","1049","1183","q","elianto","#3366ff99","-1"," ","0","0","[1405.300000000745]","1","3","","","1049","175","0","2","win","no-go","0","0"
"pit-trial","251","4895257","0.0-181.0","battery-v0.2","","","603","","","15","1049","1183","f","elianto","#3366ff99"," "," ","1","0","[1453.2999999998137]","1","3","","","1049","176","2","1","win","go","1","0"
"pit-trial","252","4900112","0.0-182.0","battery-v0.2","","","-1","","","15","1049","1183","b","elianto","#f73b6a7A"," ","-1","0","-10","[]","0","3","","","1049","177","5","3","lose","go","0","0"
"pit-trial","253","4904968","0.0-183.0","battery-v0.2","","","-1","","","15","1049","1183","t","elianto","#f73b6a7A","-1","-1","1","0","[]","0","3","","","1049","178","4","4","lose","no-go","0","0"
"pit-trial","254","4908556","0.0-184.0","battery-v0.2","","","732.3999999994412","","","15","1049","1183","f","elianto","#3366ff99"," "," ","1","+10","[1582.5]","1","3","","","1049","179","2","1","win","go","0","0"
"pit-trial","255","4912241","0.0-185.0","battery-v0.2","","","828.7000000001863","","","15","1049","1183","q","elianto","#3366ff99","-1"," ","0","0","[1678.7000000001863]","1","3","","","1049","180","0","2","win","no-go","0","0"
"pit-trial","256","4917082","0.0-186.0","battery-v0.2","","","1986.2999999998137","","","15","1049","1183","c","elianto","#3366ff99","-1"," ","0","0","[2836.5]","1","3","","","1049","181","6","2","win","no-go","0","0"
"pit-trial","257","4921936","0.0-187.0","battery-v0.2","","","-1","","","15","1049","1183","b","elianto","#f73b6a7A"," ","-1","0","-10","[]","0","3","","","1049","182","5","3","lose","go","0","0"
"pit-trial","258","4925354","0.0-188.0","battery-v0.2","","","564","","","15","1049","1183","f","elianto","#3366ff99"," "," ","1","+10","[1414]","1","3","","","1049","183","2","1","win","go","0","0"
"pit-trial","259","4930209","0.0-189.0","battery-v0.2","","","-1","","","15","1049","1183","t","elianto","#f73b6a7A","-1","-1","1","-10","[]","0","3","","","1049","184","4","4","lose","no-go","1","0"
"pit-trial","260","4935064","0.0-190.0","battery-v0.2","","","-1","","","15","1049","1183","t","elianto","#f73b6a7A","-1","-1","1","0","[]","0","3","","","1049","185","4","4","lose","no-go","0","0"
"pit-trial","261","4938590","0.0-191.0","battery-v0.2","","","672.2000000001863","","","15","1049","1183","c","elianto","#3366ff99","-1"," ","0","0","[1522.5]","1","3","","","1049","186","6","2","win","no-go","0","0"
"pit-trial","262","4942103","0.0-192.0","battery-v0.2","","","659.8000000007451","","","15","1049","1183","f","elianto","#3366ff99"," "," ","1","+10","[1510]","1","3","","","1049","187","2","1","win","go","0","0"
"pit-trial","263","4946959","0.0-193.0","battery-v0.2","","","-1","","","15","1049","1183","b","elianto","#f73b6a7A"," ","-1","0","-10","[]","0","3","","","1049","188","5","3","lose","go","0","0"
"pit-trial","264","4951814","0.0-194.0","battery-v0.2","","","-1","","","15","1049","1183","b","elianto","#f73b6a7A"," ","-1","0","-10","[]","0","3","","","1049","189","5","3","lose","go","0","0"
"pit-trial","265","4955188","0.0-195.0","battery-v0.2","","","520.4000000003725","","","15","1049","1183","c","elianto","#3366ff99","-1"," ","0","0","[1370.7999999998137]","1","3","","","1049","190","6","2","win","no-go","0","0"
"pit-trial","266","4960043","0.0-196.0","battery-v0.2","","","-1","","","15","1049","1183","z","elianto","#f73b6a7A","-1","-1","1","-10","[]","0","3","","","1049","191","7","4","lose","no-go","1","0"
"pit-trial","267","4964898","0.0-197.0","battery-v0.2","","","-1","","","15","1049","1183","t","elianto","#f73b6a7A","-1","-1","1","0","[]","0","3","","","1049","192","4","4","lose","no-go","0","0"
"pit-trial","268","4969752","0.0-198.0","battery-v0.2","","","-1","","","15","1049","1183","b","elianto","#f73b6a7A"," ","-1","0","-10","[]","0","3","","","1049","193","5","3","lose","go","0","0"
"pit-trial","269","4974607","0.0-199.0","battery-v0.2","","","-1","","","15","1049","1183","z","elianto","#f73b6a7A","-1","-1","1","-10","[]","0","3","","","1049","194","7","4","lose","no-go","1","0"
"pit-trial","270","4978147","0.0-200.0","battery-v0.2","","","685.2000000001863","","","15","1049","1183","c","elianto","#3366ff99","-1"," ","0","0","[1535.4000000003725]","1","3","","","1049","195","6","2","win","no-go","0","0"
"pit-trial","271","4983001","0.0-201.0","battery-v0.2","","","-1","","","15","1049","1183","t","elianto","#f73b6a7A","-1","-1","1","0","[]","0","3","","","1049","196","4","4","lose","no-go","0","0"
"pit-trial","272","4987856","0.0-202.0","battery-v0.2","","","-1","","","15","1049","1183","t","elianto","#f73b6a7A","-1","-1","1","-10","[]","0","3","","","1049","197","4","4","lose","no-go","1","0"
"pit-trial","273","4992711","0.0-203.0","battery-v0.2","","","-1","","","15","1049","1183","z","elianto","#f73b6a7A","-1","-1","1","-10","[]","0","3","","","1049","198","7","4","lose","no-go","1","0"
"pit-trial","274","4997400","0.0-204.0","battery-v0.2","","","1833.5999999996275","","","15","1049","1183","c","elianto","#3366ff99","-1"," ","0","0","[2683.7999999998137]","1","3","","","1049","199","6","2","win","no-go","0","0"
"pit-trial","275","5002255","0.0-205.0","battery-v0.2","","","-1","","","15","1049","1183","b","elianto","#f73b6a7A"," ","-1","0","-10","[]","0","3","","","1049","200","5","3","lose","go","0","0"
"pit-trial","276","5007109","0.0-206.0","battery-v0.2","","","-1","","","15","1049","1183","z","elianto","#f73b6a7A","-1","-1","1","0","[]","0","3","","","1049","201","7","4","lose","no-go","0","0"
"pit-trial","277","5011964","0.0-207.0","battery-v0.2","","","-1","","","15","1049","1183","b","elianto","#f73b6a7A"," ","-1","0","0","[]","0","3","","","1049","202","5","3","lose","go","1","0"
"pit-trial","278","5016820","0.0-208.0","battery-v0.2","","","-1","","","15","1049","1183","t","elianto","#f73b6a7A","-1","-1","1","0","[]","0","3","","","1049","203","4","4","lose","no-go","0","0"
"pit-trial","279","5021675","0.0-209.0","battery-v0.2","","","-1","","","15","1049","1183","c","elianto","#3366ff99","-1","-1","1","+10","[3646.2000000001863]","1","3","","","1049","204","6","2","win","no-go","0","0"
"pit-trial","280","5025864","0.0-210.0","battery-v0.2","","","1333.8999999994412","","","15","1049","1183","c","elianto","#3366ff99","-1"," ","0","+10","[2184.0999999996275]","1","3","","","1049","205","6","2","win","no-go","1","0"
"pit-trial","281","5030719","0.0-211.0","battery-v0.2","","","-1","","","15","1049","1183","t","elianto","#f73b6a7A","-1","-1","1","0","[]","0","3","","","1049","206","4","4","lose","no-go","0","0"
"pit-trial","282","5035574","0.0-212.0","battery-v0.2","","","-1","","","15","1049","1183","z","elianto","#f73b6a7A","-1","-1","1","0","[]","0","3","","","1049","207","7","4","lose","no-go","0","0"
"pit-trial","283","5040430","0.0-213.0","battery-v0.2","","","-1","","","15","1049","1183","b","elianto","#f73b6a7A"," ","-1","0","-10","[]","0","3","","","1049","208","5","3","lose","go","0","0"
"pit-trial","284","5045285","0.0-214.0","battery-v0.2","","","-1","","","15","1049","1183","z","elianto","#f73b6a7A","-1","-1","1","0","[]","0","3","","","1049","209","7","4","lose","no-go","0","0"
"pit-trial","285","5050140","0.0-215.0","battery-v0.2","","","-1","","","15","1049","1183","t","elianto","#f73b6a7A","-1","-1","1","-10","[]","0","3","","","1049","210","4","4","lose","no-go","1","0"
"pit-trial","286","5054996","0.0-216.0","battery-v0.2","","","-1","","","15","1049","1183","b","elianto","#f73b6a7A"," ","-1","0","-10","[]","0","3","","","1049","211","5","3","lose","go","0","0"
"pit-trial","287","5058546","0.0-217.0","battery-v0.2","","","694.7000000001863","","","15","1049","1183","c","elianto","#3366ff99","-1"," ","0","+10","[1544.9000000003725]","1","3","","","1049","212","6","2","win","no-go","1","0"
"pit-trial","288","5063402","0.0-218.0","battery-v0.2","","","-1","","","15","1049","1183","b","elianto","#f73b6a7A"," ","-1","0","-10","[]","0","3","","","1049","213","5","3","lose","go","0","0"
"pit-trial","289","5068257","0.0-219.0","battery-v0.2","","","-1","","","15","1049","1183","z","elianto","#f73b6a7A","-1","-1","1","-10","[]","0","3","","","1049","214","7","4","lose","no-go","1","0"
"pit-trial","290","5071758","0.0-220.0","battery-v0.2","","","645.6000000005588","","","15","1049","1183","c","elianto","#3366ff99","-1"," ","0","0","[1495.4000000003725]","1","3","","","1049","215","6","2","win","no-go","0","0"
"pit-trial","291","5076613","0.0-221.0","battery-v0.2","","","-1","","","15","1049","1183","h","elianto","#f73b6a7A","-1","-1","1","0","[]","0","3","","","1049","216","8","4","lose","no-go","0","0"
"pit-trial","292","5080049","0.0-222.0","battery-v0.2","","","579.7999999998137","","","15","1049","1183","c","elianto","#3366ff99","-1"," ","0","0","[1430.2999999998137]","1","3","","","1049","217","6","2","win","no-go","0","0"
"pit-trial","293","5084904","0.0-223.0","battery-v0.2","","","-1","","","15","1049","1183","z","elianto","#f73b6a7A","-1","-1","1","0","[]","0","3","","","1049","218","7","4","lose","no-go","0","0"
"pit-trial","294","5089761","0.0-224.0","battery-v0.2","","","-1","","","15","1049","1183","b","elianto","#f73b6a7A"," ","-1","0","-10","[]","0","3","","","1049","219","5","3","lose","go","0","0"
"pit-trial","295","5094617","0.0-225.0","battery-v0.2","","","-1","","","15","1049","1183","h","elianto","#f73b6a7A","-1","-1","1","-10","[]","0","3","","","1049","220","8","4","lose","no-go","1","0"
"pit-trial","296","5098100","0.0-226.0","battery-v0.2","","","625.7000000001863","","","15","1049","1183","c","elianto","#3366ff99","-1"," ","0","0","[1477.5]","1","3","","","1049","221","6","2","win","no-go","0","0"
"pit-trial","297","5102955","0.0-227.0","battery-v0.2","","","-1","","","15","1049","1183","r","elianto","#f73b6a7A"," ","-1","0","-10","[]","0","3","","","1049","222","10","3","lose","go","0","0"
"pit-trial","298","5107256","0.0-228.0","battery-v0.2","","","1446.7999999998137","","","15","1049","1183","y","elianto","#3366ff99"," "," ","1","+10","[2297]","1","3","","","1049","223","9","1","win","go","0","0"
"pit-trial","299","5112110","0.0-229.0","battery-v0.2","","","-1","","","15","1049","1183","h","elianto","#f73b6a7A","-1","-1","1","0","[]","0","3","","","1049","224","8","4","lose","no-go","0","0"
"pit-trial","300","5115501","0.0-230.0","battery-v0.2","","","536.5999999996275","","","15","1049","1183","y","elianto","#3366ff99"," "," ","1","0","[1386.7000000001863]","1","3","","","1049","225","9","1","win","go","1","0"
"pit-trial","301","5120355","0.0-231.0","battery-v0.2","","","-1","","","15","1049","1183","h","elianto","#f73b6a7A","-1","-1","1","0","[]","0","3","","","1049","226","8","4","lose","no-go","0","0"
"pit-trial","302","5125209","0.0-232.0","battery-v0.2","","","-1","","","15","1049","1183","r","elianto","#f73b6a7A"," ","-1","0","-10","[]","0","3","","","1049","227","10","3","lose","go","0","0"
"pit-trial","303","5128652","0.0-233.0","battery-v0.2","","","588.3999999994412","","","15","1049","1183","c","elianto","#3366ff99","-1"," ","0","0","[1438.5999999996275]","1","3","","","1049","228","6","2","win","no-go","0","0"
"pit-trial","304","5133506","0.0-234.0","battery-v0.2","","","-1","","","15","1049","1183","h","elianto","#f73b6a7A","-1","-1","1","0","[]","0","3","","","1049","229","8","4","lose","no-go","0","0"
"pit-trial","305","5137507","0.0-235.0","battery-v0.2","","","1146.7000000001863","","","15","1049","1183","m","elianto","#3366ff99"," "," ","1","0","[1996.7999999998137]","1","3","","","1049","230","11","1","win","go","1","0"
"pit-trial","306","5142361","0.0-236.0","battery-v0.2","","","-1","","","15","1049","1183","r","elianto","#f73b6a7A"," ","-1","0","-10","[]","0","3","","","1049","231","10","3","lose","go","0","0"
"pit-trial","307","5145797","0.0-237.0","battery-v0.2","","","580.5","","","15","1049","1183","y","elianto","#3366ff99"," "," ","1","+10","[1431]","1","3","","","1049","232","9","1","win","go","0","0"
"pit-trial","308","5150651","0.0-238.0","battery-v0.2","","","-1","","","15","1049","1183","r","elianto","#f73b6a7A"," ","-1","0","-10","[]","0","3","","","1049","233","10","3","lose","go","0","0"
"pit-trial","309","5154198","0.0-239.0","battery-v0.2","","","692.3999999994412","","","15","1049","1183","y","elianto","#3366ff99"," "," ","1","+10","[1542.699999999255]","1","3","","","1049","234","9","1","win","go","0","0"
"pit-trial","310","5157607","0.0-240.0","battery-v0.2","","","554.7000000001863","","","15","1049","1183","m","elianto","#3366ff99"," "," ","1","+10","[1405]","1","3","","","1049","235","11","1","win","go","0","0"
"pit-trial","311","5162463","0.0-241.0","battery-v0.2","","","-1","","","15","1049","1183","h","elianto","#f73b6a7A","-1","-1","1","0","[]","0","3","","","1049","236","8","4","lose","no-go","0","0"
"pit-trial","312","5165908","0.0-242.0","battery-v0.2","","","590.6000000005588","","","15","1049","1183","m","elianto","#3366ff99"," "," ","1","+10","[1440.5999999996275]","1","3","","","1049","237","11","1","win","go","0","0"
"pit-trial","313","5170762","0.0-243.0","battery-v0.2","","","-1","","","15","1049","1183","r","elianto","#f73b6a7A"," ","-1","0","-10","[]","0","3","","","1049","238","10","3","lose","go","0","0"
"pit-trial","314","5174263","0.0-244.0","battery-v0.2","","","646.2000000001863","","","15","1049","1183","y","elianto","#3366ff99"," "," ","1","+10","[1496.2999999998137]","1","3","","","1049","239","9","1","win","go","0","0"
"pit-trial","315","5179118","0.0-245.0","battery-v0.2","","","-1","","","15","1049","1183","h","elianto","#f73b6a7A","-1","-1","1","0","[]","0","3","","","1049","240","8","4","lose","no-go","0","0"
"pit-trial","316","5183973","0.0-246.0","battery-v0.2","","","-1","","","15","1049","1183","h","elianto","#f73b6a7A","-1","-1","1","0","[]","0","3","","","1049","241","8","4","lose","no-go","0","0"
"pit-trial","317","5187502","0.0-247.0","battery-v0.2","","","674.1000000005588","","","15","1049","1183","m","elianto","#3366ff99"," "," ","1","+10","[1524.2000000001863]","1","3","","","1049","242","11","1","win","go","0","0"
"pit-trial","318","5192356","0.0-248.0","battery-v0.2","","","-1","","","15","1049","1183","r","elianto","#f73b6a7A"," ","-1","0","-10","[]","0","3","","","1049","243","10","3","lose","go","0","0"
"pit-trial","319","5195784","0.0-249.0","battery-v0.2","","","573.6000000005588","","","15","1049","1183","y","elianto","#3366ff99"," "," ","1","+10","[1423.5]","1","3","","","1049","244","9","1","win","go","0","0"
"pit-trial","320","5199432","0.0-250.0","battery-v0.2","","","792.5","","","15","1049","1183","y","elianto","#3366ff99"," "," ","1","0","[1642.7000000001863]","1","3","","","1049","245","9","1","win","go","1","0"
"pit-trial","321","5204287","0.0-251.0","battery-v0.2","","","-1","","","15","1049","1183","r","elianto","#f73b6a7A"," ","-1","0","0","[]","0","3","","","1049","246","10","3","lose","go","1","0"
"pit-trial","322","5207759","0.0-252.0","battery-v0.2","","","614.2999999998137","","","15","1049","1183","m","elianto","#3366ff99"," "," ","1","+10","[1466.2999999998137]","1","3","","","1049","247","11","1","win","go","0","0"
"pit-trial","323","5212615","0.0-253.0","battery-v0.2","","","-1","","","15","1049","1183","h","elianto","#f73b6a7A","-1","-1","1","0","[]","0","3","","","1049","248","8","4","lose","no-go","0","0"
"pit-trial","324","5217470","0.0-254.0","battery-v0.2","","","-1","","","15","1049","1183","r","elianto","#f73b6a7A"," ","-1","0","-10","[]","0","3","","","1049","249","10","3","lose","go","0","0"
"pit-trial","325","5222326","0.0-255.0","battery-v0.2","","","-1","","","15","1049","1183","h","elianto","#f73b6a7A","-1","-1","1","-10","[]","0","3","","","1049","250","8","4","lose","no-go","1","0"
"pit-trial","326","5225789","0.0-256.0","battery-v0.2","","","607.7000000001863","","","15","1049","1183","m","elianto","#3366ff99"," "," ","1","+10","[1457.7999999998137]","1","3","","","1049","251","11","1","win","go","0","0"
"pit-trial","327","5229273","0.0-257.0","battery-v0.2","","","628.2000000001863","","","15","1049","1183","y","elianto","#3366ff99"," "," ","1","+10","[1478.5999999996275]","1","3","","","1049","252","9","1","win","go","0","0"
"pit-trial","328","5233032","0.0-258.0","battery-v0.2","","","904.3000000007451","","","15","1049","1183","y","elianto","#3366ff99"," "," ","1","+10","[1754.2999999998137]","1","3","","","1049","253","9","1","win","go","0","0"
"pit-trial","329","5237888","0.0-259.0","battery-v0.2","","","-1","","","15","1049","1183","h","elianto","#f73b6a7A","-1","-1","1","-10","[]","0","3","","","1049","254","8","4","lose","no-go","1","0"
"pit-trial","330","5241370","0.0-260.0","battery-v0.2","","","624.9000000003725","","","15","1049","1183","m","elianto","#3366ff99"," "," ","1","+10","[1477]","1","3","","","1049","255","11","1","win","go","0","0"
"pit-trial","331","5246226","0.0-261.0","battery-v0.2","","","-1","","","15","1049","1183","r","elianto","#f73b6a7A"," ","-1","0","-10","[]","0","3","","","1049","256","10","3","lose","go","0","0"
"pit-trial","332","5249689","0.0-262.0","battery-v0.2","","","608.1000000005588","","","15","1049","1183","y","elianto","#3366ff99"," "," ","1","0","[1458.0999999996275]","1","3","","","1049","257","9","1","win","go","1","0"
"pit-trial","333","5254545","0.0-263.0","battery-v0.2","","","-1","","","15","1049","1183","r","elianto","#f73b6a7A"," ","-1","0","-10","[]","0","3","","","1049","258","10","3","lose","go","0","0"
"pit-trial","334","5259401","0.0-264.0","battery-v0.2","","","-1","","","15","1049","1183","h","elianto","#f73b6a7A","-1","-1","1","0","[]","0","3","","","1049","259","8","4","lose","no-go","0","0"
"pit-trial","335","5262948","0.0-265.0","battery-v0.2","","","691.1000000005588","","","15","1049","1183","m","elianto","#3366ff99"," "," ","1","+10","[1541.2999999998137]","1","3","","","1049","260","11","1","win","go","0","0"
"pit-instructions","336","5280610","0.0-266.0","battery-v0.2","","[{""page_index"":0,""viewing_time"":17658.400000000373}]","17659.599999999627","","","","","","","","","","","","","","","","","","","","","","","","",""
