"trial_type","trial_index","time_elapsed","internal_node_id","task_version","view_history","rt","rune","rune_set","hex","correct","choice","accuracy","outcome","keys","total_keys","block","practice","age","subject","participantId"
"pavlovia","0","46","0.0-0.0","battery-v0.2","","","","","","","","","","","","","","","",""
"pit-instructions","1","3092","0.0-1.0-0.0","battery-v0.2","[{""page_index"":0,""viewing_time"":1161.5},{""page_index"":1,""viewing_time"":183},{""page_index"":2,""viewing_time"":166.39999997615814},{""page_index"":3,""viewing_time"":150.19999992847443},{""page_index"":4,""viewing_time"":166.80000007152557},{""page_index"":5,""viewing_time"":166.69999992847443},{""page_index"":6,""viewing_time"":184.40000009536743},{""page_index"":7,""viewing_time"":165.29999995231628},{""page_index"":8,""viewing_time"":166.89999997615814},{""page_index"":9,""viewing_time"":183.30000007152557},{""page_index"":10,""viewing_time"":166.79999995231628},{""page_index"":11,""viewing_time"":183.20000004768372}]","3044.7999999523163","","","","","","","","","","","","","",""
"pit-trial","2","7597","0.0-1.0-1.0-0.0","battery-v0.2","","-1","&#9776;","elianto","#3366ff99","32","-1","0","0","","0","0","1","9999","3&age=9999&participant_ID=5&order=1","5"
"pit-trial","3","12106","0.0-1.0-1.0-1.0","battery-v0.2","","-1","&#9776;","elianto","#3366ff99","32","-1","0","0","","0","0","1","9999","3&age=9999&participant_ID=5&order=1","5"
"pit-trial","4","16608","0.0-1.0-1.0-2.0","battery-v0.2","","-1","&#9776;","elianto","#3366ff99","32","-1","0","0","","0","0","1","9999","3&age=9999&participant_ID=5&order=1","5"
"pit-trial","5","21115","0.0-1.0-1.0-3.0","battery-v0.2","","-1","&#9776;","elianto","#3366ff99","32","-1","0","+10","","0","0","1","9999","3&age=9999&participant_ID=5&order=1","5"
"pit-trial","6","25626","0.0-1.0-1.0-4.0","battery-v0.2","","-1","&#9776;","elianto","#3366ff99","32","-1","0","0","","0","0","1","9999","3&age=9999&participant_ID=5&order=1","5"
"pit-trial","7","30138","0.0-1.0-1.1-0.1","battery-v0.2","","-1","&#9776;","elianto","#3366ff99","32","-1","0","0","","0","0","1","9999","3&age=9999&participant_ID=5&order=1","5"
"pit-trial","8","34646","0.0-1.0-1.1-1.1","battery-v0.2","","-1","&#9776;","elianto","#3366ff99","32","-1","0","0","","0","0","1","9999","3&age=9999&participant_ID=5&order=1","5"
"pit-trial","9","39148","0.0-1.0-1.1-2.1","battery-v0.2","","-1","&#9776;","elianto","#3366ff99","32","-1","0","0","","0","0","1","9999","3&age=9999&participant_ID=5&order=1","5"
"pit-trial","10","43650","0.0-1.0-1.1-3.1","battery-v0.2","","-1","&#9776;","elianto","#3366ff99","32","-1","0","+10","","0","0","1","9999","3&age=9999&participant_ID=5&order=1","5"
"pit-trial","11","48152","0.0-1.0-1.1-4.1","battery-v0.2","","-1","&#9776;","elianto","#3366ff99","32","-1","0","0","","0","0","1","9999","3&age=9999&participant_ID=5&order=1","5"
"pit-trial","12","52654","0.0-1.0-1.2-0.2","battery-v0.2","","-1","&#9776;","elianto","#3366ff99","32","-1","0","0","","0","0","1","9999","3&age=9999&participant_ID=5&order=1","5"
"pit-trial","13","57161","0.0-1.0-1.2-1.2","battery-v0.2","","-1","&#9776;","elianto","#3366ff99","32","-1","0","0","","0","0","1","9999","3&age=9999&participant_ID=5&order=1","5"
"pit-trial","14","61670","0.0-1.0-1.2-2.2","battery-v0.2","","-1","&#9776;","elianto","#3366ff99","32","-1","0","0","","0","0","1","9999","3&age=9999&participant_ID=5&order=1","5"
"pit-trial","15","66174","0.0-1.0-1.2-3.2","battery-v0.2","","-1","&#9776;","elianto","#3366ff99","32","-1","0","+10","","0","0","1","9999","3&age=9999&participant_ID=5&order=1","5"
"pit-trial","16","70680","0.0-1.0-1.2-4.2","battery-v0.2","","-1","&#9776;","elianto","#3366ff99","32","-1","0","0","","0","0","1","9999","3&age=9999&participant_ID=5&order=1","5"
"pit-trial","17","75190","0.0-1.0-1.3-0.3","battery-v0.2","","-1","&#9776;","elianto","#3366ff99","32","-1","0","0","","0","0","1","9999","3&age=9999&participant_ID=5&order=1","5"
"pit-trial","18","79691","0.0-1.0-1.3-1.3","battery-v0.2","","-1","&#9776;","elianto","#3366ff99","32","-1","0","0","","0","0","1","9999","3&age=9999&participant_ID=5&order=1","5"
"pit-trial","19","84192","0.0-1.0-1.3-2.3","battery-v0.2","","-1","&#9776;","elianto","#3366ff99","32","-1","0","0","","0","0","1","9999","3&age=9999&participant_ID=5&order=1","5"
"pit-trial","20","88695","0.0-1.0-1.3-3.3","battery-v0.2","","-1","&#9776;","elianto","#3366ff99","32","-1","0","+10","","0","0","1","9999","3&age=9999&participant_ID=5&order=1","5"
"pit-trial","21","93203","0.0-1.0-1.3-4.3","battery-v0.2","","-1","&#9776;","elianto","#3366ff99","32","-1","0","0","","0","0","1","9999","3&age=9999&participant_ID=5&order=1","5"
"pit-trial","22","97705","0.0-1.0-1.4-0.4","battery-v0.2","","-1","&#9776;","elianto","#3366ff99","32","-1","0","0","","0","0","1","9999","3&age=9999&participant_ID=5&order=1","5"
"pit-trial","23","102214","0.0-1.0-1.4-1.4","battery-v0.2","","-1","&#9776;","elianto","#3366ff99","32","-1","0","0","","0","0","1","9999","3&age=9999&participant_ID=5&order=1","5"
"pit-trial","24","106719","0.0-1.0-1.4-2.4","battery-v0.2","","-1","&#9776;","elianto","#3366ff99","32","-1","0","0","","0","0","1","9999","3&age=9999&participant_ID=5&order=1","5"
"pit-trial","25","111226","0.0-1.0-1.4-3.4","battery-v0.2","","-1","&#9776;","elianto","#3366ff99","32","-1","0","+10","","0","0","1","9999","3&age=9999&participant_ID=5&order=1","5"
"pit-trial","26","115731","0.0-1.0-1.4-4.4","battery-v0.2","","-1","&#9776;","elianto","#3366ff99","32","-1","0","0","","0","0","1","9999","3&age=9999&participant_ID=5&order=1","5"
"pit-trial","27","120240","0.0-1.0-1.5-0.5","battery-v0.2","","-1","&#9776;","elianto","#3366ff99","32","-1","0","0","","0","0","1","9999","3&age=9999&participant_ID=5&order=1","5"
"pit-trial","28","124746","0.0-1.0-1.5-1.5","battery-v0.2","","-1","&#9776;","elianto","#3366ff99","32","-1","0","0","","0","0","1","9999","3&age=9999&participant_ID=5&order=1","5"
"pit-trial","29","129251","0.0-1.0-1.5-2.5","battery-v0.2","","-1","&#9776;","elianto","#3366ff99","32","-1","0","0","","0","0","1","9999","3&age=9999&participant_ID=5&order=1","5"
"pit-trial","30","133758","0.0-1.0-1.5-3.5","battery-v0.2","","-1","&#9776;","elianto","#3366ff99","32","-1","0","+10","","0","0","1","9999","3&age=9999&participant_ID=5&order=1","5"
"pit-trial","31","138266","0.0-1.0-1.5-4.5","battery-v0.2","","-1","&#9776;","elianto","#3366ff99","32","-1","0","0","","0","0","1","9999","3&age=9999&participant_ID=5&order=1","5"
"pit-trial","32","142774","0.0-1.0-1.6-0.6","battery-v0.2","","-1","&#9776;","elianto","#3366ff99","32","-1","0","0","","0","0","1","9999","3&age=9999&participant_ID=5&order=1","5"
"pit-trial","33","147283","0.0-1.0-1.6-1.6","battery-v0.2","","-1","&#9776;","elianto","#3366ff99","32","-1","0","0","","0","0","1","9999","3&age=9999&participant_ID=5&order=1","5"
"pit-trial","34","151791","0.0-1.0-1.6-2.6","battery-v0.2","","-1","&#9776;","elianto","#3366ff99","32","-1","0","0","","0","0","1","9999","3&age=9999&participant_ID=5&order=1","5"
"pit-trial","35","156294","0.0-1.0-1.6-3.6","battery-v0.2","","-1","&#9776;","elianto","#3366ff99","32","-1","0","+10","","0","0","1","9999","3&age=9999&participant_ID=5&order=1","5"
"pit-trial","36","160798","0.0-1.0-1.6-4.6","battery-v0.2","","-1","&#9776;","elianto","#3366ff99","32","-1","0","0","","0","0","1","9999","3&age=9999&participant_ID=5&order=1","5"
