"trial_type","trial_index","time_elapsed","internal_node_id","task_version","subject_id","interactions","blur_events","focus_events","fullscreenenter_events","fullscreenexit_events","success","view_history","rt","responses","num_errors","age","subject","participantId","rune","rune_set","hex","correct","choice","accuracy","outcome","keys","total_keys","block","practice","value","sub","trial","stimulus","robot","valence","action","sham","browser_interactions"
"pavlovia","0","29","0.0-0.0","battery-v0.2","","""event"",""trial"",""time""
""fullscreenenter"",""1"",""2269""
","
","
","""event"",""trial"",""time""
""fullscreenenter"",""1"",""2269""
","
","","","","","","","","","","","","","","","","","","","","","","","","","","","",""
"fullscreen","1","3238","0.0-1.0","battery-v0.2","","""event"",""trial"",""time""
""fullscreenenter"",""1"",""2269""
","
","
","""event"",""trial"",""time""
""fullscreenenter"",""1"",""2269""
","
","true","","","","","","","","","","","","","","","","","","","","","","","","","","",""
"pit-instructions","2","13484","0.0-2.0-0.0","battery-v0.2","","""event"",""trial"",""time""
""fullscreenenter"",""1"",""2269""
","
","
","""event"",""trial"",""time""
""fullscreenenter"",""1"",""2269""
","
","","[{""page_index"":0,""viewing_time"":10236.800000000047}]","10237.800000000047","","","","","","","","","","","","","","","","","","","","","","","","",""
"pit-comprehension","3","23043","0.0-2.0-1.0-0.0","battery-v0.2","","""event"",""trial"",""time""
""fullscreenenter"",""1"",""2269""
","
","
","""event"",""trial"",""time""
""fullscreenenter"",""1"",""2269""
","
","","","9547.5","[""shark""]","0","11","1224","285","","","","","","","","","","","","","","","","","","","",""
"pit-instructions","4","26915","0.0-2.0-1.0-1.0","battery-v0.2","","""event"",""trial"",""time""
""fullscreenenter"",""1"",""2269""
","
","
","""event"",""trial"",""time""
""fullscreenenter"",""1"",""2269""
","
","","[{""page_index"":0,""viewing_time"":3842.5}]","3843.1999999999534","","","","","","","","","","","","","","","","","","","","","","","","",""
"pit-comprehension","5","31911","0.0-2.0-2.0-0.0","battery-v0.2","","""event"",""trial"",""time""
""fullscreenenter"",""1"",""2269""
","
","
","""event"",""trial"",""time""
""fullscreenenter"",""1"",""2269""
","
","","","4984.5","[""tiger""]","0","11","1224","285","","","","","","","","","","","","","","","","","","","",""
"pit-instructions","6","40277","0.0-2.0-2.0-1.0","battery-v0.2","","""event"",""trial"",""time""
""fullscreenenter"",""1"",""2269""
","
","
","""event"",""trial"",""time""
""fullscreenenter"",""1"",""2269""
","
","","[{""page_index"":0,""viewing_time"":8360.29999999993}]","8361.099999999977","","","","","","","","","","","","","","","","","","","","","","","","",""
"pit-instructions","7","154459","0.0-2.0-3.0","battery-v0.2","","""event"",""trial"",""time""
""fullscreenenter"",""1"",""2269""
","
","
","""event"",""trial"",""time""
""fullscreenenter"",""1"",""2269""
","
","","[{""page_index"":0,""viewing_time"":9955.599999999977},{""page_index"":1,""viewing_time"":5559},{""page_index"":2,""viewing_time"":7389.800000000047},{""page_index"":3,""viewing_time"":5080.099999999977},{""page_index"":4,""viewing_time"":5530.599999999977},{""page_index"":5,""viewing_time"":5479.599999999977},{""page_index"":6,""viewing_time"":8000.300000000047},{""page_index"":7,""viewing_time"":6629.79999999993},{""page_index"":8,""viewing_time"":6449.600000000093},{""page_index"":9,""viewing_time"":9510.099999999977},{""page_index"":10,""viewing_time"":12979.900000000023},{""page_index"":11,""viewing_time"":19420.29999999993},{""page_index"":12,""viewing_time"":6716.5},{""page_index"":13,""viewing_time"":5470}]","114172.29999999993","","","","","","","","","","","","","","","","","","","","","","","","",""
"pit-trial","8","158459","0.0-2.0-4.0-0.0","battery-v0.2","","""event"",""trial"",""time""
""fullscreenenter"",""1"",""2269""
","
","
","""event"",""trial"",""time""
""fullscreenenter"",""1"",""2269""
","
","","","1134.5","","","11","1224","285","&#9784;","elianto","#FFFFF080"," "," ","1","&#10004","[1987.1000000000931,3525.70000000007]","2","0","0","","","","","","","","",""
"pit-trial","9","162219","0.0-2.0-4.1-0.1","battery-v0.2","","""event"",""trial"",""time""
""fullscreenenter"",""1"",""2269""
","
","
","""event"",""trial"",""time""
""fullscreenenter"",""1"",""2269""
","
","","","883.5999999999767","","","11","1224","285","&#9784;","elianto","#FFFFF080"," "," ","1","&#10004","[1734.3000000000466,2573.3000000000466,3608.4000000000233]","3","0","0","","","","","","","","",""
"pit-trial","10","165609","0.0-2.0-4.2-0.2","battery-v0.2","","""event"",""trial"",""time""
""fullscreenenter"",""1"",""2269""
","
","
","""event"",""trial"",""time""
""fullscreenenter"",""1"",""2269""
","
","","","523.1000000000931","","","11","1224","285","&#9784;","elianto","#FFFFF080"," "," ","1","&#10004","[1378.0999999999767,2402.8000000000466,3197.9000000000233]","3","0","0","","","","","","","","",""
"pit-trial","11","168994","0.0-2.0-4.3-0.3","battery-v0.2","","""event"",""trial"",""time""
""fullscreenenter"",""1"",""2269""
","
","
","""event"",""trial"",""time""
""fullscreenenter"",""1"",""2269""
","
","","","525.8000000000466","","","11","1224","285","&#9784;","elianto","#FFFFF080"," "," ","1","&#10004","[1376.8999999999069,2098.79999999993,2980.899999999907]","3","0","0","","","","","","","","",""
"pit-trial","12","172469","0.0-2.0-4.4-0.4","battery-v0.2","","""event"",""trial"",""time""
""fullscreenenter"",""1"",""2269""
","
","
","""event"",""trial"",""time""
""fullscreenenter"",""1"",""2269""
","
","","","611.8999999999069","","","11","1224","285","&#9784;","elianto","#FFFFF080"," "," ","1","&#10004","[180.70000000006985,1462.5,1701.4000000000233,2854]","4","0","0","","","","","","","","",""
"pit-instructions","13","192877","0.0-2.0-5.0","battery-v0.2","","""event"",""trial"",""time""
""fullscreenenter"",""1"",""2269""
","
","
","""event"",""trial"",""time""
""fullscreenenter"",""1"",""2269""
","
","","[{""page_index"":0,""viewing_time"":4695.100000000093},{""page_index"":1,""viewing_time"":5249.29999999993},{""page_index"":2,""viewing_time"":5060.400000000023},{""page_index"":3,""viewing_time"":5399.699999999953}]","20405.300000000047","","","","","","","","","","","","","","","","","","","","","","","","",""
"pit-trial","14","197745","0.0-2.0-6.0-0.0","battery-v0.2","","""event"",""trial"",""time""
""fullscreenenter"",""1"",""2269""
","
","
","""event"",""trial"",""time""
""fullscreenenter"",""1"",""2269""
","
","","","-1","","","11","1224","285","&#9854;","elianto","#FFFFF080","-1","-1","1","&#10004","[]","0","0","1","","","","","","","","",""
"pit-trial","15","202636","0.0-2.0-6.1-0.1","battery-v0.2","","""event"",""trial"",""time""
""fullscreenenter"",""1"",""2269""
","
","
","""event"",""trial"",""time""
""fullscreenenter"",""1"",""2269""
","
","","","-1","","","11","1224","285","&#9854;","elianto","#FFFFF080","-1","-1","1","&#10004","[]","0","0","1","","","","","","","","",""
"pit-trial","16","207515","0.0-2.0-6.2-0.2","battery-v0.2","","""event"",""trial"",""time""
""fullscreenenter"",""1"",""2269""
","
","
","""event"",""trial"",""time""
""fullscreenenter"",""1"",""2269""
","
","","","-1","","","11","1224","285","&#9854;","elianto","#FFFFF080","-1","-1","1","&#10004","[]","0","0","1","","","","","","","","",""
"pit-trial","17","212396","0.0-2.0-6.3-0.3","battery-v0.2","","""event"",""trial"",""time""
""fullscreenenter"",""1"",""2269""
","
","
","""event"",""trial"",""time""
""fullscreenenter"",""1"",""2269""
","
","","","-1","","","11","1224","285","&#9854;","elianto","#FFFFF080","-1","-1","1","&#10004","[]","0","0","1","","","","","","","","",""
"pit-trial","18","217285","0.0-2.0-6.4-0.4","battery-v0.2","","""event"",""trial"",""time""
""fullscreenenter"",""1"",""2269""
","
","
","""event"",""trial"",""time""
""fullscreenenter"",""1"",""2269""
","
","","","-1","","","11","1224","285","&#9854;","elianto","#FFFFF080","-1","-1","1","&#10004","[]","0","0","1","","","","","","","","",""
"pit-instructions","19","351585","0.0-2.0-7.0","battery-v0.2","","""event"",""trial"",""time""
""fullscreenenter"",""1"",""2269""
","
","
","""event"",""trial"",""time""
""fullscreenenter"",""1"",""2269""
","
","","[{""page_index"":0,""viewing_time"":8565.099999999977},{""page_index"":1,""viewing_time"":6719.70000000007},{""page_index"":2,""viewing_time"":6180.5},{""page_index"":3,""viewing_time"":7249.29999999993},{""page_index"":4,""viewing_time"":5082.20000000007},{""page_index"":5,""viewing_time"":6048},{""page_index"":6,""viewing_time"":5783.5},{""page_index"":7,""viewing_time"":7318.099999999977},{""page_index"":8,""viewing_time"":6378.400000000023},{""page_index"":9,""viewing_time"":6625.899999999907},{""page_index"":10,""viewing_time"":6493.600000000093},{""page_index"":11,""viewing_time"":4290.099999999977},{""page_index"":12,""viewing_time"":9249.79999999993},{""page_index"":13,""viewing_time"":15590.300000000047},{""page_index"":14,""viewing_time"":13967.699999999953},{""page_index"":15,""viewing_time"":6164.400000000023},{""page_index"":16,""viewing_time"":6417.599999999977},{""page_index"":17,""viewing_time"":6163.600000000093}]","134289","","","","","","","","","","","","","","","","","","","","","","","","",""
"pit-trial","20","355949","0.0-2.0-8.0-0.0","battery-v0.2","","""event"",""trial"",""time""
""fullscreenenter"",""1"",""2269""
","
","
","""event"",""trial"",""time""
""fullscreenenter"",""1"",""2269""
","
","","","1495.9000000001397","","","11","1224","285","&#9776;","elianto","#3366ff99"," "," ","1","+10","[2354.3000000000466,4140.199999999953]","2","0","1","","","","","","","","",""
"pit-trial","21","360109","0.0-2.0-8.0-1.0","battery-v0.2","","""event"",""trial"",""time""
""fullscreenenter"",""1"",""2269""
","
","
","""event"",""trial"",""time""
""fullscreenenter"",""1"",""2269""
","
","","","1290.5","","","11","1224","285","&#9776;","elianto","#3366ff99"," "," ","1","+10","[2141.7999999998137,2681.899999999907]","2","0","1","","","","","","","","",""
"pit-trial","22","363582","0.0-2.0-8.0-2.0","battery-v0.2","","""event"",""trial"",""time""
""fullscreenenter"",""1"",""2269""
","
","
","""event"",""trial"",""time""
""fullscreenenter"",""1"",""2269""
","
","","","608.4000000001397","","","11","1224","285","&#9776;","elianto","#3366ff99"," "," ","1","+10","[1459,1994.8999999999069]","2","0","1","","","","","","","","",""
"pit-trial","23","367089","0.0-2.0-8.0-3.0","battery-v0.2","","""event"",""trial"",""time""
""fullscreenenter"",""1"",""2269""
","
","
","""event"",""trial"",""time""
""fullscreenenter"",""1"",""2269""
","
","","","649.8000000000466","","","11","1224","285","&#9776;","elianto","#3366ff99"," "," ","1","0","[1500.0999999998603,2964.899999999907]","2","0","1","","","","","","","","",""
"pit-trial","24","370959","0.0-2.0-8.0-4.0","battery-v0.2","","""event"",""trial"",""time""
""fullscreenenter"",""1"",""2269""
","
","
","""event"",""trial"",""time""
""fullscreenenter"",""1"",""2269""
","
","","","1005.8999999999069","","","11","1224","285","&#9776;","elianto","#3366ff99"," "," ","1","+10","[1858.0999999998603,2544.1999999999534]","2","0","1","","","","","","","","",""
"call-function","25","370964","0.0-2.0-9.0","battery-v0.2","","""event"",""trial"",""time""
""fullscreenenter"",""1"",""2269""
""fullscreenexit"",""26"",""458644""
""blur"",""26"",""460873""
""focus"",""26"",""489765""
","""event"",""trial"",""time""
""blur"",""26"",""460873""
","""event"",""trial"",""time""
""focus"",""26"",""489765""
","""event"",""trial"",""time""
""fullscreenenter"",""1"",""2269""
","""event"",""trial"",""time""
""fullscreenexit"",""26"",""458644""
","","","","","","","","","","","","","","","","","","","","","","","","","","","",""
"pit-instructions","26","508894","0.0-2.0-10.0","battery-v0.2","","""event"",""trial"",""time""
""fullscreenenter"",""1"",""2269""
""fullscreenexit"",""26"",""458644""
""blur"",""26"",""460873""
""focus"",""26"",""489765""
","""event"",""trial"",""time""
""blur"",""26"",""460873""
","""event"",""trial"",""time""
""focus"",""26"",""489765""
","""event"",""trial"",""time""
""fullscreenenter"",""1"",""2269""
","""event"",""trial"",""time""
""fullscreenexit"",""26"",""458644""
","","[{""page_index"":0,""viewing_time"":6586},{""page_index"":1,""viewing_time"":7918.699999999953},{""page_index"":2,""viewing_time"":12481.200000000186},{""page_index"":3,""viewing_time"":56057.69999999995},{""page_index"":4,""viewing_time"":54884.89999999991}]","137929.5","","","","","","","","","","","","","","","","","","","","","","","","",""
"pit-trial","27","513751","0.0-2.0-11.0-0.0","battery-v0.2","","""event"",""trial"",""time""
""fullscreenenter"",""1"",""2269""
""fullscreenexit"",""26"",""458644""
""blur"",""26"",""460873""
""focus"",""26"",""489765""
","""event"",""trial"",""time""
""blur"",""26"",""460873""
","""event"",""trial"",""time""
""focus"",""26"",""489765""
","""event"",""trial"",""time""
""fullscreenenter"",""1"",""2269""
","""event"",""trial"",""time""
""fullscreenexit"",""26"",""458644""
","","","-1","","","11","1224","285","&#9761;","elianto","#3366ff99","-1","-1","1","+10","[3023.5999999998603]","1","0","2","","","","","","","","",""
"pit-trial","28","517743","0.0-2.0-11.0-1.0","battery-v0.2","","""event"",""trial"",""time""
""fullscreenenter"",""1"",""2269""
""fullscreenexit"",""26"",""458644""
""blur"",""26"",""460873""
""focus"",""26"",""489765""
","""event"",""trial"",""time""
""blur"",""26"",""460873""
","""event"",""trial"",""time""
""focus"",""26"",""489765""
","""event"",""trial"",""time""
""fullscreenenter"",""1"",""2269""
","""event"",""trial"",""time""
""fullscreenexit"",""26"",""458644""
","","","1137.3999999999069","","","11","1224","285","&#9761;","elianto","#3366ff99","-1"," ","0","0","[1987.7999999998137,3726.2999999998137,3936.399999999907]","3","0","2","","","","","","","","",""
"pit-trial","29","521108","0.0-2.0-11.0-2.0","battery-v0.2","","""event"",""trial"",""time""
""fullscreenenter"",""1"",""2269""
""fullscreenexit"",""26"",""458644""
""blur"",""26"",""460873""
""focus"",""26"",""489765""
","""event"",""trial"",""time""
""blur"",""26"",""460873""
","""event"",""trial"",""time""
""focus"",""26"",""489765""
","""event"",""trial"",""time""
""fullscreenenter"",""1"",""2269""
","""event"",""trial"",""time""
""fullscreenexit"",""26"",""458644""
","","","508.5999999998603","","","11","1224","285","&#9761;","elianto","#3366ff99","-1"," ","0","0","[149.19999999995343,403,1359.8000000000466,1825.3000000000466,2426.3000000000466,2598.6999999999534,2754.899999999907,2915.399999999907]","8","0","2","","","","","","","","",""
"pit-trial","30","525965","0.0-2.0-11.0-3.0","battery-v0.2","","""event"",""trial"",""time""
""fullscreenenter"",""1"",""2269""
""fullscreenexit"",""26"",""458644""
""blur"",""26"",""460873""
""focus"",""26"",""489765""
","""event"",""trial"",""time""
""blur"",""26"",""460873""
","""event"",""trial"",""time""
""focus"",""26"",""489765""
","""event"",""trial"",""time""
""fullscreenenter"",""1"",""2269""
","""event"",""trial"",""time""
""fullscreenexit"",""26"",""458644""
","","","-1","","","11","1224","285","&#9761;","elianto","#3366ff99","-1","-1","1","0","[180.19999999995343]","1","0","2","","","","","","","","",""
"pit-trial","31","529540","0.0-2.0-11.0-4.0","battery-v0.2","","""event"",""trial"",""time""
""fullscreenenter"",""1"",""2269""
""fullscreenexit"",""26"",""458644""
""blur"",""26"",""460873""
""focus"",""26"",""489765""
","""event"",""trial"",""time""
""blur"",""26"",""460873""
","""event"",""trial"",""time""
""focus"",""26"",""489765""
","""event"",""trial"",""time""
""fullscreenenter"",""1"",""2269""
","""event"",""trial"",""time""
""fullscreenexit"",""26"",""458644""
","","","718.8000000000466","","","11","1224","285","&#9761;","elianto","#3366ff99","-1"," ","0","0","[1570.3000000000466,2222]","2","0","2","","","","","","","","",""
"pit-trial","32","532884","0.0-2.0-11.1-0.1","battery-v0.2","","""event"",""trial"",""time""
""fullscreenenter"",""1"",""2269""
""fullscreenexit"",""26"",""458644""
""blur"",""26"",""460873""
""focus"",""26"",""489765""
","""event"",""trial"",""time""
""blur"",""26"",""460873""
","""event"",""trial"",""time""
""focus"",""26"",""489765""
","""event"",""trial"",""time""
""fullscreenenter"",""1"",""2269""
","""event"",""trial"",""time""
""fullscreenexit"",""26"",""458644""
","","","485.20000000018626","","","11","1224","285","&#9761;","elianto","#3366ff99","-1"," ","0","0","[1336,1884.8999999999069]","2","0","2","","","","","","","","",""
"pit-trial","33","536956","0.0-2.0-11.1-1.1","battery-v0.2","","""event"",""trial"",""time""
""fullscreenenter"",""1"",""2269""
""fullscreenexit"",""26"",""458644""
""blur"",""26"",""460873""
""focus"",""26"",""489765""
","""event"",""trial"",""time""
""blur"",""26"",""460873""
","""event"",""trial"",""time""
""focus"",""26"",""489765""
","""event"",""trial"",""time""
""fullscreenenter"",""1"",""2269""
","""event"",""trial"",""time""
""fullscreenexit"",""26"",""458644""
","","","1213.6999999999534","","","11","1224","285","&#9761;","elianto","#3366ff99","-1"," ","0","0","[2068.1999999999534]","1","0","2","","","","","","","","",""
"pit-trial","34","540081","0.0-2.0-11.1-2.1","battery-v0.2","","""event"",""trial"",""time""
""fullscreenenter"",""1"",""2269""
""fullscreenexit"",""26"",""458644""
""blur"",""26"",""460873""
""focus"",""26"",""489765""
","""event"",""trial"",""time""
""blur"",""26"",""460873""
","""event"",""trial"",""time""
""focus"",""26"",""489765""
","""event"",""trial"",""time""
""fullscreenenter"",""1"",""2269""
","""event"",""trial"",""time""
""fullscreenexit"",""26"",""458644""
","","","268.69999999995343","","","11","1224","285","&#9761;","elianto","#3366ff99","-1"," ","0","0","[722.3999999999069,1119.3000000000466]","2","0","2","","","","","","","","",""
"pit-trial","35","544938","0.0-2.0-11.1-3.1","battery-v0.2","","""event"",""trial"",""time""
""fullscreenenter"",""1"",""2269""
""fullscreenexit"",""26"",""458644""
""blur"",""26"",""460873""
""focus"",""26"",""489765""
","""event"",""trial"",""time""
""blur"",""26"",""460873""
","""event"",""trial"",""time""
""focus"",""26"",""489765""
","""event"",""trial"",""time""
""fullscreenenter"",""1"",""2269""
","""event"",""trial"",""time""
""fullscreenexit"",""26"",""458644""
","","","-1","","","11","1224","285","&#9761;","elianto","#3366ff99","-1","-1","1","0","[]","0","0","2","","","","","","","","",""
"pit-trial","36","549793","0.0-2.0-11.1-4.1","battery-v0.2","","""event"",""trial"",""time""
""fullscreenenter"",""1"",""2269""
""fullscreenexit"",""26"",""458644""
""blur"",""26"",""460873""
""focus"",""26"",""489765""
""blur"",""37"",""552257""
""focus"",""37"",""553308""
""blur"",""37"",""554685""
","""event"",""trial"",""time""
""blur"",""26"",""460873""
""blur"",""37"",""552257""
""blur"",""37"",""554685""
","""event"",""trial"",""time""
""focus"",""26"",""489765""
""focus"",""37"",""553308""
","""event"",""trial"",""time""
""fullscreenenter"",""1"",""2269""
","""event"",""trial"",""time""
""fullscreenexit"",""26"",""458644""
","","","-1","","","11","1224","285","&#9761;","elianto","#3366ff99","-1","-1","1","+10","[]","0","0","2","","","","","","","","",""
"pit-trial","37","555955","0.0-2.0-11.2-0.2","battery-v0.2","","""event"",""trial"",""time""
""fullscreenenter"",""1"",""2269""
""fullscreenexit"",""26"",""458644""
""blur"",""26"",""460873""
""focus"",""26"",""489765""
""blur"",""37"",""552257""
""focus"",""37"",""553308""
""blur"",""37"",""554685""
""focus"",""38"",""556511""
""blur"",""38"",""558192""
","""event"",""trial"",""time""
""blur"",""26"",""460873""
""blur"",""37"",""552257""
""blur"",""37"",""554685""
""blur"",""38"",""558192""
","""event"",""trial"",""time""
""focus"",""26"",""489765""
""focus"",""37"",""553308""
""focus"",""38"",""556511""
","""event"",""trial"",""time""
""fullscreenenter"",""1"",""2269""
","""event"",""trial"",""time""
""fullscreenexit"",""26"",""458644""
","","","-1","","","11","1224","285","&#9761;","elianto","#3366ff99","-1","-1","1","+10","[]","0","0","2","","","","","","","","",""
"pit-trial","38","561434","0.0-2.0-11.2-1.2","battery-v0.2","","""event"",""trial"",""time""
""fullscreenenter"",""1"",""2269""
""fullscreenexit"",""26"",""458644""
""blur"",""26"",""460873""
""focus"",""26"",""489765""
""blur"",""37"",""552257""
""focus"",""37"",""553308""
""blur"",""37"",""554685""
""focus"",""38"",""556511""
""blur"",""38"",""558192""
""focus"",""39"",""561443""
""blur"",""39"",""562865""
","""event"",""trial"",""time""
""blur"",""26"",""460873""
""blur"",""37"",""552257""
""blur"",""37"",""554685""
""blur"",""38"",""558192""
""blur"",""39"",""562865""
","""event"",""trial"",""time""
""focus"",""26"",""489765""
""focus"",""37"",""553308""
""focus"",""38"",""556511""
""focus"",""39"",""561443""
","""event"",""trial"",""time""
""fullscreenenter"",""1"",""2269""
","""event"",""trial"",""time""
""fullscreenexit"",""26"",""458644""
","","","-1","","","11","1224","285","&#9761;","elianto","#3366ff99","-1","-1","1","+10","[]","0","0","2","","","","","","","","",""
"pit-trial","39","567954","0.0-2.0-11.2-2.2","battery-v0.2","","""event"",""trial"",""time""
""fullscreenenter"",""1"",""2269""
""fullscreenexit"",""26"",""458644""
""blur"",""26"",""460873""
""focus"",""26"",""489765""
""blur"",""37"",""552257""
""focus"",""37"",""553308""
""blur"",""37"",""554685""
""focus"",""38"",""556511""
""blur"",""38"",""558192""
""focus"",""39"",""561443""
""blur"",""39"",""562865""
","""event"",""trial"",""time""
""blur"",""26"",""460873""
""blur"",""37"",""552257""
""blur"",""37"",""554685""
""blur"",""38"",""558192""
""blur"",""39"",""562865""
","""event"",""trial"",""time""
""focus"",""26"",""489765""
""focus"",""37"",""553308""
""focus"",""38"",""556511""
""focus"",""39"",""561443""
","""event"",""trial"",""time""
""fullscreenenter"",""1"",""2269""
","""event"",""trial"",""time""
""fullscreenexit"",""26"",""458644""
","","","-1","","","11","1224","285","&#9761;","elianto","#3366ff99","-1","-1","1","+10","[]","0","0","2","","","","","","","","",""
"pit-trial","40","573811","0.0-2.0-11.2-3.2","battery-v0.2","","""event"",""trial"",""time""
""fullscreenenter"",""1"",""2269""
""fullscreenexit"",""26"",""458644""
""blur"",""26"",""460873""
""focus"",""26"",""489765""
""blur"",""37"",""552257""
""focus"",""37"",""553308""
""blur"",""37"",""554685""
""focus"",""38"",""556511""
""blur"",""38"",""558192""
""focus"",""39"",""561443""
""blur"",""39"",""562865""
""focus"",""41"",""573813""
","""event"",""trial"",""time""
""blur"",""26"",""460873""
""blur"",""37"",""552257""
""blur"",""37"",""554685""
""blur"",""38"",""558192""
""blur"",""39"",""562865""
","""event"",""trial"",""time""
""focus"",""26"",""489765""
""focus"",""37"",""553308""
""focus"",""38"",""556511""
""focus"",""39"",""561443""
""focus"",""41"",""573813""
","""event"",""trial"",""time""
""fullscreenenter"",""1"",""2269""
","""event"",""trial"",""time""
""fullscreenexit"",""26"",""458644""
","","","-1","","","11","1224","285","&#9761;","elianto","#3366ff99","-1","-1","1","0","[]","0","0","2","","","","","","","","",""
"pit-trial","41","578678","0.0-2.0-11.2-4.2","battery-v0.2","","""event"",""trial"",""time""
""fullscreenenter"",""1"",""2269""
""fullscreenexit"",""26"",""458644""
""blur"",""26"",""460873""
""focus"",""26"",""489765""
""blur"",""37"",""552257""
""focus"",""37"",""553308""
""blur"",""37"",""554685""
""focus"",""38"",""556511""
""blur"",""38"",""558192""
""focus"",""39"",""561443""
""blur"",""39"",""562865""
""focus"",""41"",""573813""
","""event"",""trial"",""time""
""blur"",""26"",""460873""
""blur"",""37"",""552257""
""blur"",""37"",""554685""
""blur"",""38"",""558192""
""blur"",""39"",""562865""
","""event"",""trial"",""time""
""focus"",""26"",""489765""
""focus"",""37"",""553308""
""focus"",""38"",""556511""
""focus"",""39"",""561443""
""focus"",""41"",""573813""
","""event"",""trial"",""time""
""fullscreenenter"",""1"",""2269""
","""event"",""trial"",""time""
""fullscreenexit"",""26"",""458644""
","","","-1","","","11","1224","285","&#9761;","elianto","#3366ff99","-1","-1","1","+10","[]","0","0","2","","","","","","","","",""
"call-function","42","578682","0.0-2.0-12.0","battery-v0.2","","""event"",""trial"",""time""
""fullscreenenter"",""1"",""2269""
""fullscreenexit"",""26"",""458644""
""blur"",""26"",""460873""
""focus"",""26"",""489765""
""blur"",""37"",""552257""
""focus"",""37"",""553308""
""blur"",""37"",""554685""
""focus"",""38"",""556511""
""blur"",""38"",""558192""
""focus"",""39"",""561443""
""blur"",""39"",""562865""
""focus"",""41"",""573813""
","""event"",""trial"",""time""
""blur"",""26"",""460873""
""blur"",""37"",""552257""
""blur"",""37"",""554685""
""blur"",""38"",""558192""
""blur"",""39"",""562865""
","""event"",""trial"",""time""
""focus"",""26"",""489765""
""focus"",""37"",""553308""
""focus"",""38"",""556511""
""focus"",""39"",""561443""
""focus"",""41"",""573813""
","""event"",""trial"",""time""
""fullscreenenter"",""1"",""2269""
","""event"",""trial"",""time""
""fullscreenexit"",""26"",""458644""
","","","","","","","","","","","","","","","","","","","","","","","","","","","",""
"pit-instructions","43","633679","0.0-2.0-13.0","battery-v0.2","","""event"",""trial"",""time""
""fullscreenenter"",""1"",""2269""
""fullscreenexit"",""26"",""458644""
""blur"",""26"",""460873""
""focus"",""26"",""489765""
""blur"",""37"",""552257""
""focus"",""37"",""553308""
""blur"",""37"",""554685""
""focus"",""38"",""556511""
""blur"",""38"",""558192""
""focus"",""39"",""561443""
""blur"",""39"",""562865""
""focus"",""41"",""573813""
","""event"",""trial"",""time""
""blur"",""26"",""460873""
""blur"",""37"",""552257""
""blur"",""37"",""554685""
""blur"",""38"",""558192""
""blur"",""39"",""562865""
","""event"",""trial"",""time""
""focus"",""26"",""489765""
""focus"",""37"",""553308""
""focus"",""38"",""556511""
""focus"",""39"",""561443""
""focus"",""41"",""573813""
","""event"",""trial"",""time""
""fullscreenenter"",""1"",""2269""
","""event"",""trial"",""time""
""fullscreenexit"",""26"",""458644""
","","[{""page_index"":0,""viewing_time"":10834.399999999907},{""page_index"":1,""viewing_time"":10389.600000000093},{""page_index"":2,""viewing_time"":3420.399999999907},{""page_index"":3,""viewing_time"":23613.699999999953},{""page_index"":4,""viewing_time"":6736.300000000047}]","54995.30000000005","","","","","","","","","","","","","","","","","","","","","","","","",""
"pit-trial","44","637267","0.0-2.0-14.0-0.0","battery-v0.2","","""event"",""trial"",""time""
""fullscreenenter"",""1"",""2269""
""fullscreenexit"",""26"",""458644""
""blur"",""26"",""460873""
""focus"",""26"",""489765""
""blur"",""37"",""552257""
""focus"",""37"",""553308""
""blur"",""37"",""554685""
""focus"",""38"",""556511""
""blur"",""38"",""558192""
""focus"",""39"",""561443""
""blur"",""39"",""562865""
""focus"",""41"",""573813""
","""event"",""trial"",""time""
""blur"",""26"",""460873""
""blur"",""37"",""552257""
""blur"",""37"",""554685""
""blur"",""38"",""558192""
""blur"",""39"",""562865""
","""event"",""trial"",""time""
""focus"",""26"",""489765""
""focus"",""37"",""553308""
""focus"",""38"",""556511""
""focus"",""39"",""561443""
""focus"",""41"",""573813""
","""event"",""trial"",""time""
""fullscreenenter"",""1"",""2269""
","""event"",""trial"",""time""
""fullscreenexit"",""26"",""458644""
","","","726.5999999998603","","","11","1224","285","&#9826;","elianto","#f73b6a7A","-1"," ","0","-10","[1577.2000000001863]","1","0","3","","","","","","","","",""
"pit-trial","45","642148","0.0-2.0-14.0-1.0","battery-v0.2","","""event"",""trial"",""time""
""fullscreenenter"",""1"",""2269""
""fullscreenexit"",""26"",""458644""
""blur"",""26"",""460873""
""focus"",""26"",""489765""
""blur"",""37"",""552257""
""focus"",""37"",""553308""
""blur"",""37"",""554685""
""focus"",""38"",""556511""
""blur"",""38"",""558192""
""focus"",""39"",""561443""
""blur"",""39"",""562865""
""focus"",""41"",""573813""
","""event"",""trial"",""time""
""blur"",""26"",""460873""
""blur"",""37"",""552257""
""blur"",""37"",""554685""
""blur"",""38"",""558192""
""blur"",""39"",""562865""
","""event"",""trial"",""time""
""focus"",""26"",""489765""
""focus"",""37"",""553308""
""focus"",""38"",""556511""
""focus"",""39"",""561443""
""focus"",""41"",""573813""
","""event"",""trial"",""time""
""fullscreenenter"",""1"",""2269""
","""event"",""trial"",""time""
""fullscreenexit"",""26"",""458644""
","","","-1","","","11","1224","285","&#9826;","elianto","#f73b6a7A","-1","-1","1","0","[]","0","0","3","","","","","","","","",""
"pit-trial","46","647024","0.0-2.0-14.0-2.0","battery-v0.2","","""event"",""trial"",""time""
""fullscreenenter"",""1"",""2269""
""fullscreenexit"",""26"",""458644""
""blur"",""26"",""460873""
""focus"",""26"",""489765""
""blur"",""37"",""552257""
""focus"",""37"",""553308""
""blur"",""37"",""554685""
""focus"",""38"",""556511""
""blur"",""38"",""558192""
""focus"",""39"",""561443""
""blur"",""39"",""562865""
""focus"",""41"",""573813""
","""event"",""trial"",""time""
""blur"",""26"",""460873""
""blur"",""37"",""552257""
""blur"",""37"",""554685""
""blur"",""38"",""558192""
""blur"",""39"",""562865""
","""event"",""trial"",""time""
""focus"",""26"",""489765""
""focus"",""37"",""553308""
""focus"",""38"",""556511""
""focus"",""39"",""561443""
""focus"",""41"",""573813""
","""event"",""trial"",""time""
""fullscreenenter"",""1"",""2269""
","""event"",""trial"",""time""
""fullscreenexit"",""26"",""458644""
","","","-1","","","11","1224","285","&#9826;","elianto","#f73b6a7A","-1","-1","1","0","[]","0","0","3","","","","","","","","",""
"pit-trial","47","651917","0.0-2.0-14.0-3.0","battery-v0.2","","""event"",""trial"",""time""
""fullscreenenter"",""1"",""2269""
""fullscreenexit"",""26"",""458644""
""blur"",""26"",""460873""
""focus"",""26"",""489765""
""blur"",""37"",""552257""
""focus"",""37"",""553308""
""blur"",""37"",""554685""
""focus"",""38"",""556511""
""blur"",""38"",""558192""
""focus"",""39"",""561443""
""blur"",""39"",""562865""
""focus"",""41"",""573813""
","""event"",""trial"",""time""
""blur"",""26"",""460873""
""blur"",""37"",""552257""
""blur"",""37"",""554685""
""blur"",""38"",""558192""
""blur"",""39"",""562865""
","""event"",""trial"",""time""
""focus"",""26"",""489765""
""focus"",""37"",""553308""
""focus"",""38"",""556511""
""focus"",""39"",""561443""
""focus"",""41"",""573813""
","""event"",""trial"",""time""
""fullscreenenter"",""1"",""2269""
","""event"",""trial"",""time""
""fullscreenexit"",""26"",""458644""
","","","-1","","","11","1224","285","&#9826;","elianto","#f73b6a7A","-1","-1","1","-10","[]","0","0","3","","","","","","","","",""
"pit-trial","48","656797","0.0-2.0-14.0-4.0","battery-v0.2","","""event"",""trial"",""time""
""fullscreenenter"",""1"",""2269""
""fullscreenexit"",""26"",""458644""
""blur"",""26"",""460873""
""focus"",""26"",""489765""
""blur"",""37"",""552257""
""focus"",""37"",""553308""
""blur"",""37"",""554685""
""focus"",""38"",""556511""
""blur"",""38"",""558192""
""focus"",""39"",""561443""
""blur"",""39"",""562865""
""focus"",""41"",""573813""
","""event"",""trial"",""time""
""blur"",""26"",""460873""
""blur"",""37"",""552257""
""blur"",""37"",""554685""
""blur"",""38"",""558192""
""blur"",""39"",""562865""
","""event"",""trial"",""time""
""focus"",""26"",""489765""
""focus"",""37"",""553308""
""focus"",""38"",""556511""
""focus"",""39"",""561443""
""focus"",""41"",""573813""
","""event"",""trial"",""time""
""fullscreenenter"",""1"",""2269""
","""event"",""trial"",""time""
""fullscreenexit"",""26"",""458644""
","","","-1","","","11","1224","285","&#9826;","elianto","#f73b6a7A","-1","-1","1","0","[]","0","0","3","","","","","","","","",""
"call-function","49","656801","0.0-2.0-15.0","battery-v0.2","","""event"",""trial"",""time""
""fullscreenenter"",""1"",""2269""
""fullscreenexit"",""26"",""458644""
""blur"",""26"",""460873""
""focus"",""26"",""489765""
""blur"",""37"",""552257""
""focus"",""37"",""553308""
""blur"",""37"",""554685""
""focus"",""38"",""556511""
""blur"",""38"",""558192""
""focus"",""39"",""561443""
""blur"",""39"",""562865""
""focus"",""41"",""573813""
","""event"",""trial"",""time""
""blur"",""26"",""460873""
""blur"",""37"",""552257""
""blur"",""37"",""554685""
""blur"",""38"",""558192""
""blur"",""39"",""562865""
","""event"",""trial"",""time""
""focus"",""26"",""489765""
""focus"",""37"",""553308""
""focus"",""38"",""556511""
""focus"",""39"",""561443""
""focus"",""41"",""573813""
","""event"",""trial"",""time""
""fullscreenenter"",""1"",""2269""
","""event"",""trial"",""time""
""fullscreenexit"",""26"",""458644""
","","","","","","","","","","","","","","","","","","","","","","","","","","","",""
"pit-instructions","50","690626","0.0-2.0-16.0","battery-v0.2","","""event"",""trial"",""time""
""fullscreenenter"",""1"",""2269""
""fullscreenexit"",""26"",""458644""
""blur"",""26"",""460873""
""focus"",""26"",""489765""
""blur"",""37"",""552257""
""focus"",""37"",""553308""
""blur"",""37"",""554685""
""focus"",""38"",""556511""
""blur"",""38"",""558192""
""focus"",""39"",""561443""
""blur"",""39"",""562865""
""focus"",""41"",""573813""
","""event"",""trial"",""time""
""blur"",""26"",""460873""
""blur"",""37"",""552257""
""blur"",""37"",""554685""
""blur"",""38"",""558192""
""blur"",""39"",""562865""
","""event"",""trial"",""time""
""focus"",""26"",""489765""
""focus"",""37"",""553308""
""focus"",""38"",""556511""
""focus"",""39"",""561443""
""focus"",""41"",""573813""
","""event"",""trial"",""time""
""fullscreenenter"",""1"",""2269""
","""event"",""trial"",""time""
""fullscreenexit"",""26"",""458644""
","","[{""page_index"":0,""viewing_time"":8005.600000000093},{""page_index"":1,""viewing_time"":10182.300000000047},{""page_index"":2,""viewing_time"":4567.899999999907},{""page_index"":3,""viewing_time"":11067}]","33823.60000000009","","","","","","","","","","","","","","","","","","","","","","","","",""
"pit-trial","51","695507","0.0-2.0-17.0-0.0","battery-v0.2","","""event"",""trial"",""time""
""fullscreenenter"",""1"",""2269""
""fullscreenexit"",""26"",""458644""
""blur"",""26"",""460873""
""focus"",""26"",""489765""
""blur"",""37"",""552257""
""focus"",""37"",""553308""
""blur"",""37"",""554685""
""focus"",""38"",""556511""
""blur"",""38"",""558192""
""focus"",""39"",""561443""
""blur"",""39"",""562865""
""focus"",""41"",""573813""
","""event"",""trial"",""time""
""blur"",""26"",""460873""
""blur"",""37"",""552257""
""blur"",""37"",""554685""
""blur"",""38"",""558192""
""blur"",""39"",""562865""
","""event"",""trial"",""time""
""focus"",""26"",""489765""
""focus"",""37"",""553308""
""focus"",""38"",""556511""
""focus"",""39"",""561443""
""focus"",""41"",""573813""
","""event"",""trial"",""time""
""fullscreenenter"",""1"",""2269""
","""event"",""trial"",""time""
""fullscreenexit"",""26"",""458644""
","","","-1","","","11","1224","285","&#9789;","elianto","#f73b6a7A"," ","-1","0","-10","[]","0","0","4","","","","","","","","",""
"pit-trial","52","698517","0.0-2.0-17.0-1.0","battery-v0.2","","""event"",""trial"",""time""
""fullscreenenter"",""1"",""2269""
""fullscreenexit"",""26"",""458644""
""blur"",""26"",""460873""
""focus"",""26"",""489765""
""blur"",""37"",""552257""
""focus"",""37"",""553308""
""blur"",""37"",""554685""
""focus"",""38"",""556511""
""blur"",""38"",""558192""
""focus"",""39"",""561443""
""blur"",""39"",""562865""
""focus"",""41"",""573813""
","""event"",""trial"",""time""
""blur"",""26"",""460873""
""blur"",""37"",""552257""
""blur"",""37"",""554685""
""blur"",""38"",""558192""
""blur"",""39"",""562865""
","""event"",""trial"",""time""
""focus"",""26"",""489765""
""focus"",""37"",""553308""
""focus"",""38"",""556511""
""focus"",""39"",""561443""
""focus"",""41"",""573813""
","""event"",""trial"",""time""
""fullscreenenter"",""1"",""2269""
","""event"",""trial"",""time""
""fullscreenexit"",""26"",""458644""
","","","138.9000000001397","","","11","1224","285","&#9789;","elianto","#f73b6a7A"," "," ","1","0","[991.7000000001863]","1","0","4","","","","","","","","",""
"pit-trial","53","701987","0.0-2.0-17.0-2.0","battery-v0.2","","""event"",""trial"",""time""
""fullscreenenter"",""1"",""2269""
""fullscreenexit"",""26"",""458644""
""blur"",""26"",""460873""
""focus"",""26"",""489765""
""blur"",""37"",""552257""
""focus"",""37"",""553308""
""blur"",""37"",""554685""
""focus"",""38"",""556511""
""blur"",""38"",""558192""
""focus"",""39"",""561443""
""blur"",""39"",""562865""
""focus"",""41"",""573813""
","""event"",""trial"",""time""
""blur"",""26"",""460873""
""blur"",""37"",""552257""
""blur"",""37"",""554685""
""blur"",""38"",""558192""
""blur"",""39"",""562865""
","""event"",""trial"",""time""
""focus"",""26"",""489765""
""focus"",""37"",""553308""
""focus"",""38"",""556511""
""focus"",""39"",""561443""
""focus"",""41"",""573813""
","""event"",""trial"",""time""
""fullscreenenter"",""1"",""2269""
","""event"",""trial"",""time""
""fullscreenexit"",""26"",""458644""
","","","606.9000000001397","","","11","1224","285","&#9789;","elianto","#f73b6a7A"," "," ","1","0","[835.6000000000931,1459.5,3429.399999999907]","3","0","4","","","","","","","","",""
"pit-trial","54","705257","0.0-2.0-17.0-3.0","battery-v0.2","","""event"",""trial"",""time""
""fullscreenenter"",""1"",""2269""
""fullscreenexit"",""26"",""458644""
""blur"",""26"",""460873""
""focus"",""26"",""489765""
""blur"",""37"",""552257""
""focus"",""37"",""553308""
""blur"",""37"",""554685""
""focus"",""38"",""556511""
""blur"",""38"",""558192""
""focus"",""39"",""561443""
""blur"",""39"",""562865""
""focus"",""41"",""573813""
","""event"",""trial"",""time""
""blur"",""26"",""460873""
""blur"",""37"",""552257""
""blur"",""37"",""554685""
""blur"",""38"",""558192""
""blur"",""39"",""562865""
","""event"",""trial"",""time""
""focus"",""26"",""489765""
""focus"",""37"",""553308""
""focus"",""38"",""556511""
""focus"",""39"",""561443""
""focus"",""41"",""573813""
","""event"",""trial"",""time""
""fullscreenenter"",""1"",""2269""
","""event"",""trial"",""time""
""fullscreenexit"",""26"",""458644""
","","","398.10000000009313","","","11","1224","285","&#9789;","elianto","#f73b6a7A"," "," ","1","-10","[1252.1999999999534]","1","0","4","","","","","","","","",""
"pit-trial","55","710027","0.0-2.0-17.0-4.0","battery-v0.2","","""event"",""trial"",""time""
""fullscreenenter"",""1"",""2269""
""fullscreenexit"",""26"",""458644""
""blur"",""26"",""460873""
""focus"",""26"",""489765""
""blur"",""37"",""552257""
""focus"",""37"",""553308""
""blur"",""37"",""554685""
""focus"",""38"",""556511""
""blur"",""38"",""558192""
""focus"",""39"",""561443""
""blur"",""39"",""562865""
""focus"",""41"",""573813""
","""event"",""trial"",""time""
""blur"",""26"",""460873""
""blur"",""37"",""552257""
""blur"",""37"",""554685""
""blur"",""38"",""558192""
""blur"",""39"",""562865""
","""event"",""trial"",""time""
""focus"",""26"",""489765""
""focus"",""37"",""553308""
""focus"",""38"",""556511""
""focus"",""39"",""561443""
""focus"",""41"",""573813""
","""event"",""trial"",""time""
""fullscreenenter"",""1"",""2269""
","""event"",""trial"",""time""
""fullscreenexit"",""26"",""458644""
","","","1901.7000000001863","","","11","1224","285","&#9789;","elianto","#f73b6a7A"," "," ","1","0","[697.3000000000466,2755.1999999999534]","2","0","4","","","","","","","","",""
"call-function","56","710031","0.0-2.0-18.0","battery-v0.2","","""event"",""trial"",""time""
""fullscreenenter"",""1"",""2269""
""fullscreenexit"",""26"",""458644""
""blur"",""26"",""460873""
""focus"",""26"",""489765""
""blur"",""37"",""552257""
""focus"",""37"",""553308""
""blur"",""37"",""554685""
""focus"",""38"",""556511""
""blur"",""38"",""558192""
""focus"",""39"",""561443""
""blur"",""39"",""562865""
""focus"",""41"",""573813""
""blur"",""57"",""817959""
""focus"",""57"",""822246""
""blur"",""57"",""834659""
""focus"",""57"",""834853""
","""event"",""trial"",""time""
""blur"",""26"",""460873""
""blur"",""37"",""552257""
""blur"",""37"",""554685""
""blur"",""38"",""558192""
""blur"",""39"",""562865""
""blur"",""57"",""817959""
""blur"",""57"",""834659""
","""event"",""trial"",""time""
""focus"",""26"",""489765""
""focus"",""37"",""553308""
""focus"",""38"",""556511""
""focus"",""39"",""561443""
""focus"",""41"",""573813""
""focus"",""57"",""822246""
""focus"",""57"",""834853""
","""event"",""trial"",""time""
""fullscreenenter"",""1"",""2269""
","""event"",""trial"",""time""
""fullscreenexit"",""26"",""458644""
","","","","","","","","","","","","","","","","","","","","","","","","","","","",""
"pit-instructions","57","836805","0.0-2.0-19.0","battery-v0.2","","""event"",""trial"",""time""
""fullscreenenter"",""1"",""2269""
""fullscreenexit"",""26"",""458644""
""blur"",""26"",""460873""
""focus"",""26"",""489765""
""blur"",""37"",""552257""
""focus"",""37"",""553308""
""blur"",""37"",""554685""
""focus"",""38"",""556511""
""blur"",""38"",""558192""
""focus"",""39"",""561443""
""blur"",""39"",""562865""
""focus"",""41"",""573813""
""blur"",""57"",""817959""
""focus"",""57"",""822246""
""blur"",""57"",""834659""
""focus"",""57"",""834853""
","""event"",""trial"",""time""
""blur"",""26"",""460873""
""blur"",""37"",""552257""
""blur"",""37"",""554685""
""blur"",""38"",""558192""
""blur"",""39"",""562865""
""blur"",""57"",""817959""
""blur"",""57"",""834659""
","""event"",""trial"",""time""
""focus"",""26"",""489765""
""focus"",""37"",""553308""
""focus"",""38"",""556511""
""focus"",""39"",""561443""
""focus"",""41"",""573813""
""focus"",""57"",""822246""
""focus"",""57"",""834853""
","""event"",""trial"",""time""
""fullscreenenter"",""1"",""2269""
","""event"",""trial"",""time""
""fullscreenexit"",""26"",""458644""
","","[{""page_index"":0,""viewing_time"":6973.199999999953},{""page_index"":1,""viewing_time"":10764.200000000186},{""page_index"":2,""viewing_time"":22063.699999999953},{""page_index"":3,""viewing_time"":5895.300000000047},{""page_index"":4,""viewing_time"":11634.5},{""page_index"":5,""viewing_time"":9990.09999999986},{""page_index"":6,""viewing_time"":15092.90000000014},{""page_index"":7,""viewing_time"":25360},{""page_index"":8,""viewing_time"":18997.799999999814}]","126772.6000000001","","","","","","","","","","","","","","","","","","","","","","","","",""
"pit-comprehension","58","849042","0.0-2.0-20.0-0.0","battery-v0.2","","""event"",""trial"",""time""
""fullscreenenter"",""1"",""2269""
""fullscreenexit"",""26"",""458644""
""blur"",""26"",""460873""
""focus"",""26"",""489765""
""blur"",""37"",""552257""
""focus"",""37"",""553308""
""blur"",""37"",""554685""
""focus"",""38"",""556511""
""blur"",""38"",""558192""
""focus"",""39"",""561443""
""blur"",""39"",""562865""
""focus"",""41"",""573813""
""blur"",""57"",""817959""
""focus"",""57"",""822246""
""blur"",""57"",""834659""
""focus"",""57"",""834853""
","""event"",""trial"",""time""
""blur"",""26"",""460873""
""blur"",""37"",""552257""
""blur"",""37"",""554685""
""blur"",""38"",""558192""
""blur"",""39"",""562865""
""blur"",""57"",""817959""
""blur"",""57"",""834659""
","""event"",""trial"",""time""
""focus"",""26"",""489765""
""focus"",""37"",""553308""
""focus"",""38"",""556511""
""focus"",""39"",""561443""
""focus"",""41"",""573813""
""focus"",""57"",""822246""
""focus"",""57"",""834853""
","""event"",""trial"",""time""
""fullscreenenter"",""1"",""2269""
","""event"",""trial"",""time""
""fullscreenexit"",""26"",""458644""
","","","12228.09999999986","[""SPACE""]","0","11","1224","285","","","","","","","","","","","","","","","","","","","",""
"pit-instructions","59","851349","0.0-2.0-20.0-1.0","battery-v0.2","","""event"",""trial"",""time""
""fullscreenenter"",""1"",""2269""
""fullscreenexit"",""26"",""458644""
""blur"",""26"",""460873""
""focus"",""26"",""489765""
""blur"",""37"",""552257""
""focus"",""37"",""553308""
""blur"",""37"",""554685""
""focus"",""38"",""556511""
""blur"",""38"",""558192""
""focus"",""39"",""561443""
""blur"",""39"",""562865""
""focus"",""41"",""573813""
""blur"",""57"",""817959""
""focus"",""57"",""822246""
""blur"",""57"",""834659""
""focus"",""57"",""834853""
","""event"",""trial"",""time""
""blur"",""26"",""460873""
""blur"",""37"",""552257""
""blur"",""37"",""554685""
""blur"",""38"",""558192""
""blur"",""39"",""562865""
""blur"",""57"",""817959""
""blur"",""57"",""834659""
","""event"",""trial"",""time""
""focus"",""26"",""489765""
""focus"",""37"",""553308""
""focus"",""38"",""556511""
""focus"",""39"",""561443""
""focus"",""41"",""573813""
""focus"",""57"",""822246""
""focus"",""57"",""834853""
","""event"",""trial"",""time""
""fullscreenenter"",""1"",""2269""
","""event"",""trial"",""time""
""fullscreenexit"",""26"",""458644""
","","[{""page_index"":0,""viewing_time"":2272.600000000093}]","2273.100000000093","","","","","","","","","","","","","","","","","","","","","","","","",""
"pit-comprehension","60","862698","0.0-2.0-21.0-0.0","battery-v0.2","","""event"",""trial"",""time""
""fullscreenenter"",""1"",""2269""
""fullscreenexit"",""26"",""458644""
""blur"",""26"",""460873""
""focus"",""26"",""489765""
""blur"",""37"",""552257""
""focus"",""37"",""553308""
""blur"",""37"",""554685""
""focus"",""38"",""556511""
""blur"",""38"",""558192""
""focus"",""39"",""561443""
""blur"",""39"",""562865""
""focus"",""41"",""573813""
""blur"",""57"",""817959""
""focus"",""57"",""822246""
""blur"",""57"",""834659""
""focus"",""57"",""834853""
","""event"",""trial"",""time""
""blur"",""26"",""460873""
""blur"",""37"",""552257""
""blur"",""37"",""554685""
""blur"",""38"",""558192""
""blur"",""39"",""562865""
""blur"",""57"",""817959""
""blur"",""57"",""834659""
","""event"",""trial"",""time""
""focus"",""26"",""489765""
""focus"",""37"",""553308""
""focus"",""38"",""556511""
""focus"",""39"",""561443""
""focus"",""41"",""573813""
""focus"",""57"",""822246""
""focus"",""57"",""834853""
","""event"",""trial"",""time""
""fullscreenenter"",""1"",""2269""
","""event"",""trial"",""time""
""fullscreenexit"",""26"",""458644""
","","","11339","[""10""]","0","11","1224","285","","","","","","","","","","","","","","","","","","","",""
"pit-instructions","61","864454","0.0-2.0-21.0-1.0","battery-v0.2","","""event"",""trial"",""time""
""fullscreenenter"",""1"",""2269""
""fullscreenexit"",""26"",""458644""
""blur"",""26"",""460873""
""focus"",""26"",""489765""
""blur"",""37"",""552257""
""focus"",""37"",""553308""
""blur"",""37"",""554685""
""focus"",""38"",""556511""
""blur"",""38"",""558192""
""focus"",""39"",""561443""
""blur"",""39"",""562865""
""focus"",""41"",""573813""
""blur"",""57"",""817959""
""focus"",""57"",""822246""
""blur"",""57"",""834659""
""focus"",""57"",""834853""
","""event"",""trial"",""time""
""blur"",""26"",""460873""
""blur"",""37"",""552257""
""blur"",""37"",""554685""
""blur"",""38"",""558192""
""blur"",""39"",""562865""
""blur"",""57"",""817959""
""blur"",""57"",""834659""
","""event"",""trial"",""time""
""focus"",""26"",""489765""
""focus"",""37"",""553308""
""focus"",""38"",""556511""
""focus"",""39"",""561443""
""focus"",""41"",""573813""
""focus"",""57"",""822246""
""focus"",""57"",""834853""
","""event"",""trial"",""time""
""fullscreenenter"",""1"",""2269""
","""event"",""trial"",""time""
""fullscreenexit"",""26"",""458644""
","","[{""page_index"":0,""viewing_time"":1709.5999999998603}]","1710.5999999998603","","","","","","","","","","","","","","","","","","","","","","","","",""
"pit-comprehension","62","871005","0.0-2.0-22.0-0.0","battery-v0.2","","""event"",""trial"",""time""
""fullscreenenter"",""1"",""2269""
""fullscreenexit"",""26"",""458644""
""blur"",""26"",""460873""
""focus"",""26"",""489765""
""blur"",""37"",""552257""
""focus"",""37"",""553308""
""blur"",""37"",""554685""
""focus"",""38"",""556511""
""blur"",""38"",""558192""
""focus"",""39"",""561443""
""blur"",""39"",""562865""
""focus"",""41"",""573813""
""blur"",""57"",""817959""
""focus"",""57"",""822246""
""blur"",""57"",""834659""
""focus"",""57"",""834853""
","""event"",""trial"",""time""
""blur"",""26"",""460873""
""blur"",""37"",""552257""
""blur"",""37"",""554685""
""blur"",""38"",""558192""
""blur"",""39"",""562865""
""blur"",""57"",""817959""
""blur"",""57"",""834659""
","""event"",""trial"",""time""
""focus"",""26"",""489765""
""focus"",""37"",""553308""
""focus"",""38"",""556511""
""focus"",""39"",""561443""
""focus"",""41"",""573813""
""focus"",""57"",""822246""
""focus"",""57"",""834853""
","""event"",""trial"",""time""
""fullscreenenter"",""1"",""2269""
","""event"",""trial"",""time""
""fullscreenexit"",""26"",""458644""
","","","6539.899999999907","[""-10""]","1","11","1224","285","","","","","","","","","","","","","","","","","","","",""
"pit-instructions","63","882008","0.0-2.0-22.0-1.0","battery-v0.2","","""event"",""trial"",""time""
""fullscreenenter"",""1"",""2269""
""fullscreenexit"",""26"",""458644""
""blur"",""26"",""460873""
""focus"",""26"",""489765""
""blur"",""37"",""552257""
""focus"",""37"",""553308""
""blur"",""37"",""554685""
""focus"",""38"",""556511""
""blur"",""38"",""558192""
""focus"",""39"",""561443""
""blur"",""39"",""562865""
""focus"",""41"",""573813""
""blur"",""57"",""817959""
""focus"",""57"",""822246""
""blur"",""57"",""834659""
""focus"",""57"",""834853""
","""event"",""trial"",""time""
""blur"",""26"",""460873""
""blur"",""37"",""552257""
""blur"",""37"",""554685""
""blur"",""38"",""558192""
""blur"",""39"",""562865""
""blur"",""57"",""817959""
""blur"",""57"",""834659""
","""event"",""trial"",""time""
""focus"",""26"",""489765""
""focus"",""37"",""553308""
""focus"",""38"",""556511""
""focus"",""39"",""561443""
""focus"",""41"",""573813""
""focus"",""57"",""822246""
""focus"",""57"",""834853""
","""event"",""trial"",""time""
""fullscreenenter"",""1"",""2269""
","""event"",""trial"",""time""
""fullscreenexit"",""26"",""458644""
","","[{""page_index"":0,""viewing_time"":10969.600000000093}]","10970.600000000093","","","","","","","","","","","","","","","","","","","","","","","","",""
"pit-instructions","64","883140","0.0-2.0-22.0-2.0-0.0","battery-v0.2","","""event"",""trial"",""time""
""fullscreenenter"",""1"",""2269""
""fullscreenexit"",""26"",""458644""
""blur"",""26"",""460873""
""focus"",""26"",""489765""
""blur"",""37"",""552257""
""focus"",""37"",""553308""
""blur"",""37"",""554685""
""focus"",""38"",""556511""
""blur"",""38"",""558192""
""focus"",""39"",""561443""
""blur"",""39"",""562865""
""focus"",""41"",""573813""
""blur"",""57"",""817959""
""focus"",""57"",""822246""
""blur"",""57"",""834659""
""focus"",""57"",""834853""
","""event"",""trial"",""time""
""blur"",""26"",""460873""
""blur"",""37"",""552257""
""blur"",""37"",""554685""
""blur"",""38"",""558192""
""blur"",""39"",""562865""
""blur"",""57"",""817959""
""blur"",""57"",""834659""
","""event"",""trial"",""time""
""focus"",""26"",""489765""
""focus"",""37"",""553308""
""focus"",""38"",""556511""
""focus"",""39"",""561443""
""focus"",""41"",""573813""
""focus"",""57"",""822246""
""focus"",""57"",""834853""
","""event"",""trial"",""time""
""fullscreenenter"",""1"",""2269""
","""event"",""trial"",""time""
""fullscreenexit"",""26"",""458644""
","","[{""page_index"":0,""viewing_time"":1126.6000000000931}]","1127.3000000000466","","","","","","","","","","","","","","","","","","","","","","","","",""
"pit-comprehension","65","896503","0.0-2.0-22.1-0.1","battery-v0.2","","""event"",""trial"",""time""
""fullscreenenter"",""1"",""2269""
""fullscreenexit"",""26"",""458644""
""blur"",""26"",""460873""
""focus"",""26"",""489765""
""blur"",""37"",""552257""
""focus"",""37"",""553308""
""blur"",""37"",""554685""
""focus"",""38"",""556511""
""blur"",""38"",""558192""
""focus"",""39"",""561443""
""blur"",""39"",""562865""
""focus"",""41"",""573813""
""blur"",""57"",""817959""
""focus"",""57"",""822246""
""blur"",""57"",""834659""
""focus"",""57"",""834853""
","""event"",""trial"",""time""
""blur"",""26"",""460873""
""blur"",""37"",""552257""
""blur"",""37"",""554685""
""blur"",""38"",""558192""
""blur"",""39"",""562865""
""blur"",""57"",""817959""
""blur"",""57"",""834659""
","""event"",""trial"",""time""
""focus"",""26"",""489765""
""focus"",""37"",""553308""
""focus"",""38"",""556511""
""focus"",""39"",""561443""
""focus"",""41"",""573813""
""focus"",""57"",""822246""
""focus"",""57"",""834853""
","""event"",""trial"",""time""
""fullscreenenter"",""1"",""2269""
","""event"",""trial"",""time""
""fullscreenexit"",""26"",""458644""
","","","13356","[""0""]","0","11","1224","285","","","","","","","","","","","","","","","","","","","",""
"pit-instructions","66","898172","0.0-2.0-22.1-1.1","battery-v0.2","","""event"",""trial"",""time""
""fullscreenenter"",""1"",""2269""
""fullscreenexit"",""26"",""458644""
""blur"",""26"",""460873""
""focus"",""26"",""489765""
""blur"",""37"",""552257""
""focus"",""37"",""553308""
""blur"",""37"",""554685""
""focus"",""38"",""556511""
""blur"",""38"",""558192""
""focus"",""39"",""561443""
""blur"",""39"",""562865""
""focus"",""41"",""573813""
""blur"",""57"",""817959""
""focus"",""57"",""822246""
""blur"",""57"",""834659""
""focus"",""57"",""834853""
","""event"",""trial"",""time""
""blur"",""26"",""460873""
""blur"",""37"",""552257""
""blur"",""37"",""554685""
""blur"",""38"",""558192""
""blur"",""39"",""562865""
""blur"",""57"",""817959""
""blur"",""57"",""834659""
","""event"",""trial"",""time""
""focus"",""26"",""489765""
""focus"",""37"",""553308""
""focus"",""38"",""556511""
""focus"",""39"",""561443""
""focus"",""41"",""573813""
""focus"",""57"",""822246""
""focus"",""57"",""834853""
","""event"",""trial"",""time""
""fullscreenenter"",""1"",""2269""
","""event"",""trial"",""time""
""fullscreenexit"",""26"",""458644""
","","[{""page_index"":0,""viewing_time"":1635.8000000000466}]","1636.7000000001863","","","","","","","","","","","","","","","","","","","","","","","","",""
"pit-comprehension","67","948537","0.0-2.0-23.0-0.0","battery-v0.2","","""event"",""trial"",""time""
""fullscreenenter"",""1"",""2269""
""fullscreenexit"",""26"",""458644""
""blur"",""26"",""460873""
""focus"",""26"",""489765""
""blur"",""37"",""552257""
""focus"",""37"",""553308""
""blur"",""37"",""554685""
""focus"",""38"",""556511""
""blur"",""38"",""558192""
""focus"",""39"",""561443""
""blur"",""39"",""562865""
""focus"",""41"",""573813""
""blur"",""57"",""817959""
""focus"",""57"",""822246""
""blur"",""57"",""834659""
""focus"",""57"",""834853""
","""event"",""trial"",""time""
""blur"",""26"",""460873""
""blur"",""37"",""552257""
""blur"",""37"",""554685""
""blur"",""38"",""558192""
""blur"",""39"",""562865""
""blur"",""57"",""817959""
""blur"",""57"",""834659""
","""event"",""trial"",""time""
""focus"",""26"",""489765""
""focus"",""37"",""553308""
""focus"",""38"",""556511""
""focus"",""39"",""561443""
""focus"",""41"",""573813""
""focus"",""57"",""822246""
""focus"",""57"",""834853""
","""event"",""trial"",""time""
""fullscreenenter"",""1"",""2269""
","""event"",""trial"",""time""
""fullscreenexit"",""26"",""458644""
","","","50357.40000000014","[""True""]","0","11","1224","285","","","","","","","","","","","","","","","","","","","",""
"pit-instructions","68","949950","0.0-2.0-23.0-1.0","battery-v0.2","","""event"",""trial"",""time""
""fullscreenenter"",""1"",""2269""
""fullscreenexit"",""26"",""458644""
""blur"",""26"",""460873""
""focus"",""26"",""489765""
""blur"",""37"",""552257""
""focus"",""37"",""553308""
""blur"",""37"",""554685""
""focus"",""38"",""556511""
""blur"",""38"",""558192""
""focus"",""39"",""561443""
""blur"",""39"",""562865""
""focus"",""41"",""573813""
""blur"",""57"",""817959""
""focus"",""57"",""822246""
""blur"",""57"",""834659""
""focus"",""57"",""834853""
","""event"",""trial"",""time""
""blur"",""26"",""460873""
""blur"",""37"",""552257""
""blur"",""37"",""554685""
""blur"",""38"",""558192""
""blur"",""39"",""562865""
""blur"",""57"",""817959""
""blur"",""57"",""834659""
","""event"",""trial"",""time""
""focus"",""26"",""489765""
""focus"",""37"",""553308""
""focus"",""38"",""556511""
""focus"",""39"",""561443""
""focus"",""41"",""573813""
""focus"",""57"",""822246""
""focus"",""57"",""834853""
","""event"",""trial"",""time""
""fullscreenenter"",""1"",""2269""
","""event"",""trial"",""time""
""fullscreenexit"",""26"",""458644""
","","[{""page_index"":0,""viewing_time"":1368.1999999999534}]","1369.1999999999534","","","","","","","","","","","","","","","","","","","","","","","","",""
"pit-comprehension","69","960004","0.0-2.0-24.0-0.0","battery-v0.2","","""event"",""trial"",""time""
""fullscreenenter"",""1"",""2269""
""fullscreenexit"",""26"",""458644""
""blur"",""26"",""460873""
""focus"",""26"",""489765""
""blur"",""37"",""552257""
""focus"",""37"",""553308""
""blur"",""37"",""554685""
""focus"",""38"",""556511""
""blur"",""38"",""558192""
""focus"",""39"",""561443""
""blur"",""39"",""562865""
""focus"",""41"",""573813""
""blur"",""57"",""817959""
""focus"",""57"",""822246""
""blur"",""57"",""834659""
""focus"",""57"",""834853""
","""event"",""trial"",""time""
""blur"",""26"",""460873""
""blur"",""37"",""552257""
""blur"",""37"",""554685""
""blur"",""38"",""558192""
""blur"",""39"",""562865""
""blur"",""57"",""817959""
""blur"",""57"",""834659""
","""event"",""trial"",""time""
""focus"",""26"",""489765""
""focus"",""37"",""553308""
""focus"",""38"",""556511""
""focus"",""39"",""561443""
""focus"",""41"",""573813""
""focus"",""57"",""822246""
""focus"",""57"",""834853""
","""event"",""trial"",""time""
""fullscreenenter"",""1"",""2269""
","""event"",""trial"",""time""
""fullscreenexit"",""26"",""458644""
","","","10044.899999999907","[""True""]","0","11","1224","285","","","","","","","","","","","","","","","","","","","",""
"pit-instructions","70","961777","0.0-2.0-24.0-1.0","battery-v0.2","","""event"",""trial"",""time""
""fullscreenenter"",""1"",""2269""
""fullscreenexit"",""26"",""458644""
""blur"",""26"",""460873""
""focus"",""26"",""489765""
""blur"",""37"",""552257""
""focus"",""37"",""553308""
""blur"",""37"",""554685""
""focus"",""38"",""556511""
""blur"",""38"",""558192""
""focus"",""39"",""561443""
""blur"",""39"",""562865""
""focus"",""41"",""573813""
""blur"",""57"",""817959""
""focus"",""57"",""822246""
""blur"",""57"",""834659""
""focus"",""57"",""834853""
","""event"",""trial"",""time""
""blur"",""26"",""460873""
""blur"",""37"",""552257""
""blur"",""37"",""554685""
""blur"",""38"",""558192""
""blur"",""39"",""562865""
""blur"",""57"",""817959""
""blur"",""57"",""834659""
","""event"",""trial"",""time""
""focus"",""26"",""489765""
""focus"",""37"",""553308""
""focus"",""38"",""556511""
""focus"",""39"",""561443""
""focus"",""41"",""573813""
""focus"",""57"",""822246""
""focus"",""57"",""834853""
","""event"",""trial"",""time""
""fullscreenenter"",""1"",""2269""
","""event"",""trial"",""time""
""fullscreenexit"",""26"",""458644""
","","[{""page_index"":0,""viewing_time"":1731.5999999998603}]","1732.5999999998603","","","","","","","","","","","","","","","","","","","","","","","","",""
"pit-comprehension","71","975414","0.0-2.0-25.0-0.0","battery-v0.2","","""event"",""trial"",""time""
""fullscreenenter"",""1"",""2269""
""fullscreenexit"",""26"",""458644""
""blur"",""26"",""460873""
""focus"",""26"",""489765""
""blur"",""37"",""552257""
""focus"",""37"",""553308""
""blur"",""37"",""554685""
""focus"",""38"",""556511""
""blur"",""38"",""558192""
""focus"",""39"",""561443""
""blur"",""39"",""562865""
""focus"",""41"",""573813""
""blur"",""57"",""817959""
""focus"",""57"",""822246""
""blur"",""57"",""834659""
""focus"",""57"",""834853""
","""event"",""trial"",""time""
""blur"",""26"",""460873""
""blur"",""37"",""552257""
""blur"",""37"",""554685""
""blur"",""38"",""558192""
""blur"",""39"",""562865""
""blur"",""57"",""817959""
""blur"",""57"",""834659""
","""event"",""trial"",""time""
""focus"",""26"",""489765""
""focus"",""37"",""553308""
""focus"",""38"",""556511""
""focus"",""39"",""561443""
""focus"",""41"",""573813""
""focus"",""57"",""822246""
""focus"",""57"",""834853""
","""event"",""trial"",""time""
""fullscreenenter"",""1"",""2269""
","""event"",""trial"",""time""
""fullscreenexit"",""26"",""458644""
","","","13628.199999999953","[""True""]","0","11","1224","285","","","","","","","","","","","","","","","","","","","",""
"pit-instructions","72","977164","0.0-2.0-25.0-1.0","battery-v0.2","","""event"",""trial"",""time""
""fullscreenenter"",""1"",""2269""
""fullscreenexit"",""26"",""458644""
""blur"",""26"",""460873""
""focus"",""26"",""489765""
""blur"",""37"",""552257""
""focus"",""37"",""553308""
""blur"",""37"",""554685""
""focus"",""38"",""556511""
""blur"",""38"",""558192""
""focus"",""39"",""561443""
""blur"",""39"",""562865""
""focus"",""41"",""573813""
""blur"",""57"",""817959""
""focus"",""57"",""822246""
""blur"",""57"",""834659""
""focus"",""57"",""834853""
","""event"",""trial"",""time""
""blur"",""26"",""460873""
""blur"",""37"",""552257""
""blur"",""37"",""554685""
""blur"",""38"",""558192""
""blur"",""39"",""562865""
""blur"",""57"",""817959""
""blur"",""57"",""834659""
","""event"",""trial"",""time""
""focus"",""26"",""489765""
""focus"",""37"",""553308""
""focus"",""38"",""556511""
""focus"",""39"",""561443""
""focus"",""41"",""573813""
""focus"",""57"",""822246""
""focus"",""57"",""834853""
","""event"",""trial"",""time""
""fullscreenenter"",""1"",""2269""
","""event"",""trial"",""time""
""fullscreenexit"",""26"",""458644""
","","[{""page_index"":0,""viewing_time"":1700.8999999999069}]","1701.8999999999069","","","","","","","","","","","","","","","","","","","","","","","","",""
"pit-comprehension","73","988554","0.0-2.0-26.0-0.0","battery-v0.2","","""event"",""trial"",""time""
""fullscreenenter"",""1"",""2269""
""fullscreenexit"",""26"",""458644""
""blur"",""26"",""460873""
""focus"",""26"",""489765""
""blur"",""37"",""552257""
""focus"",""37"",""553308""
""blur"",""37"",""554685""
""focus"",""38"",""556511""
""blur"",""38"",""558192""
""focus"",""39"",""561443""
""blur"",""39"",""562865""
""focus"",""41"",""573813""
""blur"",""57"",""817959""
""focus"",""57"",""822246""
""blur"",""57"",""834659""
""focus"",""57"",""834853""
","""event"",""trial"",""time""
""blur"",""26"",""460873""
""blur"",""37"",""552257""
""blur"",""37"",""554685""
""blur"",""38"",""558192""
""blur"",""39"",""562865""
""blur"",""57"",""817959""
""blur"",""57"",""834659""
","""event"",""trial"",""time""
""focus"",""26"",""489765""
""focus"",""37"",""553308""
""focus"",""38"",""556511""
""focus"",""39"",""561443""
""focus"",""41"",""573813""
""focus"",""57"",""822246""
""focus"",""57"",""834853""
","""event"",""trial"",""time""
""fullscreenenter"",""1"",""2269""
","""event"",""trial"",""time""
""fullscreenexit"",""26"",""458644""
","","","11379.90000000014","[""False""]","0","11","1224","285","","","","","","","","","","","","","","","","","","","",""
"pit-instructions","74","991340","0.0-2.0-26.0-1.0","battery-v0.2","","""event"",""trial"",""time""
""fullscreenenter"",""1"",""2269""
""fullscreenexit"",""26"",""458644""
""blur"",""26"",""460873""
""focus"",""26"",""489765""
""blur"",""37"",""552257""
""focus"",""37"",""553308""
""blur"",""37"",""554685""
""focus"",""38"",""556511""
""blur"",""38"",""558192""
""focus"",""39"",""561443""
""blur"",""39"",""562865""
""focus"",""41"",""573813""
""blur"",""57"",""817959""
""focus"",""57"",""822246""
""blur"",""57"",""834659""
""focus"",""57"",""834853""
","""event"",""trial"",""time""
""blur"",""26"",""460873""
""blur"",""37"",""552257""
""blur"",""37"",""554685""
""blur"",""38"",""558192""
""blur"",""39"",""562865""
""blur"",""57"",""817959""
""blur"",""57"",""834659""
","""event"",""trial"",""time""
""focus"",""26"",""489765""
""focus"",""37"",""553308""
""focus"",""38"",""556511""
""focus"",""39"",""561443""
""focus"",""41"",""573813""
""focus"",""57"",""822246""
""focus"",""57"",""834853""
","""event"",""trial"",""time""
""fullscreenenter"",""1"",""2269""
","""event"",""trial"",""time""
""fullscreenexit"",""26"",""458644""
","","[{""page_index"":0,""viewing_time"":2731.0999999998603}]","2732.2999999998137","","","","","","","","","","","","","","","","","","","","","","","","",""
"pit-instructions","75","1013147","0.0-3.0","battery-v0.2","","""event"",""trial"",""time""
""fullscreenenter"",""1"",""2269""
""fullscreenexit"",""26"",""458644""
""blur"",""26"",""460873""
""focus"",""26"",""489765""
""blur"",""37"",""552257""
""focus"",""37"",""553308""
""blur"",""37"",""554685""
""focus"",""38"",""556511""
""blur"",""38"",""558192""
""focus"",""39"",""561443""
""blur"",""39"",""562865""
""focus"",""41"",""573813""
""blur"",""57"",""817959""
""focus"",""57"",""822246""
""blur"",""57"",""834659""
""focus"",""57"",""834853""
","""event"",""trial"",""time""
""blur"",""26"",""460873""
""blur"",""37"",""552257""
""blur"",""37"",""554685""
""blur"",""38"",""558192""
""blur"",""39"",""562865""
""blur"",""57"",""817959""
""blur"",""57"",""834659""
","""event"",""trial"",""time""
""focus"",""26"",""489765""
""focus"",""37"",""553308""
""focus"",""38"",""556511""
""focus"",""39"",""561443""
""focus"",""41"",""573813""
""focus"",""57"",""822246""
""focus"",""57"",""834853""
","""event"",""trial"",""time""
""fullscreenenter"",""1"",""2269""
","""event"",""trial"",""time""
""fullscreenexit"",""26"",""458644""
","","[{""page_index"":0,""viewing_time"":4888.90000000014},{""page_index"":1,""viewing_time"":8596.899999999907},{""page_index"":2,""viewing_time"":8313.100000000093}]","21799.90000000014","","","","","","","","","","","","","","","","","","","","","","","","",""
"pit-trial","76","1018035","0.0-4.0","battery-v0.2","","""event"",""trial"",""time""
""fullscreenenter"",""1"",""2269""
""fullscreenexit"",""26"",""458644""
""blur"",""26"",""460873""
""focus"",""26"",""489765""
""blur"",""37"",""552257""
""focus"",""37"",""553308""
""blur"",""37"",""554685""
""focus"",""38"",""556511""
""blur"",""38"",""558192""
""focus"",""39"",""561443""
""blur"",""39"",""562865""
""focus"",""41"",""573813""
""blur"",""57"",""817959""
""focus"",""57"",""822246""
""blur"",""57"",""834659""
""focus"",""57"",""834853""
","""event"",""trial"",""time""
""blur"",""26"",""460873""
""blur"",""37"",""552257""
""blur"",""37"",""554685""
""blur"",""38"",""558192""
""blur"",""39"",""562865""
""blur"",""57"",""817959""
""blur"",""57"",""834659""
","""event"",""trial"",""time""
""focus"",""26"",""489765""
""focus"",""37"",""553308""
""focus"",""38"",""556511""
""focus"",""39"",""561443""
""focus"",""41"",""573813""
""focus"",""57"",""822246""
""focus"",""57"",""834853""
","""event"",""trial"",""time""
""fullscreenenter"",""1"",""2269""
","""event"",""trial"",""time""
""fullscreenexit"",""26"",""458644""
","","","-1","","","11","1224","285","&#9730;","elianto","#3366ff99"," ","-1","0","+10","[3369]","1","1","","","1224","1","1","1","win","go","1","[]"
"pit-trial","77","1021665","0.0-5.0","battery-v0.2","","""event"",""trial"",""time""
""fullscreenenter"",""1"",""2269""
""fullscreenexit"",""26"",""458644""
""blur"",""26"",""460873""
""focus"",""26"",""489765""
""blur"",""37"",""552257""
""focus"",""37"",""553308""
""blur"",""37"",""554685""
""focus"",""38"",""556511""
""blur"",""38"",""558192""
""focus"",""39"",""561443""
""blur"",""39"",""562865""
""focus"",""41"",""573813""
""blur"",""57"",""817959""
""focus"",""57"",""822246""
""blur"",""57"",""834659""
""focus"",""57"",""834853""
","""event"",""trial"",""time""
""blur"",""26"",""460873""
""blur"",""37"",""552257""
""blur"",""37"",""554685""
""blur"",""38"",""558192""
""blur"",""39"",""562865""
""blur"",""57"",""817959""
""blur"",""57"",""834659""
","""event"",""trial"",""time""
""focus"",""26"",""489765""
""focus"",""37"",""553308""
""focus"",""38"",""556511""
""focus"",""39"",""561443""
""focus"",""41"",""573813""
""focus"",""57"",""822246""
""focus"",""57"",""834853""
","""event"",""trial"",""time""
""fullscreenenter"",""1"",""2269""
","""event"",""trial"",""time""
""fullscreenexit"",""26"",""458644""
","","","769.4000000001397","","","11","1224","285","&#9733;","elianto","#3366ff99","-1"," ","0","0","[1619.8000000000466]","1","1","","","1224","2","2","2","win","no-go","0","0"
"pit-trial","78","1025325","0.0-6.0","battery-v0.2","","""event"",""trial"",""time""
""fullscreenenter"",""1"",""2269""
""fullscreenexit"",""26"",""458644""
""blur"",""26"",""460873""
""focus"",""26"",""489765""
""blur"",""37"",""552257""
""focus"",""37"",""553308""
""blur"",""37"",""554685""
""focus"",""38"",""556511""
""blur"",""38"",""558192""
""focus"",""39"",""561443""
""blur"",""39"",""562865""
""focus"",""41"",""573813""
""blur"",""57"",""817959""
""focus"",""57"",""822246""
""blur"",""57"",""834659""
""focus"",""57"",""834853""
","""event"",""trial"",""time""
""blur"",""26"",""460873""
""blur"",""37"",""552257""
""blur"",""37"",""554685""
""blur"",""38"",""558192""
""blur"",""39"",""562865""
""blur"",""57"",""817959""
""blur"",""57"",""834659""
","""event"",""trial"",""time""
""focus"",""26"",""489765""
""focus"",""37"",""553308""
""focus"",""38"",""556511""
""focus"",""39"",""561443""
""focus"",""41"",""573813""
""focus"",""57"",""822246""
""focus"",""57"",""834853""
","""event"",""trial"",""time""
""fullscreenenter"",""1"",""2269""
","""event"",""trial"",""time""
""fullscreenexit"",""26"",""458644""
","","","790.8000000000466","","","11","1224","285","&#9752;","elianto","#f73b6a7A"," "," ","1","0","[1643.2000000001863]","1","1","","","1224","3","3","3","lose","go","0","0"
"pit-trial","79","1029365","0.0-7.0","battery-v0.2","","""event"",""trial"",""time""
""fullscreenenter"",""1"",""2269""
""fullscreenexit"",""26"",""458644""
""blur"",""26"",""460873""
""focus"",""26"",""489765""
""blur"",""37"",""552257""
""focus"",""37"",""553308""
""blur"",""37"",""554685""
""focus"",""38"",""556511""
""blur"",""38"",""558192""
""focus"",""39"",""561443""
""blur"",""39"",""562865""
""focus"",""41"",""573813""
""blur"",""57"",""817959""
""focus"",""57"",""822246""
""blur"",""57"",""834659""
""focus"",""57"",""834853""
","""event"",""trial"",""time""
""blur"",""26"",""460873""
""blur"",""37"",""552257""
""blur"",""37"",""554685""
""blur"",""38"",""558192""
""blur"",""39"",""562865""
""blur"",""57"",""817959""
""blur"",""57"",""834659""
","""event"",""trial"",""time""
""focus"",""26"",""489765""
""focus"",""37"",""553308""
""focus"",""38"",""556511""
""focus"",""39"",""561443""
""focus"",""41"",""573813""
""focus"",""57"",""822246""
""focus"",""57"",""834853""
","""event"",""trial"",""time""
""fullscreenenter"",""1"",""2269""
","""event"",""trial"",""time""
""fullscreenexit"",""26"",""458644""
","","","1171.5999999998603","","","11","1224","285","&#9728;","elianto","#f73b6a7A","-1"," ","0","-10","[211.80000000004657,2026.4000000001397]","2","1","","","1224","4","0","4","lose","no-go","0","0"
"pit-trial","80","1033075","0.0-8.0","battery-v0.2","","""event"",""trial"",""time""
""fullscreenenter"",""1"",""2269""
""fullscreenexit"",""26"",""458644""
""blur"",""26"",""460873""
""focus"",""26"",""489765""
""blur"",""37"",""552257""
""focus"",""37"",""553308""
""blur"",""37"",""554685""
""focus"",""38"",""556511""
""blur"",""38"",""558192""
""focus"",""39"",""561443""
""blur"",""39"",""562865""
""focus"",""41"",""573813""
""blur"",""57"",""817959""
""focus"",""57"",""822246""
""blur"",""57"",""834659""
""focus"",""57"",""834853""
","""event"",""trial"",""time""
""blur"",""26"",""460873""
""blur"",""37"",""552257""
""blur"",""37"",""554685""
""blur"",""38"",""558192""
""blur"",""39"",""562865""
""blur"",""57"",""817959""
""blur"",""57"",""834659""
","""event"",""trial"",""time""
""focus"",""26"",""489765""
""focus"",""37"",""553308""
""focus"",""38"",""556511""
""focus"",""39"",""561443""
""focus"",""41"",""573813""
""focus"",""57"",""822246""
""focus"",""57"",""834853""
","""event"",""trial"",""time""
""fullscreenenter"",""1"",""2269""
","""event"",""trial"",""time""
""fullscreenexit"",""26"",""458644""
","","","839.5999999998603","","","11","1224","285","&#9733;","elianto","#3366ff99","-1"," ","0","0","[1690.1000000000931,3265.899999999907]","2","1","","","1224","5","2","2","win","no-go","0","0"
"pit-trial","81","1036604","0.0-9.0","battery-v0.2","","""event"",""trial"",""time""
""fullscreenenter"",""1"",""2269""
""fullscreenexit"",""26"",""458644""
""blur"",""26"",""460873""
""focus"",""26"",""489765""
""blur"",""37"",""552257""
""focus"",""37"",""553308""
""blur"",""37"",""554685""
""focus"",""38"",""556511""
""blur"",""38"",""558192""
""focus"",""39"",""561443""
""blur"",""39"",""562865""
""focus"",""41"",""573813""
""blur"",""57"",""817959""
""focus"",""57"",""822246""
""blur"",""57"",""834659""
""focus"",""57"",""834853""
","""event"",""trial"",""time""
""blur"",""26"",""460873""
""blur"",""37"",""552257""
""blur"",""37"",""554685""
""blur"",""38"",""558192""
""blur"",""39"",""562865""
""blur"",""57"",""817959""
""blur"",""57"",""834659""
","""event"",""trial"",""time""
""focus"",""26"",""489765""
""focus"",""37"",""553308""
""focus"",""38"",""556511""
""focus"",""39"",""561443""
""focus"",""41"",""573813""
""focus"",""57"",""822246""
""focus"",""57"",""834853""
","""event"",""trial"",""time""
""fullscreenenter"",""1"",""2269""
","""event"",""trial"",""time""
""fullscreenexit"",""26"",""458644""
","","","661.6999999999534","","","11","1224","285","&#9730;","elianto","#3366ff99"," "," ","1","+10","[1514.3999999999069,2608]","2","1","","","1224","6","1","1","win","go","0","0"
"pit-trial","82","1040614","0.0-10.0","battery-v0.2","","""event"",""trial"",""time""
""fullscreenenter"",""1"",""2269""
""fullscreenexit"",""26"",""458644""
""blur"",""26"",""460873""
""focus"",""26"",""489765""
""blur"",""37"",""552257""
""focus"",""37"",""553308""
""blur"",""37"",""554685""
""focus"",""38"",""556511""
""blur"",""38"",""558192""
""focus"",""39"",""561443""
""blur"",""39"",""562865""
""focus"",""41"",""573813""
""blur"",""57"",""817959""
""focus"",""57"",""822246""
""blur"",""57"",""834659""
""focus"",""57"",""834853""
","""event"",""trial"",""time""
""blur"",""26"",""460873""
""blur"",""37"",""552257""
""blur"",""37"",""554685""
""blur"",""38"",""558192""
""blur"",""39"",""562865""
""blur"",""57"",""817959""
""blur"",""57"",""834659""
","""event"",""trial"",""time""
""focus"",""26"",""489765""
""focus"",""37"",""553308""
""focus"",""38"",""556511""
""focus"",""39"",""561443""
""focus"",""41"",""573813""
""focus"",""57"",""822246""
""focus"",""57"",""834853""
","""event"",""trial"",""time""
""fullscreenenter"",""1"",""2269""
","""event"",""trial"",""time""
""fullscreenexit"",""26"",""458644""
","","","1136.6000000000931","","","11","1224","285","&#9752;","elianto","#f73b6a7A"," "," ","1","0","[1991.7000000001863]","1","1","","","1224","7","3","3","lose","go","0","0"
"pit-trial","83","1044418","0.0-11.0","battery-v0.2","","""event"",""trial"",""time""
""fullscreenenter"",""1"",""2269""
""fullscreenexit"",""26"",""458644""
""blur"",""26"",""460873""
""focus"",""26"",""489765""
""blur"",""37"",""552257""
""focus"",""37"",""553308""
""blur"",""37"",""554685""
""focus"",""38"",""556511""
""blur"",""38"",""558192""
""focus"",""39"",""561443""
""blur"",""39"",""562865""
""focus"",""41"",""573813""
""blur"",""57"",""817959""
""focus"",""57"",""822246""
""blur"",""57"",""834659""
""focus"",""57"",""834853""
","""event"",""trial"",""time""
""blur"",""26"",""460873""
""blur"",""37"",""552257""
""blur"",""37"",""554685""
""blur"",""38"",""558192""
""blur"",""39"",""562865""
""blur"",""57"",""817959""
""blur"",""57"",""834659""
","""event"",""trial"",""time""
""focus"",""26"",""489765""
""focus"",""37"",""553308""
""focus"",""38"",""556511""
""focus"",""39"",""561443""
""focus"",""41"",""573813""
""focus"",""57"",""822246""
""focus"",""57"",""834853""
","""event"",""trial"",""time""
""fullscreenenter"",""1"",""2269""
","""event"",""trial"",""time""
""fullscreenexit"",""26"",""458644""
","","","948.8000000000466","","","11","1224","285","&#9728;","elianto","#f73b6a7A","-1"," ","0","-10","[1799.5999999998603,2719.0999999998603]","2","1","","","1224","8","0","4","lose","no-go","0","0"
"pit-trial","84","1048166","0.0-12.0","battery-v0.2","","""event"",""trial"",""time""
""fullscreenenter"",""1"",""2269""
""fullscreenexit"",""26"",""458644""
""blur"",""26"",""460873""
""focus"",""26"",""489765""
""blur"",""37"",""552257""
""focus"",""37"",""553308""
""blur"",""37"",""554685""
""focus"",""38"",""556511""
""blur"",""38"",""558192""
""focus"",""39"",""561443""
""blur"",""39"",""562865""
""focus"",""41"",""573813""
""blur"",""57"",""817959""
""focus"",""57"",""822246""
""blur"",""57"",""834659""
""focus"",""57"",""834853""
","""event"",""trial"",""time""
""blur"",""26"",""460873""
""blur"",""37"",""552257""
""blur"",""37"",""554685""
""blur"",""38"",""558192""
""blur"",""39"",""562865""
""blur"",""57"",""817959""
""blur"",""57"",""834659""
","""event"",""trial"",""time""
""focus"",""26"",""489765""
""focus"",""37"",""553308""
""focus"",""38"",""556511""
""focus"",""39"",""561443""
""focus"",""41"",""573813""
""focus"",""57"",""822246""
""focus"",""57"",""834853""
","""event"",""trial"",""time""
""fullscreenenter"",""1"",""2269""
","""event"",""trial"",""time""
""fullscreenexit"",""26"",""458644""
","","","892.3999999997905","","","11","1224","285","&#9733;","elianto","#3366ff99","-1"," ","0","+10","[1743.2000000003027]","1","1","","","1224","9","2","2","win","no-go","1","0"
"pit-trial","85","1053021","0.0-13.0","battery-v0.2","","""event"",""trial"",""time""
""fullscreenenter"",""1"",""2269""
""fullscreenexit"",""26"",""458644""
""blur"",""26"",""460873""
""focus"",""26"",""489765""
""blur"",""37"",""552257""
""focus"",""37"",""553308""
""blur"",""37"",""554685""
""focus"",""38"",""556511""
""blur"",""38"",""558192""
""focus"",""39"",""561443""
""blur"",""39"",""562865""
""focus"",""41"",""573813""
""blur"",""57"",""817959""
""focus"",""57"",""822246""
""blur"",""57"",""834659""
""focus"",""57"",""834853""
","""event"",""trial"",""time""
""blur"",""26"",""460873""
""blur"",""37"",""552257""
""blur"",""37"",""554685""
""blur"",""38"",""558192""
""blur"",""39"",""562865""
""blur"",""57"",""817959""
""blur"",""57"",""834659""
","""event"",""trial"",""time""
""focus"",""26"",""489765""
""focus"",""37"",""553308""
""focus"",""38"",""556511""
""focus"",""39"",""561443""
""focus"",""41"",""573813""
""focus"",""57"",""822246""
""focus"",""57"",""834853""
","""event"",""trial"",""time""
""fullscreenenter"",""1"",""2269""
","""event"",""trial"",""time""
""fullscreenexit"",""26"",""458644""
","","","-1","","","11","1224","285","&#9728;","elianto","#f73b6a7A","-1","-1","1","0","[]","0","1","","","1224","10","0","4","lose","no-go","0","0"
"pit-trial","86","1056662","0.0-14.0","battery-v0.2","","""event"",""trial"",""time""
""fullscreenenter"",""1"",""2269""
""fullscreenexit"",""26"",""458644""
""blur"",""26"",""460873""
""focus"",""26"",""489765""
""blur"",""37"",""552257""
""focus"",""37"",""553308""
""blur"",""37"",""554685""
""focus"",""38"",""556511""
""blur"",""38"",""558192""
""focus"",""39"",""561443""
""blur"",""39"",""562865""
""focus"",""41"",""573813""
""blur"",""57"",""817959""
""focus"",""57"",""822246""
""blur"",""57"",""834659""
""focus"",""57"",""834853""
","""event"",""trial"",""time""
""blur"",""26"",""460873""
""blur"",""37"",""552257""
""blur"",""37"",""554685""
""blur"",""38"",""558192""
""blur"",""39"",""562865""
""blur"",""57"",""817959""
""blur"",""57"",""834659""
","""event"",""trial"",""time""
""focus"",""26"",""489765""
""focus"",""37"",""553308""
""focus"",""38"",""556511""
""focus"",""39"",""561443""
""focus"",""41"",""573813""
""focus"",""57"",""822246""
""focus"",""57"",""834853""
","""event"",""trial"",""time""
""fullscreenenter"",""1"",""2269""
","""event"",""trial"",""time""
""fullscreenexit"",""26"",""458644""
","","","784.7999999998137","","","11","1224","285","&#9730;","elianto","#3366ff99"," "," ","1","0","[1636.2999999998137]","1","1","","","1224","11","1","1","win","go","1","0"
"pit-trial","87","1061519","0.0-15.0","battery-v0.2","","""event"",""trial"",""time""
""fullscreenenter"",""1"",""2269""
""fullscreenexit"",""26"",""458644""
""blur"",""26"",""460873""
""focus"",""26"",""489765""
""blur"",""37"",""552257""
""focus"",""37"",""553308""
""blur"",""37"",""554685""
""focus"",""38"",""556511""
""blur"",""38"",""558192""
""focus"",""39"",""561443""
""blur"",""39"",""562865""
""focus"",""41"",""573813""
""blur"",""57"",""817959""
""focus"",""57"",""822246""
""blur"",""57"",""834659""
""focus"",""57"",""834853""
","""event"",""trial"",""time""
""blur"",""26"",""460873""
""blur"",""37"",""552257""
""blur"",""37"",""554685""
""blur"",""38"",""558192""
""blur"",""39"",""562865""
""blur"",""57"",""817959""
""blur"",""57"",""834659""
","""event"",""trial"",""time""
""focus"",""26"",""489765""
""focus"",""37"",""553308""
""focus"",""38"",""556511""
""focus"",""39"",""561443""
""focus"",""41"",""573813""
""focus"",""57"",""822246""
""focus"",""57"",""834853""
","""event"",""trial"",""time""
""fullscreenenter"",""1"",""2269""
","""event"",""trial"",""time""
""fullscreenexit"",""26"",""458644""
","","","-1","","","11","1224","285","&#9752;","elianto","#f73b6a7A"," ","-1","0","-10","[]","0","1","","","1224","12","3","3","lose","go","0","0"
"pit-trial","88","1065063","0.0-16.0","battery-v0.2","","""event"",""trial"",""time""
""fullscreenenter"",""1"",""2269""
""fullscreenexit"",""26"",""458644""
""blur"",""26"",""460873""
""focus"",""26"",""489765""
""blur"",""37"",""552257""
""focus"",""37"",""553308""
""blur"",""37"",""554685""
""focus"",""38"",""556511""
""blur"",""38"",""558192""
""focus"",""39"",""561443""
""blur"",""39"",""562865""
""focus"",""41"",""573813""
""blur"",""57"",""817959""
""focus"",""57"",""822246""
""blur"",""57"",""834659""
""focus"",""57"",""834853""
","""event"",""trial"",""time""
""blur"",""26"",""460873""
""blur"",""37"",""552257""
""blur"",""37"",""554685""
""blur"",""38"",""558192""
""blur"",""39"",""562865""
""blur"",""57"",""817959""
""blur"",""57"",""834659""
","""event"",""trial"",""time""
""focus"",""26"",""489765""
""focus"",""37"",""553308""
""focus"",""38"",""556511""
""focus"",""39"",""561443""
""focus"",""41"",""573813""
""focus"",""57"",""822246""
""focus"",""57"",""834853""
","""event"",""trial"",""time""
""fullscreenenter"",""1"",""2269""
","""event"",""trial"",""time""
""fullscreenexit"",""26"",""458644""
","","","688.1000000000931","","","11","1224","285","&#9752;","elianto","#f73b6a7A"," "," ","1","0","[1538.5]","1","1","","","1224","13","3","3","lose","go","0","0"
"pit-trial","89","1068631","0.0-17.0","battery-v0.2","","""event"",""trial"",""time""
""fullscreenenter"",""1"",""2269""
""fullscreenexit"",""26"",""458644""
""blur"",""26"",""460873""
""focus"",""26"",""489765""
""blur"",""37"",""552257""
""focus"",""37"",""553308""
""blur"",""37"",""554685""
""focus"",""38"",""556511""
""blur"",""38"",""558192""
""focus"",""39"",""561443""
""blur"",""39"",""562865""
""focus"",""41"",""573813""
""blur"",""57"",""817959""
""focus"",""57"",""822246""
""blur"",""57"",""834659""
""focus"",""57"",""834853""
","""event"",""trial"",""time""
""blur"",""26"",""460873""
""blur"",""37"",""552257""
""blur"",""37"",""554685""
""blur"",""38"",""558192""
""blur"",""39"",""562865""
""blur"",""57"",""817959""
""blur"",""57"",""834659""
","""event"",""trial"",""time""
""focus"",""26"",""489765""
""focus"",""37"",""553308""
""focus"",""38"",""556511""
""focus"",""39"",""561443""
""focus"",""41"",""573813""
""focus"",""57"",""822246""
""focus"",""57"",""834853""
","""event"",""trial"",""time""
""fullscreenenter"",""1"",""2269""
","""event"",""trial"",""time""
""fullscreenexit"",""26"",""458644""
","","","712.5","","","11","1224","285","&#9730;","elianto","#3366ff99"," "," ","1","0","[1562.8999999999069]","1","1","","","1224","14","1","1","win","go","1","0"
"pit-trial","90","1072064","0.0-18.0","battery-v0.2","","""event"",""trial"",""time""
""fullscreenenter"",""1"",""2269""
""fullscreenexit"",""26"",""458644""
""blur"",""26"",""460873""
""focus"",""26"",""489765""
""blur"",""37"",""552257""
""focus"",""37"",""553308""
""blur"",""37"",""554685""
""focus"",""38"",""556511""
""blur"",""38"",""558192""
""focus"",""39"",""561443""
""blur"",""39"",""562865""
""focus"",""41"",""573813""
""blur"",""57"",""817959""
""focus"",""57"",""822246""
""blur"",""57"",""834659""
""focus"",""57"",""834853""
","""event"",""trial"",""time""
""blur"",""26"",""460873""
""blur"",""37"",""552257""
""blur"",""37"",""554685""
""blur"",""38"",""558192""
""blur"",""39"",""562865""
""blur"",""57"",""817959""
""blur"",""57"",""834659""
","""event"",""trial"",""time""
""focus"",""26"",""489765""
""focus"",""37"",""553308""
""focus"",""38"",""556511""
""focus"",""39"",""561443""
""focus"",""41"",""573813""
""focus"",""57"",""822246""
""focus"",""57"",""834853""
","""event"",""trial"",""time""
""fullscreenenter"",""1"",""2269""
","""event"",""trial"",""time""
""fullscreenexit"",""26"",""458644""
","","","576.2000000001863","","","11","1224","285","&#9733;","elianto","#3366ff99","-1"," ","0","0","[1427.1000000000931]","1","1","","","1224","15","2","2","win","no-go","0","0"
"pit-trial","91","1076922","0.0-19.0","battery-v0.2","","""event"",""trial"",""time""
""fullscreenenter"",""1"",""2269""
""fullscreenexit"",""26"",""458644""
""blur"",""26"",""460873""
""focus"",""26"",""489765""
""blur"",""37"",""552257""
""focus"",""37"",""553308""
""blur"",""37"",""554685""
""focus"",""38"",""556511""
""blur"",""38"",""558192""
""focus"",""39"",""561443""
""blur"",""39"",""562865""
""focus"",""41"",""573813""
""blur"",""57"",""817959""
""focus"",""57"",""822246""
""blur"",""57"",""834659""
""focus"",""57"",""834853""
","""event"",""trial"",""time""
""blur"",""26"",""460873""
""blur"",""37"",""552257""
""blur"",""37"",""554685""
""blur"",""38"",""558192""
""blur"",""39"",""562865""
""blur"",""57"",""817959""
""blur"",""57"",""834659""
","""event"",""trial"",""time""
""focus"",""26"",""489765""
""focus"",""37"",""553308""
""focus"",""38"",""556511""
""focus"",""39"",""561443""
""focus"",""41"",""573813""
""focus"",""57"",""822246""
""focus"",""57"",""834853""
","""event"",""trial"",""time""
""fullscreenenter"",""1"",""2269""
","""event"",""trial"",""time""
""fullscreenexit"",""26"",""458644""
","","","-1","","","11","1224","285","&#9728;","elianto","#f73b6a7A","-1","-1","1","-10","[]","0","1","","","1224","16","0","4","lose","no-go","1","0"
"pit-trial","92","1081789","0.0-20.0","battery-v0.2","","""event"",""trial"",""time""
""fullscreenenter"",""1"",""2269""
""fullscreenexit"",""26"",""458644""
""blur"",""26"",""460873""
""focus"",""26"",""489765""
""blur"",""37"",""552257""
""focus"",""37"",""553308""
""blur"",""37"",""554685""
""focus"",""38"",""556511""
""blur"",""38"",""558192""
""focus"",""39"",""561443""
""blur"",""39"",""562865""
""focus"",""41"",""573813""
""blur"",""57"",""817959""
""focus"",""57"",""822246""
""blur"",""57"",""834659""
""focus"",""57"",""834853""
","""event"",""trial"",""time""
""blur"",""26"",""460873""
""blur"",""37"",""552257""
""blur"",""37"",""554685""
""blur"",""38"",""558192""
""blur"",""39"",""562865""
""blur"",""57"",""817959""
""blur"",""57"",""834659""
","""event"",""trial"",""time""
""focus"",""26"",""489765""
""focus"",""37"",""553308""
""focus"",""38"",""556511""
""focus"",""39"",""561443""
""focus"",""41"",""573813""
""focus"",""57"",""822246""
""focus"",""57"",""834853""
","""event"",""trial"",""time""
""fullscreenenter"",""1"",""2269""
","""event"",""trial"",""time""
""fullscreenexit"",""26"",""458644""
","","","-1","","","11","1224","285","&#9752;","elianto","#f73b6a7A"," ","-1","0","0","[]","0","1","","","1224","17","3","3","lose","go","1","0"
"pit-trial","93","1085586","0.0-21.0","battery-v0.2","","""event"",""trial"",""time""
""fullscreenenter"",""1"",""2269""
""fullscreenexit"",""26"",""458644""
""blur"",""26"",""460873""
""focus"",""26"",""489765""
""blur"",""37"",""552257""
""focus"",""37"",""553308""
""blur"",""37"",""554685""
""focus"",""38"",""556511""
""blur"",""38"",""558192""
""focus"",""39"",""561443""
""blur"",""39"",""562865""
""focus"",""41"",""573813""
""blur"",""57"",""817959""
""focus"",""57"",""822246""
""blur"",""57"",""834659""
""focus"",""57"",""834853""
","""event"",""trial"",""time""
""blur"",""26"",""460873""
""blur"",""37"",""552257""
""blur"",""37"",""554685""
""blur"",""38"",""558192""
""blur"",""39"",""562865""
""blur"",""57"",""817959""
""blur"",""57"",""834659""
","""event"",""trial"",""time""
""focus"",""26"",""489765""
""focus"",""37"",""553308""
""focus"",""38"",""556511""
""focus"",""39"",""561443""
""focus"",""41"",""573813""
""focus"",""57"",""822246""
""focus"",""57"",""834853""
","""event"",""trial"",""time""
""fullscreenenter"",""1"",""2269""
","""event"",""trial"",""time""
""fullscreenexit"",""26"",""458644""
","","","940.5","","","11","1224","285","&#9730;","elianto","#3366ff99"," "," ","1","+10","[1790.6999999997206]","1","1","","","1224","18","1","1","win","go","0","0"
"pit-trial","94","1089788","0.0-22.0","battery-v0.2","","""event"",""trial"",""time""
""fullscreenenter"",""1"",""2269""
""fullscreenexit"",""26"",""458644""
""blur"",""26"",""460873""
""focus"",""26"",""489765""
""blur"",""37"",""552257""
""focus"",""37"",""553308""
""blur"",""37"",""554685""
""focus"",""38"",""556511""
""blur"",""38"",""558192""
""focus"",""39"",""561443""
""blur"",""39"",""562865""
""focus"",""41"",""573813""
""blur"",""57"",""817959""
""focus"",""57"",""822246""
""blur"",""57"",""834659""
""focus"",""57"",""834853""
","""event"",""trial"",""time""
""blur"",""26"",""460873""
""blur"",""37"",""552257""
""blur"",""37"",""554685""
""blur"",""38"",""558192""
""blur"",""39"",""562865""
""blur"",""57"",""817959""
""blur"",""57"",""834659""
","""event"",""trial"",""time""
""focus"",""26"",""489765""
""focus"",""37"",""553308""
""focus"",""38"",""556511""
""focus"",""39"",""561443""
""focus"",""41"",""573813""
""focus"",""57"",""822246""
""focus"",""57"",""834853""
","""event"",""trial"",""time""
""fullscreenenter"",""1"",""2269""
","""event"",""trial"",""time""
""fullscreenexit"",""26"",""458644""
","","","1346.5","","","11","1224","285","&#9733;","elianto","#3366ff99","-1"," ","0","+10","[2197.100000000093]","1","1","","","1224","19","2","2","win","no-go","1","0"
"pit-trial","95","1093819","0.0-23.0","battery-v0.2","","""event"",""trial"",""time""
""fullscreenenter"",""1"",""2269""
""fullscreenexit"",""26"",""458644""
""blur"",""26"",""460873""
""focus"",""26"",""489765""
""blur"",""37"",""552257""
""focus"",""37"",""553308""
""blur"",""37"",""554685""
""focus"",""38"",""556511""
""blur"",""38"",""558192""
""focus"",""39"",""561443""
""blur"",""39"",""562865""
""focus"",""41"",""573813""
""blur"",""57"",""817959""
""focus"",""57"",""822246""
""blur"",""57"",""834659""
""focus"",""57"",""834853""
","""event"",""trial"",""time""
""blur"",""26"",""460873""
""blur"",""37"",""552257""
""blur"",""37"",""554685""
""blur"",""38"",""558192""
""blur"",""39"",""562865""
""blur"",""57"",""817959""
""blur"",""57"",""834659""
","""event"",""trial"",""time""
""focus"",""26"",""489765""
""focus"",""37"",""553308""
""focus"",""38"",""556511""
""focus"",""39"",""561443""
""focus"",""41"",""573813""
""focus"",""57"",""822246""
""focus"",""57"",""834853""
","""event"",""trial"",""time""
""fullscreenenter"",""1"",""2269""
","""event"",""trial"",""time""
""fullscreenexit"",""26"",""458644""
","","","1174.2000000001863","","","11","1224","285","&#9728;","elianto","#f73b6a7A","-1"," ","0","-10","[2024.1999999997206]","1","1","","","1224","20","0","4","lose","no-go","0","0"
"pit-instructions","96","1124554","0.0-24.0","battery-v0.2","","""event"",""trial"",""time""
""fullscreenenter"",""1"",""2269""
""fullscreenexit"",""26"",""458644""
""blur"",""26"",""460873""
""focus"",""26"",""489765""
""blur"",""37"",""552257""
""focus"",""37"",""553308""
""blur"",""37"",""554685""
""focus"",""38"",""556511""
""blur"",""38"",""558192""
""focus"",""39"",""561443""
""blur"",""39"",""562865""
""focus"",""41"",""573813""
""blur"",""57"",""817959""
""focus"",""57"",""822246""
""blur"",""57"",""834659""
""focus"",""57"",""834853""
","""event"",""trial"",""time""
""blur"",""26"",""460873""
""blur"",""37"",""552257""
""blur"",""37"",""554685""
""blur"",""38"",""558192""
""blur"",""39"",""562865""
""blur"",""57"",""817959""
""blur"",""57"",""834659""
","""event"",""trial"",""time""
""focus"",""26"",""489765""
""focus"",""37"",""553308""
""focus"",""38"",""556511""
""focus"",""39"",""561443""
""focus"",""41"",""573813""
""focus"",""57"",""822246""
""focus"",""57"",""834853""
","""event"",""trial"",""time""
""fullscreenenter"",""1"",""2269""
","""event"",""trial"",""time""
""fullscreenexit"",""26"",""458644""
","","[{""page_index"":0,""viewing_time"":24417},{""page_index"":1,""viewing_time"":6312.199999999721}]","30730.19999999972","","","","","","","","","","","","","","","","","","","","","","","","",""
"pit-trial","97","1128058","0.0-25.0","battery-v0.2","","""event"",""trial"",""time""
""fullscreenenter"",""1"",""2269""
""fullscreenexit"",""26"",""458644""
""blur"",""26"",""460873""
""focus"",""26"",""489765""
""blur"",""37"",""552257""
""focus"",""37"",""553308""
""blur"",""37"",""554685""
""focus"",""38"",""556511""
""blur"",""38"",""558192""
""focus"",""39"",""561443""
""blur"",""39"",""562865""
""focus"",""41"",""573813""
""blur"",""57"",""817959""
""focus"",""57"",""822246""
""blur"",""57"",""834659""
""focus"",""57"",""834853""
","""event"",""trial"",""time""
""blur"",""26"",""460873""
""blur"",""37"",""552257""
""blur"",""37"",""554685""
""blur"",""38"",""558192""
""blur"",""39"",""562865""
""blur"",""57"",""817959""
""blur"",""57"",""834659""
","""event"",""trial"",""time""
""focus"",""26"",""489765""
""focus"",""37"",""553308""
""focus"",""38"",""556511""
""focus"",""39"",""561443""
""focus"",""41"",""573813""
""focus"",""57"",""822246""
""focus"",""57"",""834853""
","""event"",""trial"",""time""
""fullscreenenter"",""1"",""2269""
","""event"",""trial"",""time""
""fullscreenexit"",""26"",""458644""
","","","643.6000000000931","","","11","1224","285","u","elianto","#3366ff99","-1"," ","0","0","[1494.6999999997206,2712.5999999996275,3392.899999999907]","3","2","","","1224","21","0","2","win","no-go","0","0"
"pit-trial","98","1132938","0.0-26.0","battery-v0.2","","""event"",""trial"",""time""
""fullscreenenter"",""1"",""2269""
""fullscreenexit"",""26"",""458644""
""blur"",""26"",""460873""
""focus"",""26"",""489765""
""blur"",""37"",""552257""
""focus"",""37"",""553308""
""blur"",""37"",""554685""
""focus"",""38"",""556511""
""blur"",""38"",""558192""
""focus"",""39"",""561443""
""blur"",""39"",""562865""
""focus"",""41"",""573813""
""blur"",""57"",""817959""
""focus"",""57"",""822246""
""blur"",""57"",""834659""
""focus"",""57"",""834853""
","""event"",""trial"",""time""
""blur"",""26"",""460873""
""blur"",""37"",""552257""
""blur"",""37"",""554685""
""blur"",""38"",""558192""
""blur"",""39"",""562865""
""blur"",""57"",""817959""
""blur"",""57"",""834659""
","""event"",""trial"",""time""
""focus"",""26"",""489765""
""focus"",""37"",""553308""
""focus"",""38"",""556511""
""focus"",""39"",""561443""
""focus"",""41"",""573813""
""focus"",""57"",""822246""
""focus"",""57"",""834853""
","""event"",""trial"",""time""
""fullscreenenter"",""1"",""2269""
","""event"",""trial"",""time""
""fullscreenexit"",""26"",""458644""
","","","-1","","","11","1224","285","g","elianto","#f73b6a7A"," ","-1","0","-10","[110.20000000018626,3018.5]","2","2","","","1224","22","3","3","lose","go","0","0"
"pit-trial","99","1136807","0.0-27.0","battery-v0.2","","""event"",""trial"",""time""
""fullscreenenter"",""1"",""2269""
""fullscreenexit"",""26"",""458644""
""blur"",""26"",""460873""
""focus"",""26"",""489765""
""blur"",""37"",""552257""
""focus"",""37"",""553308""
""blur"",""37"",""554685""
""focus"",""38"",""556511""
""blur"",""38"",""558192""
""focus"",""39"",""561443""
""blur"",""39"",""562865""
""focus"",""41"",""573813""
""blur"",""57"",""817959""
""focus"",""57"",""822246""
""blur"",""57"",""834659""
""focus"",""57"",""834853""
","""event"",""trial"",""time""
""blur"",""26"",""460873""
""blur"",""37"",""552257""
""blur"",""37"",""554685""
""blur"",""38"",""558192""
""blur"",""39"",""562865""
""blur"",""57"",""817959""
""blur"",""57"",""834659""
","""event"",""trial"",""time""
""focus"",""26"",""489765""
""focus"",""37"",""553308""
""focus"",""38"",""556511""
""focus"",""39"",""561443""
""focus"",""41"",""573813""
""focus"",""57"",""822246""
""focus"",""57"",""834853""
","""event"",""trial"",""time""
""fullscreenenter"",""1"",""2269""
","""event"",""trial"",""time""
""fullscreenexit"",""26"",""458644""
","","","1003.1999999997206","","","11","1224","285","a","elianto","#3366ff99"," "," ","1","+10","[1854.3999999999069]","1","2","","","1224","23","2","1","win","go","0","0"
"pit-trial","100","1140217","0.0-28.0","battery-v0.2","","""event"",""trial"",""time""
""fullscreenenter"",""1"",""2269""
""fullscreenexit"",""26"",""458644""
""blur"",""26"",""460873""
""focus"",""26"",""489765""
""blur"",""37"",""552257""
""focus"",""37"",""553308""
""blur"",""37"",""554685""
""focus"",""38"",""556511""
""blur"",""38"",""558192""
""focus"",""39"",""561443""
""blur"",""39"",""562865""
""focus"",""41"",""573813""
""blur"",""57"",""817959""
""focus"",""57"",""822246""
""blur"",""57"",""834659""
""focus"",""57"",""834853""
