"trial_type","trial_index","time_elapsed","internal_node_id","task_version","view_history","rt","rune","rune_set","hex","correct","choice","accuracy","outcome","keys","total_keys","block","practice","value","responses","num_errors","quiz"
"pavlovia","0","7","0.0-0.0","battery-v0.2","","","","","","","","","","","","","","","","",""
"pit-instructions","1","5690","0.0-1.0-0.0","battery-v0.2","[{""page_index"":0,""viewing_time"":2982.399999999907},{""page_index"":1,""viewing_time"":665.1000000000931},{""page_index"":2,""viewing_time"":196.39999999990687},{""page_index"":3,""viewing_time"":156.30000000004657},{""page_index"":4,""viewing_time"":155.5999999998603},{""page_index"":5,""viewing_time"":282.4000000001397},{""page_index"":6,""viewing_time"":147.39999999990687},{""page_index"":7,""viewing_time"":140.5},{""page_index"":8,""viewing_time"":360.10000000009313},{""page_index"":9,""viewing_time"":139.5999999998603},{""page_index"":10,""viewing_time"":290},{""page_index"":11,""viewing_time"":164.20000000018626}]","5681.399999999907","","","","","","","","","","","","","","",""
"pit-trial","2","7906","0.0-1.0-1.0-0.0","battery-v0.2","","211.30000000004657","&#9776;","elianto","#3366ff99","32","32","1","+10","1711.3000000000466","1","0","1","","","",""
"pit-trial","3","10015","0.0-1.0-1.0-1.0","battery-v0.2","","106.19999999995343","&#9776;","elianto","#3366ff99","32","32","1","+10","1606.3000000000466","1","0","1","","","",""
"pit-trial","4","12424","0.0-1.0-1.0-2.0","battery-v0.2","","406","&#9776;","elianto","#3366ff99","32","32","1","+10","1457.1000000000931,1905.9000000001397","2","0","1","","","",""
"pit-trial","5","14584","0.0-1.0-1.0-3.0","battery-v0.2","","155.10000000009313","&#9776;","elianto","#3366ff99","32","32","1","0","1655.1999999999534","1","0","1","","","",""
"pit-trial","6","16759","0.0-1.0-1.0-4.0","battery-v0.2","","172.80000000004657","&#9776;","elianto","#3366ff99","32","32","1","+10","1672.7999999998137","1","0","1","","","",""
"call-function","7","16761","0.0-1.0-2.0","battery-v0.2","","","","","","","","","","","","","","","","",""
"pit-instructions","8","20059","0.0-1.0-3.0","battery-v0.2","[{""page_index"":0,""viewing_time"":1732.6999999999534},{""page_index"":1,""viewing_time"":538},{""page_index"":2,""viewing_time"":322},{""page_index"":3,""viewing_time"":164},{""page_index"":4,""viewing_time"":156.19999999995343},{""page_index"":5,""viewing_time"":384.20000000018626}]","3297.899999999907","","","","","","","","","","","","","","",""
"pit-trial","9","22563","0.0-1.0-4.0-0.0","battery-v0.2","","-1","&#9761;","elianto","#3366ff99","-1","-1","1","+10","","0","0","2","","","",""
"pit-trial","10","25067","0.0-1.0-4.0-1.0","battery-v0.2","","-1","&#9761;","elianto","#3366ff99","-1","-1","1","+10","","0","0","2","","","",""
"pit-trial","11","27570","0.0-1.0-4.0-2.0","battery-v0.2","","-1","&#9761;","elianto","#3366ff99","-1","-1","1","+10","","0","0","2","","","",""
"pit-trial","12","30072","0.0-1.0-4.0-3.0","battery-v0.2","","-1","&#9761;","elianto","#3366ff99","-1","-1","1","+10","","0","0","2","","","",""
"pit-trial","13","32574","0.0-1.0-4.0-4.0","battery-v0.2","","-1","&#9761;","elianto","#3366ff99","-1","-1","1","0","","0","0","2","","","",""
"call-function","14","32577","0.0-1.0-5.0","battery-v0.2","","","","","","","","","","","","","","","","",""
"pit-instructions","15","41627","0.0-1.0-6.0","battery-v0.2","[{""page_index"":0,""viewing_time"":6124.300000000279},{""page_index"":1,""viewing_time"":1642.1999999997206},{""page_index"":2,""viewing_time"":484.10000000009313},{""page_index"":3,""viewing_time"":421.20000000018626},{""page_index"":4,""viewing_time"":376.79999999981374}]","9049.400000000373","","","","","","","","","","","","","","",""
"pit-trial","16","44133","0.0-1.0-7.0-0.0","battery-v0.2","","-1","&#9826;","elianto","#f73b6a7A","-1","-1","1","0","","0","0","3","","","",""
"pit-trial","17","46635","0.0-1.0-7.0-1.0","battery-v0.2","","-1","&#9826;","elianto","#f73b6a7A","-1","-1","1","0","","0","0","3","","","",""
"pit-trial","18","49139","0.0-1.0-7.0-2.0","battery-v0.2","","-1","&#9826;","elianto","#f73b6a7A","-1","-1","1","-10","","0","0","3","","","",""
"pit-trial","19","51642","0.0-1.0-7.0-3.0","battery-v0.2","","-1","&#9826;","elianto","#f73b6a7A","-1","-1","1","0","","0","0","3","","","",""
"pit-trial","20","54145","0.0-1.0-7.0-4.0","battery-v0.2","","-1","&#9826;","elianto","#f73b6a7A","-1","-1","1","0","","0","0","3","","","",""
"call-function","21","54147","0.0-1.0-8.0","battery-v0.2","","","","","","","","","","","","","","","","",""
"pit-instructions","22","67439","0.0-1.0-9.0","battery-v0.2","[{""page_index"":0,""viewing_time"":12986.200000000186},{""page_index"":1,""viewing_time"":304}]","13291","","","","","","","","","","","","","","",""
"pit-trial","23","69664","0.0-1.0-10.0-0.0","battery-v0.2","","221.5","&#9789;","elianto","#f73b6a7A","32","32","1","0","1721.3999999999069","1","0","4","","","",""
"pit-trial","24","71687","0.0-1.0-10.0-1.0","battery-v0.2","","20.5","&#9789;","elianto","#f73b6a7A","32","32","1","0","1520.6000000000931","1","0","4","","","",""
"pit-trial","25","73824","0.0-1.0-10.0-2.0","battery-v0.2","","133.70000000018626","&#9789;","elianto","#f73b6a7A","32","32","1","0","1257.7000000001863,1633.7000000001863","2","0","4","","","",""
"pit-trial","26","75984","0.0-1.0-10.0-3.0","battery-v0.2","","157","&#9789;","elianto","#f73b6a7A","32","32","1","0","1657","1","0","4","","","",""
"pit-trial","27","78320","0.0-1.0-10.0-4.0","battery-v0.2","","333.89999999990687","&#9789;","elianto","#f73b6a7A","32","32","1","-10","1833.8999999999069","1","0","4","","","",""
"call-function","28","78321","0.0-1.0-11.0","battery-v0.2","","","","","","","","","","","","","","","","",""
"pit-instructions","29","81429","0.0-1.0-12.0","battery-v0.2","[{""page_index"":0,""viewing_time"":1520.8999999999069},{""page_index"":1,""viewing_time"":139.3000000002794},{""page_index"":2,""viewing_time"":164.5},{""page_index"":3,""viewing_time"":179.59999999962747},{""page_index"":4,""viewing_time"":382},{""page_index"":5,""viewing_time"":353.8000000002794},{""page_index"":6,""viewing_time"":366.5}]","3107.5","","","","","","","","","","","","","","",""
"pit-comprehension","30","89344","0.0-1.0-13.0","battery-v0.2","","7909.200000000186","","","","","","","","","","","","","SPACE,10,10,True,True,True","0","1"
