"trial_type","trial_index","time_elapsed","internal_node_id","task_version","view_history","rt","rune","rune_set","hex","correct","choice","accuracy","outcome","keys","total_keys","block","practice","value","responses","num_errors","sub","trial","stimulus","robot","valence","action","sham"
"pavlovia","0","48","0.0-0.0","battery-v0.2","","","","","","","","","","","","","","","","","","","","","","",""
"pit-instructions","1","35744","0.0-1.0-0.0","battery-v0.2","[{""page_index"":0,""viewing_time"":2887.9799998831004},{""page_index"":1,""viewing_time"":2320.035000098869},{""page_index"":2,""viewing_time"":3734.6749999560416},{""page_index"":3,""viewing_time"":3011.3999999593943},{""page_index"":4,""viewing_time"":4248.0650001671165},{""page_index"":5,""viewing_time"":2544.5049998816103},{""page_index"":6,""viewing_time"":2978.0349999200553},{""page_index"":7,""viewing_time"":5260.075000114739},{""page_index"":8,""viewing_time"":5510.964999906719},{""page_index"":9,""viewing_time"":3191.1250001285225}]","35688.2199998945","","","","","","","","","","","","","","","","","","","","",""
"pit-trial","2","38992","0.0-1.0-1.0-0.0","battery-v0.2","","534.4450001139194","1","elianto","#3366ff99","32","32","1","+10","2035.4599999263883","1","0","1","","","","","","","","","",""
"pit-trial","3","42003","0.0-1.0-1.1-0.1","battery-v0.2","","297.77500010095537","1","elianto","#3366ff99","32","32","1","+10","1798.7349999602884","1","0","1","","","","","","","","","",""
"pit-trial","4","44924","0.0-1.0-1.2-0.2","battery-v0.2","","207.28500001132488","1","elianto","#3366ff99","32","32","1","+10","1707.674999954179","1","0","1","","","","","","","","","",""
"pit-trial","5","47951","0.0-1.0-1.3-0.3","battery-v0.2","","313.3600000292063","1","elianto","#3366ff99","32","32","1","+10","1813.9499998651445","1","0","1","","","","","","","","","",""
"call-function","6","47955","0.0-1.0-2.0","battery-v0.2","","","","","","","","","","","","","","","","","","","","","","",""
"pit-instructions","7","54592","0.0-1.0-3.0","battery-v0.2","[{""page_index"":0,""viewing_time"":3999.274999834597},{""page_index"":1,""viewing_time"":2636.3100002054125}]","6636.219999985769","","","","","","","","","","","","","","","","","","","","",""
"pit-trial","8","57537","0.0-1.0-4.0-0.0","battery-v0.2","","232.31500014662743","2","elianto","#3366ff99","-1","32","0","+1","1733.1050001084805","1","0","2","","","","","","","","","",""
"pit-trial","9","60450","0.0-1.0-4.1-0.1","battery-v0.2","","192.73499981500208","2","elianto","#3366ff99","-1","32","0","+1","1693.9799999818206","1","0","2","","","","","","","","","",""
"pit-trial","10","63836","0.0-1.0-4.2-0.2","battery-v0.2","","666.1149999126792","2","elianto","#3366ff99","-1","32","0","+1","2167.054999852553","1","0","2","","","","","","","","","",""
"pit-trial","11","67855","0.0-1.0-4.3-0.3","battery-v0.2","","-1","2","elianto","#3366ff99","-1","-1","1","+10","","0","0","2","","","","","","","","","",""
"pit-trial","12","71873","0.0-1.0-4.4-0.4","battery-v0.2","","-1","2","elianto","#3366ff99","-1","-1","1","+10","","0","0","2","","","","","","","","","",""
"pit-trial","13","75891","0.0-1.0-4.5-0.5","battery-v0.2","","-1","2","elianto","#3366ff99","-1","-1","1","+10","","0","0","2","","","","","","","","","",""
"call-function","14","75892","0.0-1.0-5.0","battery-v0.2","","","","","","","","","","","","","","","","","","","","","","",""
"pit-instructions","15","87377","0.0-1.0-6.0","battery-v0.2","[{""page_index"":0,""viewing_time"":8030.7700000703335},{""page_index"":1,""viewing_time"":3453.8149998988956}]","11484.9900000263","","","","","","","","","","","","","","","","","","","","",""
"pit-trial","16","90751","0.0-1.0-7.0-0.0","battery-v0.2","","664.6000000182539","3","elianto","#f73b6a7A","-1","32","0","-10","2165.705000050366","1","0","3","","","","","","","","","",""
"pit-trial","17","94767","0.0-1.0-7.1-0.1","battery-v0.2","","-1","3","elianto","#f73b6a7A","-1","-1","1","-1","","0","0","3","","","","","","","","","",""
"pit-trial","18","98778","0.0-1.0-7.2-0.2","battery-v0.2","","-1","3","elianto","#f73b6a7A","-1","-1","1","-1","","0","0","3","","","","","","","","","",""
"pit-trial","19","102788","0.0-1.0-7.3-0.3","battery-v0.2","","-1","3","elianto","#f73b6a7A","-1","-1","1","-1","","0","0","3","","","","","","","","","",""
"call-function","20","102789","0.0-1.0-8.0","battery-v0.2","","","","","","","","","","","","","","","","","","","","","","",""
"pit-instructions","21","111246","0.0-1.0-9.0","battery-v0.2","[{""page_index"":0,""viewing_time"":6627.735000103712},{""page_index"":1,""viewing_time"":1827.9699999839067}]","8456.419999944046","","","","","","","","","","","","","","","","","","","","",""
"pit-trial","22","114652","0.0-1.0-10.0-0.0","battery-v0.2","","693.8799999188632","4","elianto","#f73b6a7A","32","32","1","-1","2194.6250000037253","1","0","4","","","","","","","","","",""
"pit-trial","23","117789","0.0-1.0-10.1-0.1","battery-v0.2","","419.7400000412017","4","elianto","#f73b6a7A","32","32","1","-1","1920.3949999064207","1","0","4","","","","","","","","","",""
"pit-trial","24","120922","0.0-1.0-10.2-0.2","battery-v0.2","","413.2349998690188","4","elianto","#f73b6a7A","32","32","1","-1","1914.5299999509007","1","0","4","","","","","","","","","",""
"pit-trial","25","123876","0.0-1.0-10.3-0.3","battery-v0.2","","249.00999991223216","4","elianto","#f73b6a7A","32","32","1","-1","1750.125000020489","1","0","4","","","","","","","","","",""
"call-function","26","123876","0.0-1.0-11.0","battery-v0.2","","","","","","","","","","","","","","","","","","","","","","",""
"pit-instructions","27","135293","0.0-1.0-12.0","battery-v0.2","[{""page_index"":0,""viewing_time"":1285.6449999380857},{""page_index"":1,""viewing_time"":3261.9950000662357},{""page_index"":2,""viewing_time"":2712.4799999874085},{""page_index"":3,""viewing_time"":1413.2499999832362},{""page_index"":4,""viewing_time"":1606.7500000353903},{""page_index"":5,""viewing_time"":1135.5149999726564}]","11416.119999950752","","","","","","","","","","","","","","","","","","","","",""
"pit-comprehension","28","148676","0.0-1.0-13.0","battery-v0.2","","13379.174999892712","","","","","","","","","","","","","Press SPACE,+10,-1,True,True","0","","","","","","",""
"pit-instructions","29","153044","0.0-2.0","battery-v0.2","[{""page_index"":0,""viewing_time"":1495.5200001131743},{""page_index"":1,""viewing_time"":2866.5099998470396}]","4362.470000050962","","","","","","","","","","","","","","","","","","","","",""
"pit-trial","30","156095","0.0-3.0","battery-v0.2","","331.20000013150275","A","elianto","#f73b6a7A","-1","32","0","-10","1832.4300001841038","1","1","","","","","170","1","2","4","lose","no-go","0"
"pit-trial","31","159167","0.0-4.0","battery-v0.2","","360.3350000921637","U","elianto","#3366ff99","-1","32","0","+10","1861.815000185743","1","1","","","","","170","2","0","2","win","no-go","1"
"pit-trial","32","162270","0.0-5.0","battery-v0.2","","399.29500012658536","L","elianto","#f73b6a7A","32","32","1","-1","1899.8999998439103","1","1","","","","","170","3","1","3","lose","go","0"
"pit-trial","33","165426","0.0-6.0","battery-v0.2","","443.80000000819564","G","elianto","#3366ff99","32","32","1","+10","1944.774999981746","1","1","","","","","170","4","3","1","win","go","0"
"pit-trial","34","168706","0.0-7.0","battery-v0.2","","567.754999967292","G","elianto","#3366ff99","32","32","1","+10","2068.635000148788","1","1","","","","","170","5","3","1","win","go","0"
"pit-trial","35","172723","0.0-8.0","battery-v0.2","","-1","A","elianto","#f73b6a7A","-1","-1","1","-10","3719.9799998197705","1","1","","","","","170","6","2","4","lose","no-go","1"
"pit-trial","36","176055","0.0-9.0","battery-v0.2","","613.6950000654906","L","elianto","#f73b6a7A","32","32","1","-1","2114.79500005953","1","1","","","","","170","7","1","3","lose","go","0"
"pit-trial","37","179141","0.0-10.0","battery-v0.2","","382.1650000754744","U","elianto","#3366ff99","-1","32","0","+1","1882.224999833852","1","1","","","","","170","8","0","2","win","no-go","0"
"pit-trial","38","182357","0.0-11.0","battery-v0.2","","497.7849998977035","G","elianto","#3366ff99","32","32","1","+10","1998.325000051409","1","1","","","","","170","9","3","1","win","go","0"
"pit-trial","39","185421","0.0-12.0","battery-v0.2","","349.8499998822808","L","elianto","#f73b6a7A","32","32","1","-1","1851.3450000900775","1","1","","","","","170","10","1","3","lose","go","0"
"pit-trial","40","188397","0.0-13.0","battery-v0.2","","263.79500003531575","A","elianto","#f73b6a7A","-1","32","0","-1","1764.3850001040846","1","1","","","","","170","11","2","4","lose","no-go","1"
"pit-trial","41","191357","0.0-14.0","battery-v0.2","","254.50500007718801","U","elianto","#3366ff99","-1","32","0","+1","1755.1299999468029","1","1","","","","","170","12","0","2","win","no-go","0"
"pit-trial","42","194288","0.0-15.0","battery-v0.2","","227.29500010609627","U","elianto","#3366ff99","-1","32","0","+1","1728.1599999405444","1","1","","","","","170","13","0","2","win","no-go","0"
"pit-trial","43","197842","0.0-16.0","battery-v0.2","","842.1100000850856","L","elianto","#f73b6a7A","32","32","1","-10","2342.8150000981987","1","1","","","","","170","14","1","3","lose","go","1"
"pit-trial","44","201119","0.0-17.0","battery-v0.2","","557.6800000853837","A","elianto","#f73b6a7A","-1","32","0","-1","2058.6749999783933","1","1","","","","","170","15","2","4","lose","no-go","1"
"pit-trial","45","204186","0.0-18.0","battery-v0.2","","362.5099998898804","G","elianto","#3366ff99","32","32","1","+10","1862.8449998795986","1","1","","","","","170","16","3","1","win","go","0"
"pit-trial","46","207149","0.0-19.0","battery-v0.2","","251.88999995589256","U","elianto","#3366ff99","-1","32","0","+1","1753.020000178367","1","1","","","","","170","17","0","2","win","no-go","0"
"pit-trial","47","210429","0.0-20.0","battery-v0.2","","562.3950001318008","A","elianto","#f73b6a7A","-1","32","0","-10","2063.730000052601","1","1","","","","","170","18","2","4","lose","no-go","0"
"pit-trial","48","213640","0.0-21.0","battery-v0.2","","505.2849999628961","G","elianto","#3366ff99","32","32","1","+10","2006.7100001033396","1","1","","","","","170","19","3","1","win","go","0"
"pit-trial","49","216759","0.0-22.0","battery-v0.2","","400.51999990828335","L","elianto","#f73b6a7A","32","32","1","-1","1901.5099999960512","1","1","","","","","170","20","1","3","lose","go","0"
"pit-trial","50","219782","0.0-23.0","battery-v0.2","","303.8749999832362","L","elianto","#f73b6a7A","32","32","1","-1","1805.1850001793355","1","1","","","","","170","21","1","3","lose","go","0"
"pit-trial","51","222777","0.0-24.0","battery-v0.2","","285.37499997764826","U","elianto","#3366ff99","-1","32","0","+1","1785.4249998927116","1","1","","","","","170","22","0","2","win","no-go","0"
"pit-trial","52","226110","0.0-25.0","battery-v0.2","","615.6850000843406","G","elianto","#3366ff99","32","32","1","+10","2117.619999917224","1","1","","","","","170","23","3","1","win","go","0"
"pit-trial","53","229332","0.0-26.0","battery-v0.2","","511.70999999158084","A","elianto","#f73b6a7A","-1","32","0","-10","2013.5149999987334","1","1","","","","","170","24","2","4","lose","no-go","0"
"pit-trial","54","232394","0.0-27.0","battery-v0.2","","350.3399998880923","U","elianto","#3366ff99","-1","32","0","+1","1851.8550000153482","1","1","","","","","170","25","0","2","win","no-go","0"
"pit-trial","55","235542","0.0-28.0","battery-v0.2","","433.614999987185","G","elianto","#3366ff99","32","32","1","+10","1935.2100000251085","1","1","","","","","170","26","3","1","win","go","0"
"pit-trial","56","238954","0.0-29.0","battery-v0.2","","704.399999929592","A","elianto","#f73b6a7A","-1","32","0","-10","2205.6249999441206","1","1","","","","","170","27","2","4","lose","no-go","0"
"pit-trial","57","242314","0.0-30.0","battery-v0.2","","648.2800000812858","L","elianto","#f73b6a7A","32","32","1","-1","2149.730000179261","1","1","","","","","170","28","1","3","lose","go","0"
"pit-trial","58","245373","0.0-31.0","battery-v0.2","","346.47500002756715","G","elianto","#3366ff99","32","32","1","+10","1846.5599999763072","1","1","","","","","170","29","3","1","win","go","0"
"pit-trial","59","248365","0.0-32.0","battery-v0.2","","279.5849998947233","U","elianto","#3366ff99","-1","32","0","+1","1780.3700000513345","1","1","","","","","170","30","0","2","win","no-go","0"
"pit-trial","60","251607","0.0-33.0","battery-v0.2","","532.8800000716001","A","elianto","#f73b6a7A","-1","32","0","-1","2033.9750000275671","1","1","","","","","170","31","2","4","lose","no-go","1"
"pit-trial","61","255037","0.0-34.0","battery-v0.2","","714.4150000531226","L","elianto","#f73b6a7A","32","32","1","-1","2215.6599999871105","1","1","","","","","170","32","1","3","lose","go","0"
"pit-trial","62","258299","0.0-35.0","battery-v0.2","","543.9450000412762","P","elianto","#f73b6a7A","32","32","1","-10","2044.8750001378357","1","1","","","","","170","33","4","3","lose","go","1"
"pit-trial","63","261954","0.0-36.0","battery-v0.2","","947.5800001528114","S","elianto","#f73b6a7A","-1","32","0","-10","2447.8100000414997","1","1","","","","","170","34","5","4","lose","no-go","0"
"pit-trial","64","265104","0.0-37.0","battery-v0.2","","444.36000008136034","A","elianto","#f73b6a7A","-1","32","0","-10","1945.8550000563264","1","1","","","","","170","35","2","4","lose","no-go","0"
"pit-trial","65","268096","0.0-38.0","battery-v0.2","","284.26999994553626","L","elianto","#f73b6a7A","32","32","1","-10","1785.3850000537932","1","1","","","","","170","36","1","3","lose","go","1"
"pit-trial","66","271668","0.0-39.0","battery-v0.2","","864.2249999102205","A","elianto","#f73b6a7A","-1","32","0","-1","2364.999999990687","1","1","","","","","170","37","2","4","lose","no-go","1"
"pit-trial","67","275673","0.0-40.0","battery-v0.2","","-1","L","elianto","#f73b6a7A","32","-1","0","-1","","0","1","","","","","170","38","1","3","lose","go","1"
"pit-trial","68","279688","0.0-41.0","battery-v0.2","","-1","S","elianto","#f73b6a7A","-1","-1","1","-1","","0","1","","","","","170","39","5","4","lose","no-go","0"
"pit-trial","69","283698","0.0-42.0","battery-v0.2","","-1","P","elianto","#f73b6a7A","32","-1","0","-10","3287.660000147298","1","1","","","","","170","40","4","3","lose","go","0"
"pit-trial","70","287005","0.0-43.0","battery-v0.2","","603.7900000810623","S","elianto","#f73b6a7A","-1","32","0","-1","2103.9150001015514","1","1","","","","","170","41","5","4","lose","no-go","1"
"pit-trial","71","291013","0.0-44.0","battery-v0.2","","1301.3250001240522","P","elianto","#f73b6a7A","32","32","1","-1","2801.4099998399615","1","1","","","","","170","42","4","3","lose","go","0"
"pit-trial","72","294915","0.0-45.0","battery-v0.2","","1195.575000019744","A","elianto","#f73b6a7A","-1","32","0","-1","2696.7400000430644","1","1","","","","","170","43","2","4","lose","no-go","1"
"pit-trial","73","298516","0.0-46.0","battery-v0.2","","890.0750000029802","W","elianto","#3366ff99","-1","32","0","+1","2391.7449999134988","1","1","","","","","170","44","6","2","win","no-go","0"
"pit-trial","74","301971","0.0-47.0","battery-v0.2","","745.3150001820177","P","elianto","#f73b6a7A","32","32","1","-1","2247.124999994412","1","1","","","","","170","45","4","3","lose","go","0"
"pit-trial","75","305993","0.0-48.0","battery-v0.2","","-1","S","elianto","#f73b6a7A","-1","-1","1","-10","3218.8600001391023","1","1","","","","","170","46","5","4","lose","no-go","1"
"pit-trial","76","309050","0.0-49.0","battery-v0.2","","341.09000000171363","A","elianto","#f73b6a7A","-1","32","0","-10","1842.2799999825656","1","1","","","","","170","47","2","4","lose","no-go","0"
"pit-trial","77","312182","0.0-50.0","battery-v0.2","","411.189999897033","W","elianto","#3366ff99","-1","32","0","+1","1912.6649999525398","1","1","","","","","170","48","6","2","win","no-go","0"
"pit-trial","78","316202","0.0-51.0","battery-v0.2","","-1","S","elianto","#f73b6a7A","-1","-1","1","-1","3085.610000183806","1","1","","","","","170","49","5","4","lose","no-go","0"
"pit-trial","79","319866","0.0-52.0","battery-v0.2","","939.7899999748915","E","elianto","#3366ff99","32","32","1","+10","2440.7599999103695","1","1","","","","","170","50","7","1","win","go","0"
"pit-trial","80","323884","0.0-53.0","battery-v0.2","","-1","W","elianto","#3366ff99","-1","-1","1","+10","3094.285000115633","1","1","","","","","170","51","6","2","win","no-go","0"
"pit-trial","81","327321","0.0-54.0","battery-v0.2","","727.0549999084324","P","elianto","#f73b6a7A","32","32","1","-1","2227.204999886453","1","1","","","","","170","52","4","3","lose","go","0"
"pit-trial","82","331331","0.0-55.0","battery-v0.2","","-1","E","elianto","#3366ff99","32","-1","0","+10","2872.1499999519438","1","1","","","","","170","53","7","1","win","go","1"
"pit-trial","83","335339","0.0-56.0","battery-v0.2","","-1","W","elianto","#3366ff99","-1","-1","1","+10","2885.8900000341237","1","1","","","","","170","54","6","2","win","no-go","0"
"pit-trial","84","338481","0.0-57.0","battery-v0.2","","433.4899999666959","S","elianto","#f73b6a7A","-1","32","0","-10","1933.6500000208616","1","1","","","","","170","55","5","4","lose","no-go","0"
"pit-trial","85","342494","0.0-58.0","battery-v0.2","","-1","P","elianto","#f73b6a7A","32","-1","0","-1","","0","1","","","","","170","56","4","3","lose","go","1"
"pit-trial","86","345965","0.0-59.0","battery-v0.2","","751.7449997831136","E","elianto","#3366ff99","32","32","1","+1","2252.9349999967963","1","1","","","","","170","57","7","1","win","go","1"
"pit-trial","87","349970","0.0-60.0","battery-v0.2","","-1","S","elianto","#f73b6a7A","-1","-1","1","-1","","0","1","","","","","170","58","5","4","lose","no-go","0"
"pit-trial","88","353694","0.0-61.0","battery-v0.2","","1013.9399999752641","W","elianto","#3366ff99","-1","32","0","+10","2515.1549999136478","1","1","","","","","170","59","6","2","win","no-go","1"
"pit-trial","89","357647","0.0-62.0","battery-v0.2","","1241.3750002160668","P","elianto","#f73b6a7A","32","32","1","-1","2742.240000050515","1","1","","","","","170","60","4","3","lose","go","0"
"pit-trial","90","361001","0.0-63.0","battery-v0.2","","635.8300000429153","W","elianto","#3366ff99","-1","32","0","+1","2136.6200000047684","1","1","","","","","170","61","6","2","win","no-go","0"
"pit-trial","91","364565","0.0-64.0","battery-v0.2","","857.6100000645965","S","elianto","#f73b6a7A","-1","32","0","-10","2359.639999922365","1","1","","","","","170","62","5","4","lose","no-go","0"
"pit-trial","92","368582","0.0-65.0","battery-v0.2","","-1","E","elianto","#3366ff99","32","-1","0","+1","","0","1","","","","","170","63","7","1","win","go","0"
"pit-trial","93","371958","0.0-66.0","battery-v0.2","","658.7849999777973","P","elianto","#f73b6a7A","32","32","1","-1","2160.369999939576","1","1","","","","","170","64","4","3","lose","go","0"
"pit-trial","94","375613","0.0-67.0","battery-v0.2","","935.859999852255","P","elianto","#f73b6a7A","32","32","1","-1","2437.69000004977","1","1","","","","","170","65","4","3","lose","go","0"
"pit-trial","95","379269","0.0-68.0","battery-v0.2","","951.7150002066046","W","elianto","#3366ff99","-1","32","0","+1","2452.9699999839067","1","1","","","","","170","66","6","2","win","no-go","0"
"pit-trial","96","383282","0.0-69.0","battery-v0.2","","-1","S","elianto","#f73b6a7A","-1","-1","1","-1","","0","1","","","","","170","67","5","4","lose","no-go","0"
"pit-trial","97","386605","0.0-70.0","battery-v0.2","","612.5600000377744","E","elianto","#3366ff99","32","32","1","+10","2113.314999965951","1","1","","","","","170","68","7","1","win","go","0"
"pit-trial","98","390621","0.0-71.0","battery-v0.2","","-1","E","elianto","#3366ff99","32","-1","0","+1","3200.630000093952","1","1","","","","","170","69","7","1","win","go","0"
"pit-trial","99","393905","0.0-72.0","battery-v0.2","","570.8600000943989","W","elianto","#3366ff99","-1","32","0","+1","2071.049999911338","1","1","","","","","170","70","6","2","win","no-go","0"
"pit-trial","100","397911","0.0-73.0","battery-v0.2","","-1","S","elianto","#f73b6a7A","-1","-1","1","-1","","0","1","","","","","170","71","5","4","lose","no-go","0"
"pit-trial","101","401932","0.0-74.0","battery-v0.2","","-1","P","elianto","#f73b6a7A","32","-1","0","-10","2866.959999781102","1","1","","","","","170","72","4","3","lose","go","0"
"pit-trial","102","405032","0.0-75.0","battery-v0.2","","390.89500019326806","W","elianto","#3366ff99","-1","32","0","+1","1891.204999992624","1","1","","","","","170","73","6","2","win","no-go","0"
"pit-trial","103","408671","0.0-76.0","battery-v0.2","","931.9100000429899","K","elianto","#3366ff99","32","32","1","+10","2433.570000110194","1","1","","","","","170","74","8","1","win","go","0"
"pit-trial","104","412689","0.0-77.0","battery-v0.2","","-1","P","elianto","#f73b6a7A","32","-1","0","-1","2840.3849999886006","1","1","","","","","170","75","4","3","lose","go","1"
"pit-trial","105","416686","0.0-78.0","battery-v0.2","","1289.2750001046807","E","elianto","#3366ff99","32","32","1","+10","2790.640000021085","1","1","","","","","170","76","7","1","win","go","0"
"pit-trial","106","420228","0.0-79.0","battery-v0.2","","829.3200000189245","E","elianto","#3366ff99","32","32","1","+10","2329.8450000584126","1","1","","","","","170","77","7","1","win","go","0"
"pit-trial","107","423644","0.0-80.0","battery-v0.2","","709.6750000491738","W","elianto","#3366ff99","-1","32","0","+1","2210.829999996349","1","1","","","","","170","78","6","2","win","no-go","0"
"pit-trial","108","427668","0.0-81.0","battery-v0.2","","-1","P","elianto","#f73b6a7A","32","-1","0","-10","","0","1","","","","","170","79","4","3","lose","go","0"
"pit-trial","109","430903","0.0-82.0","battery-v0.2","","520.2399999834597","K","elianto","#3366ff99","32","32","1","+10","2021.015000063926","1","1","","","","","170","80","8","1","win","go","0"
"pit-trial","110","434512","0.0-83.0","battery-v0.2","","901.3300000224262","W","elianto","#3366ff99","-1","32","0","+10","2402.215000009164","1","1","","","","","170","81","6","2","win","no-go","1"
"pit-trial","111","438520","0.0-84.0","battery-v0.2","","-1","K","elianto","#3366ff99","32","-1","0","+1","","0","1","","","","","170","82","8","1","win","go","0"
"pit-trial","112","441787","0.0-85.0","battery-v0.2","","556.4599998760968","D","elianto","#3366ff99","-1","32","0","+1","2057.4400001205504","1","1","","","","","170","83","9","2","win","no-go","0"
"pit-trial","113","445276","0.0-86.0","battery-v0.2","","783.2100000232458","E","elianto","#3366ff99","32","32","1","+10","2283.34500011988","1","1","","","","","170","84","7","1","win","go","0"
"pit-trial","114","449011","0.0-87.0","battery-v0.2","","1020.5600000917912","E","elianto","#3366ff99","32","32","1","+10","2521.3999999687076","1","1","","","","","170","85","7","1","win","go","0"
"pit-trial","115","452273","0.0-88.0","battery-v0.2","","553.8599998690188","D","elianto","#3366ff99","-1","32","0","+1","2054.64500002563","1","1","","","","","170","86","9","2","win","no-go","0"
"pit-trial","116","455478","0.0-89.0","battery-v0.2","","500.34999987110496","K","elianto","#3366ff99","32","32","1","+10","2001.9349998328835","1","1","","","","","170","87","8","1","win","go","0"
"pit-trial","117","459491","0.0-90.0","battery-v0.2","","-1","W","elianto","#3366ff99","-1","-1","1","+10","","0","1","","","","","170","88","6","2","win","no-go","0"
"pit-trial","118","463496","0.0-91.0","battery-v0.2","","-1","V","elianto","#f73b6a7A","-1","-1","1","-1","2835.1749998982996","1","1","","","","","170","89","11","4","lose","no-go","0"
"pit-trial","119","466709","0.0-92.0","battery-v0.2","","496.6349999886006","K","elianto","#3366ff99","32","32","1","+1","1998.2650000602007","1","1","","","","","170","90","8","1","win","go","1"
"pit-trial","120","470288","0.0-93.0","battery-v0.2","","873.3949998859316","D","elianto","#3366ff99","-1","32","0","+1","2374.8050001449883","1","1","","","","","170","91","9","2","win","no-go","0"
"pit-trial","121","474295","0.0-94.0","battery-v0.2","","-1","J","elianto","#f73b6a7A","32","-1","0","-1","","0","1","","","","","170","92","10","3","lose","go","1"
"pit-trial","122","477934","0.0-95.0","battery-v0.2","","921.0500000044703","V","elianto","#f73b6a7A","-1","32","0","-10","2422.6299999281764","1","1","","","","","170","93","11","4","lose","no-go","0"
"pit-trial","123","481367","0.0-96.0","battery-v0.2","","723.6299999058247","J","elianto","#f73b6a7A","32","32","1","-10","2224.015000043437","1","1","","","","","170","94","10","3","lose","go","1"
"pit-trial","124","484818","0.0-97.0","battery-v0.2","","747.4650000222027","K","elianto","#3366ff99","32","32","1","+10","2248.1199998874217","1","1","","","","","170","95","8","1","win","go","0"
"pit-trial","125","488161","0.0-98.0","battery-v0.2","","634.360000025481","D","elianto","#3366ff99","-1","32","0","+1","2135.4050000663847","1","1","","","","","170","96","9","2","win","no-go","0"
"pit-trial","126","492186","0.0-99.0","battery-v0.2","","-1","J","elianto","#f73b6a7A","32","-1","0","-10","","0","1","","","","","170","97","10","3","lose","go","0"
"pit-trial","127","495436","0.0-100.0","battery-v0.2","","542.0349999330938","D","elianto","#3366ff99","-1","32","0","+10","2043.2349999900907","1","1","","","","","170","98","9","2","win","no-go","1"
"pit-trial","128","498887","0.0-101.0","battery-v0.2","","742.8800000343472","K","elianto","#3366ff99","32","32","1","+10","2243.6249998863786","1","1","","","","","170","99","8","1","win","go","0"
"pit-trial","129","502894","0.0-102.0","battery-v0.2","","-1","V","elianto","#f73b6a7A","-1","-1","1","-10","2927.269999869168","1","1","","","","","170","100","11","4","lose","no-go","1"
"pit-trial","130","505962","0.0-103.0","battery-v0.2","","358.6899999063462","D","elianto","#3366ff99","-1","32","0","+1","1859.1399998404086","1","1","","","","","170","101","9","2","win","no-go","0"
"pit-trial","131","509172","0.0-104.0","battery-v0.2","","503.56499990448356","J","elianto","#f73b6a7A","32","32","1","-1","2004.4450000859797","1","1","","","","","170","102","10","3","lose","go","0"
"pit-trial","132","512512","0.0-105.0","battery-v0.2","","622.874999884516","V","elianto","#f73b6a7A","-1","32","0","-10","2123.660000041127","1","1","","","","","170","103","11","4","lose","no-go","0"
"pit-trial","133","516071","0.0-106.0","battery-v0.2","","848.7050000112504","K","elianto","#3366ff99","32","32","1","+1","2349.604999879375","1","1","","","","","170","104","8","1","win","go","1"
"pit-trial","134","520082","0.0-107.0","battery-v0.2","","-1","D","elianto","#3366ff99","-1","-1","1","+1","","0","1","","","","","170","105","9","2","win","no-go","1"
"pit-trial","135","523804","0.0-108.0","battery-v0.2","","1016.2700000219047","J","elianto","#f73b6a7A","32","32","1","-1","2517.8300000261515","1","1","","","","","170","106","10","3","lose","go","0"
"pit-trial","136","527274","0.0-109.0","battery-v0.2","","761.0250001307577","K","elianto","#3366ff99","32","32","1","+10","2261.5449998993427","1","1","","","","","170","107","8","1","win","go","0"
"pit-trial","137","530637","0.0-110.0","battery-v0.2","","654.839999973774","V","elianto","#f73b6a7A","-1","32","0","-10","2155.6649999693036","1","1","","","","","170","108","11","4","lose","no-go","0"
"pit-trial","138","534649","0.0-111.0","battery-v0.2","","-1","V","elianto","#f73b6a7A","-1","-1","1","-10","","0","1","","","","","170","109","11","4","lose","no-go","1"
"pit-trial","139","537747","0.0-112.0","battery-v0.2","","390.34499996341765","D","elianto","#3366ff99","-1","32","0","+1","1891.1649999208748","1","1","","","","","170","110","9","2","win","no-go","0"
"pit-trial","140","541247","0.0-113.0","battery-v0.2","","788.7750000227243","J","elianto","#f73b6a7A","32","32","1","-1","2289.4000001251698","1","1","","","","","170","111","10","3","lose","go","0"
"pit-trial","141","544369","0.0-114.0","battery-v0.2","","407.7950001228601","K","elianto","#3366ff99","32","32","1","+10","1908.0850000027567","1","1","","","","","170","112","8","1","win","go","0"
"pit-trial","142","547585","0.0-115.0","battery-v0.2","","503.40499985031784","K","elianto","#3366ff99","32","32","1","+10","2004.5149999205023","1","1","","","","","170","113","8","1","win","go","0"
"pit-trial","143","551119","0.0-116.0","battery-v0.2","","819.5299999788404","J","elianto","#f73b6a7A","32","32","1","-1","2319.870000006631","1","1","","","","","170","114","10","3","lose","go","0"
"pit-trial","144","554366","0.0-117.0","battery-v0.2","","539.325000019744","D","elianto","#3366ff99","-1","32","0","+1","2040.1299998629838","1","1","","","","","170","115","9","2","win","no-go","0"
"pit-trial","145","558387","0.0-118.0","battery-v0.2","","-1","V","elianto","#f73b6a7A","-1","-1","1","-1","","0","1","","","","","170","116","11","4","lose","no-go","0"
"pit-trial","146","561757","0.0-119.0","battery-v0.2","","662.5550000462681","D","elianto","#3366ff99","-1","32","0","+1","2163.565000053495","1","1","","","","","170","117","9","2","win","no-go","0"
"pit-trial","147","565758","0.0-120.0","battery-v0.2","","1294.0400000661612","V","elianto","#f73b6a7A","-1","32","0","-1","2794.2699999548495","1","1","","","","","170","118","11","4","lose","no-go","1"
"pit-trial","148","569764","0.0-121.0","battery-v0.2","","-1","J","elianto","#f73b6a7A","32","-1","0","-10","3100.9899999480695","1","1","","","","","170","119","10","3","lose","go","0"
"pit-trial","149","573003","0.0-122.0","battery-v0.2","","531.6599998623133","K","elianto","#3366ff99","32","32","1","+10","2032.2050000540912","1","1","","","","","170","120","8","1","win","go","0"
"pit-instructions","150","628130","0.0-123.0","battery-v0.2","[{""page_index"":0,""viewing_time"":8901.390000013635},{""page_index"":1,""viewing_time"":46222.50000014901}]","55124.79500006884","","","","","","","","","","","","","","","","","","","","",""
"pit-trial","151","631487","0.0-124.0","battery-v0.2","","634.9450000561774","F","elianto","#3366ff99","32","32","1","+10","2136.2499999813735","1","2","","","","","170","121","2","1","win","go","0"
"pit-trial","152","635244","0.0-125.0","battery-v0.2","","1038.8350000139326","X","elianto","#f73b6a7A","32","32","1","-1","2539.839999983087","1","2","","","","","170","122","3","3","lose","go","0"
"pit-trial","153","639254","0.0-126.0","battery-v0.2","","-1","Q","elianto","#3366ff99","-1","-1","1","+1","","0","2","","","","","170","123","0","2","win","no-go","1"
"pit-trial","154","642554","0.0-127.0","battery-v0.2","","582.0599999278784","N","elianto","#3366ff99","-1","32","0","+1","2082.704999949783","1","2","","","","","170","124","1","2","win","no-go","0"
"pit-trial","155","646064","0.0-128.0","battery-v0.2","","795.2049998566508","X","elianto","#f73b6a7A","32","32","1","-10","2295.6699999049306","1","2","","","","","170","125","3","3","lose","go","1"
"pit-trial","156","649246","0.0-129.0","battery-v0.2","","470.22999986074865","N","elianto","#3366ff99","-1","32","0","+1","1971.2749999016523","1","2","","","","","170","126","1","2","win","no-go","0"
"pit-trial","157","653132","0.0-130.0","battery-v0.2","","1167.515000095591","F","elianto","#3366ff99","32","32","1","+10","2669.379999861121","1","2","","","","","170","127","2","1","win","go","0"
"pit-trial","158","656556","0.0-131.0","battery-v0.2","","712.2600001748651","Q","elianto","#3366ff99","-1","32","0","+1","2213.440000079572","1","2","","","","","170","128","0","2","win","no-go","0"
"pit-trial","159","660514","0.0-132.0","battery-v0.2","","1244.2900000605732","X","elianto","#f73b6a7A","32","32","1","-1","2745.2799999155104","1","2","","","","","170","129","3","3","lose","go","0"
"pit-trial","160","664526","0.0-133.0","battery-v0.2","","-1","F","elianto","#3366ff99","32","-1","0","+1","2937.299999874085","1","2","","","","","170","130","2","1","win","go","0"
"pit-trial","161","668160","0.0-134.0","battery-v0.2","","925.614999840036","N","elianto","#3366ff99","-1","32","0","+1","2426.3899999205023","1","2","","","","","170","131","1","2","win","no-go","0"
"pit-trial","162","671281","0.0-135.0","battery-v0.2","","414.28499994799495","Q","elianto","#3366ff99","-1","32","0","+1","1914.46499992162","1","2","","","","","170","132","0","2","win","no-go","0"
"pit-trial","163","674591","0.0-136.0","battery-v0.2","","601.2800000607967","N","elianto","#3366ff99","-1","32","0","+10","2101.9550000783056","1","2","","","","","170","133","1","2","win","no-go","1"
"pit-trial","164","678221","0.0-137.0","battery-v0.2","","925.4900000523776","X","elianto","#f73b6a7A","32","32","1","-1","2426.1950000654906","1","2","","","","","170","134","3","3","lose","go","0"
"pit-trial","165","682242","0.0-138.0","battery-v0.2","","-1","F","elianto","#3366ff99","32","-1","0","+1","","0","2","","","","","170","135","2","1","win","go","0"
"pit-trial","166","685457","0.0-139.0","battery-v0.2","","508.63500009290874","Q","elianto","#3366ff99","-1","32","0","+1","2009.2100000474602","1","2","","","","","170","136","0","2","win","no-go","0"
"pit-trial","167","688756","0.0-140.0","battery-v0.2","","593.485000077635","F","elianto","#3366ff99","32","32","1","+10","2094.2499998491257","1","2","","","","","170","137","2","1","win","go","0"
"pit-trial","168","692107","0.0-141.0","battery-v0.2","","641.014999942854","Q","elianto","#3366ff99","-1","32","0","+1","2141.679999884218","1","2","","","","","170","138","0","2","win","no-go","0"
"pit-trial","169","696130","0.0-142.0","battery-v0.2","","-1","N","elianto","#3366ff99","-1","-1","1","+10","","0","2","","","","","170","139","1","2","win","no-go","0"
"pit-trial","170","699432","0.0-143.0","battery-v0.2","","593.4700001962483","X","elianto","#f73b6a7A","32","32","1","-10","2093.9149998594075","1","2","","","","","170","140","3","3","lose","go","1"
"pit-trial","171","702434","0.0-144.0","battery-v0.2","","296.1200000718236","F","elianto","#3366ff99","32","32","1","+10","1797.6500000804663","1","2","","","","","170","141","2","1","win","go","0"
"pit-trial","172","706400","0.0-145.0","battery-v0.2","","1256.709999870509","X","elianto","#f73b6a7A","32","32","1","-1","2757.4199999216944","1","2","","","","","170","142","3","3","lose","go","0"
"pit-trial","173","709890","0.0-146.0","battery-v0.2","","785.365000134334","N","elianto","#3366ff99","-1","32","0","+1","2285.9749998897314","1","2","","","","","170","143","1","2","win","no-go","0"
"pit-trial","174","712977","0.0-147.0","battery-v0.2","","369.8599999770522","Q","elianto","#3366ff99","-1","32","0","+1","1871.1600000970066","1","2","","","","","170","144","0","2","win","no-go","0"
"pit-trial","175","716674","0.0-148.0","battery-v0.2","","990.0650000199676","F","elianto","#3366ff99","32","32","1","+10","2490.280000027269","1","2","","","","","170","145","2","1","win","go","0"
"pit-trial","176","720682","0.0-149.0","battery-v0.2","","-1","X","elianto","#f73b6a7A","32","-1","0","-10","3199.6550001204014","1","2","","","","","170","146","3","3","lose","go","0"
"pit-trial","177","723691","0.0-150.0","battery-v0.2","","300.9949999395758","Q","elianto","#3366ff99","-1","32","0","+10","1801.5450001694262","1","2","","","","","170","147","0","2","win","no-go","1"
"pit-trial","178","727707","0.0-151.0","battery-v0.2","","-1","N","elianto","#3366ff99","-1","-1","1","+10","","0","2","","","","","170","148","1","2","win","no-go","0"
"pit-trial","179","731220","0.0-152.0","battery-v0.2","","799.9350000172853","X","elianto","#f73b6a7A","32","32","1","-1","2301.099999807775","1","2","","","","","170","149","3","3","lose","go","0"
"pit-trial","180","734352","0.0-153.0","battery-v0.2","","414.3799999728799","F","elianto","#3366ff99","32","32","1","+10","1915.6199998687953","1","2","","","","","170","150","2","1","win","go","0"
"pit-trial","181","738374","0.0-154.0","battery-v0.2","","-1","Q","elianto","#3366ff99","-1","-1","1","+1","","0","2","","","","","170","151","0","2","win","no-go","1"
"pit-trial","182","742238","0.0-155.0","battery-v0.2","","1158.0799999646842","N","elianto","#3366ff99","-1","32","0","+1","2658.9449997991323","1","2","","","","","170","152","1","2","win","no-go","0"
"pit-trial","183","746254","0.0-156.0","battery-v0.2","","-1","Q","elianto","#3366ff99","-1","-1","1","+10","","0","2","","","","","170","153","0","2","win","no-go","0"
"pit-trial","184","749487","0.0-157.0","battery-v0.2","","516.4300000760704","F","elianto","#3366ff99","32","32","1","+10","2017.1049998607486","1","2","","","","","170","154","2","1","win","go","0"
"pit-trial","185","753367","0.0-158.0","battery-v0.2","","1169.640000211075","T","elianto","#f73b6a7A","-1","32","0","-10","2671.6799999121577","1","2","","","","","170","155","4","4","lose","no-go","0"
"pit-trial","186","757376","0.0-159.0","battery-v0.2","","-1","B","elianto","#f73b6a7A","32","-1","0","-1","","0","2","","","","","170","156","5","3","lose","go","1"
"pit-trial","187","760514","0.0-160.0","battery-v0.2","","431.05500005185604","Q","elianto","#3366ff99","-1","32","0","+1","1932.120000012219","1","2","","","","","170","157","0","2","win","no-go","0"
"pit-trial","188","764433","0.0-161.0","battery-v0.2","","1205.9850001242012","T","elianto","#f73b6a7A","-1","32","0","-10","2707.5849999673665","1","2","","","","","170","158","4","4","lose","no-go","0"
"pit-trial","189","767696","0.0-162.0","battery-v0.2","","551.160000031814","F","elianto","#3366ff99","32","32","1","+1","2052.3550000507385","1","2","","","","","170","159","2","1","win","go","1"
"pit-trial","190","771500","0.0-163.0","battery-v0.2","","1096.3250000495464","B","elianto","#f73b6a7A","32","32","1","-10","2597.8749999776483","1","2","","","","","170","160","5","3","lose","go","1"
"pit-trial","191","774889","0.0-164.0","battery-v0.2","","671.2350000161678","B","elianto","#f73b6a7A","32","32","1","-1","2171.2799998931587","1","2","","","","","170","161","5","3","lose","go","0"
"pit-trial","192","778176","0.0-165.0","battery-v0.2","","571.239999961108","F","elianto","#3366ff99","32","32","1","+10","2072.2850000020117","1","2","","","","","170","162","2","1","win","go","0"
"pit-trial","193","782189","0.0-166.0","battery-v0.2","","-1","T","elianto","#f73b6a7A","-1","-1","1","-1","2870.134999975562","1","2","","","","","170","163","4","4","lose","no-go","0"
"pit-trial","194","785576","0.0-167.0","battery-v0.2","","680.1950000226498","C","elianto","#3366ff99","-1","32","0","+1","2180.930000031367","1","2","","","","","170","164","6","2","win","no-go","0"
"pit-trial","195","788937","0.0-168.0","battery-v0.2","","656.8699998315424","F","elianto","#3366ff99","32","32","1","+1","2157.3299998417497","1","2","","","","","170","165","2","1","win","go","1"
"pit-trial","196","792631","0.0-169.0","battery-v0.2","","983.4499999415129","T","elianto","#f73b6a7A","-1","32","0","-1","2484.6550000365824","1","2","","","","","170","166","4","4","lose","no-go","1"
"pit-trial","197","796651","0.0-170.0","battery-v0.2","","-1","B","elianto","#f73b6a7A","32","-1","0","-10","2906.7999999970198","1","2","","","","","170","167","5","3","lose","go","0"
"pit-trial","198","799686","0.0-171.0","battery-v0.2","","316.92499993368983","C","elianto","#3366ff99","-1","32","0","+10","1818.4050000272691","1","2","","","","","170","168","6","2","win","no-go","1"
"pit-trial","199","803273","0.0-172.0","battery-v0.2","","881.485000019893","T","elianto","#f73b6a7A","-1","32","0","-10","2382.5449999421835","1","2","","","","","170","169","4","4","lose","no-go","0"
"pit-trial","200","807295","0.0-173.0","battery-v0.2","","-1","B","elianto","#f73b6a7A","32","-1","0","-10","3170.5800001509488","1","2","","","","","170","170","5","3","lose","go","0"
"pit-trial","201","810619","0.0-174.0","battery-v0.2","","612.0599999558181","Z","elianto","#f73b6a7A","-1","32","0","-10","2113.565000006929","1","2","","","","","170","171","7","4","lose","no-go","0"
"pit-trial","202","814092","0.0-175.0","battery-v0.2","","753.9099999703467","C","elianto","#3366ff99","-1","32","0","+1","2255.445000017062","1","2","","","","","170","172","6","2","win","no-go","0"
"pit-trial","203","818056","0.0-176.0","battery-v0.2","","1254.0150000713766","B","elianto","#f73b6a7A","32","32","1","-1","2754.979999968782","1","2","","","","","170","173","5","3","lose","go","0"
"pit-trial","204","822068","0.0-177.0","battery-v0.2","","-1","T","elianto","#f73b6a7A","-1","-1","1","-1","","0","2","","","","","170","174","4","4","lose","no-go","0"
"pit-trial","205","825315","0.0-178.0","battery-v0.2","","541.7999997735023","C","elianto","#3366ff99","-1","32","0","+1","2041.840000078082","1","2","","","","","170","175","6","2","win","no-go","0"
"pit-trial","206","829327","0.0-179.0","battery-v0.2","","-1","Z","elianto","#f73b6a7A","-1","-1","1","-1","2832.46499998495","1","2","","","","","170","176","7","4","lose","no-go","0"
"pit-trial","207","833349","0.0-180.0","battery-v0.2","","-1","T","elianto","#f73b6a7A","-1","-1","1","-1","","0","2","","","","","170","177","4","4","lose","no-go","0"
"pit-trial","208","836944","0.0-181.0","battery-v0.2","","885.1199999917299","C","elianto","#3366ff99","-1","32","0","+1","2385.7650000136346","1","2","","","","","170","178","6","2","win","no-go","0"
"pit-trial","209","840494","0.0-182.0","battery-v0.2","","836.1750000622123","B","elianto","#f73b6a7A","32","32","1","-10","2338.1650000810623","1","2","","","","","170","179","5","3","lose","go","1"
"pit-trial","210","844519","0.0-183.0","battery-v0.2","","-1","Z","elianto","#f73b6a7A","-1","-1","1","-1","","0","2","","","","","170","180","7","4","lose","no-go","0"
"pit-trial","211","847956","0.0-184.0","battery-v0.2","","720.6900001037866","T","elianto","#f73b6a7A","-1","32","0","-10","2220.90999991633","1","2","","","","","170","181","4","4","lose","no-go","0"
"pit-trial","212","851963","0.0-185.0","battery-v0.2","","-1","Z","elianto","#f73b6a7A","-1","-1","1","-1","","0","2","","","","","170","182","7","4","lose","no-go","0"
"pit-trial","213","855890","0.0-186.0","battery-v0.2","","1212.9999999888241","C","elianto","#3366ff99","-1","32","0","+10","2713.255000067875","1","2","","","","","170","183","6","2","win","no-go","1"
"pit-trial","214","859685","0.0-187.0","battery-v0.2","","1087.4750001821667","B","elianto","#f73b6a7A","32","32","1","-1","2587.9349999595433","1","2","","","","","170","184","5","3","lose","go","0"
"pit-trial","215","863709","0.0-188.0","battery-v0.2","","-1","Z","elianto","#f73b6a7A","-1","-1","1","-1","","0","2","","","","","170","185","7","4","lose","no-go","0"
"pit-trial","216","867734","0.0-189.0","battery-v0.2","","-1","T","elianto","#f73b6a7A","-1","-1","1","-10","","0","2","","","","","170","186","4","4","lose","no-go","1"
"pit-trial","217","871234","0.0-190.0","battery-v0.2","","787.9550000652671","B","elianto","#f73b6a7A","32","32","1","-1","2288.8350000139326","1","2","","","","","170","187","5","3","lose","go","0"
"pit-trial","218","874335","0.0-191.0","battery-v0.2","","392.6099999807775","C","elianto","#3366ff99","-1","32","0","+10","1894.5149998180568","1","2","","","","","170","188","6","2","win","no-go","1"
"pit-trial","219","877724","0.0-192.0","battery-v0.2","","672.2699999809265","B","elianto","#f73b6a7A","32","32","1","-1","2173.7750000320375","1","2","","","","","170","189","5","3","lose","go","0"
"pit-trial","220","881735","0.0-193.0","battery-v0.2","","-1","Z","elianto","#f73b6a7A","-1","-1","1","-1","","0","2","","","","","170","190","7","4","lose","no-go","0"
"pit-trial","221","885267","0.0-194.0","battery-v0.2","","817.439999897033","C","elianto","#3366ff99","-1","32","0","+1","2319.205000065267","1","2","","","","","170","191","6","2","win","no-go","0"
"pit-trial","222","888923","0.0-195.0","battery-v0.2","","938.6750000994653","T","elianto","#f73b6a7A","-1","32","0","-1","2440.0100000202656","1","2","","","","","170","192","4","4","lose","no-go","1"
"pit-trial","223","892943","0.0-196.0","battery-v0.2","","-1","H","elianto","#f73b6a7A","-1","-1","1","-1","","0","2","","","","","170","193","8","4","lose","no-go","0"
"pit-trial","224","896416","0.0-197.0","battery-v0.2","","761.0550001263618","B","elianto","#f73b6a7A","32","32","1","-10","2261.1849999520928","1","2","","","","","170","194","5","3","lose","go","1"
"pit-trial","225","900440","0.0-198.0","battery-v0.2","","-1","Z","elianto","#f73b6a7A","-1","-1","1","-1","3124.0899998228997","1","2","","","","","170","195","7","4","lose","no-go","0"
"pit-trial","226","903876","0.0-199.0","battery-v0.2","","723.255000077188","C","elianto","#3366ff99","-1","32","0","+10","2224.3149999994785","1","2","","","","","170","196","6","2","win","no-go","1"
"pit-trial","227","907647","0.0-200.0","battery-v0.2","","1055.3150000050664","Z","elianto","#f73b6a7A","-1","32","0","-1","2555.330000119284","1","2","","","","","170","197","7","4","lose","no-go","1"
"pit-trial","228","911669","0.0-201.0","battery-v0.2","","-1","H","elianto","#f73b6a7A","-1","-1","1","-10","","0","2","","","","","170","198","8","4","lose","no-go","1"
"pit-trial","229","915477","0.0-202.0","battery-v0.2","","1103.0100001953542","C","elianto","#3366ff99","-1","32","0","+1","2604.0950000751764","1","2","","","","","170","199","6","2","win","no-go","0"
"pit-trial","230","918736","0.0-203.0","battery-v0.2","","542.64000011608","B","elianto","#f73b6a7A","32","32","1","-1","2043.9200000837445","1","2","","","","","170","200","5","3","lose","go","0"
"pit-trial","231","922749","0.0-204.0","battery-v0.2","","-1","Y","elianto","#3366ff99","32","-1","0","+1","2938.9899999368936","1","2","","","","","170","201","9","1","win","go","0"
"pit-trial","232","926759","0.0-205.0","battery-v0.2","","-1","R","elianto","#f73b6a7A","32","-1","0","-10","","0","2","","","","","170","202","10","3","lose","go","0"
"pit-trial","233","929820","0.0-206.0","battery-v0.2","","351.8050001002848","H","elianto","#f73b6a7A","-1","32","0","-10","1852.845000103116","1","2","","","","","170","203","8","4","lose","no-go","0"
"pit-trial","234","933142","0.0-207.0","battery-v0.2","","615.1600000448525","C","elianto","#3366ff99","-1","32","0","+1","2116.2799999583513","1","2","","","","","170","204","6","2","win","no-go","0"
"pit-trial","235","936518","0.0-208.0","battery-v0.2","","661.1999999731779","C","elianto","#3366ff99","-1","32","0","+1","2161.8049999233335","1","2","","","","","170","205","6","2","win","no-go","0"
"pit-trial","236","939655","0.0-209.0","battery-v0.2","","424.91000005975366","R","elianto","#f73b6a7A","32","32","1","-1","1925.264999968931","1","2","","","","","170","206","10","3","lose","go","0"
"pit-trial","237","943673","0.0-210.0","battery-v0.2","","-1","H","elianto","#f73b6a7A","-1","-1","1","-1","3055.8099998161197","1","2","","","","","170","207","8","4","lose","no-go","0"
"pit-trial","238","946936","0.0-211.0","battery-v0.2","","558.2749999593943","Y","elianto","#3366ff99","32","32","1","+10","2059.3950001057237","1","2","","","","","170","208","9","1","win","go","0"
"pit-trial","239","950942","0.0-212.0","battery-v0.2","","-1","M","elianto","#3366ff99","32","-1","0","+1","","0","2","","","","","170","209","11","1","win","go","0"
"pit-trial","240","954621","0.0-213.0","battery-v0.2","","972.4900000728667","Y","elianto","#3366ff99","32","32","1","+1","2472.749999957159","1","2","","","","","170","210","9","1","win","go","1"
"pit-trial","241","958593","0.0-214.0","battery-v0.2","","1258.5350000299513","H","elianto","#f73b6a7A","-1","32","0","-1","2760.2600001264364","1","2","","","","","170","211","8","4","lose","no-go","1"
"pit-trial","242","961970","0.0-215.0","battery-v0.2","","662.2200000565499","R","elianto","#f73b6a7A","32","32","1","-1","2163.514999905601","1","2","","","","","170","212","10","3","lose","go","0"
"pit-trial","243","965844","0.0-216.0","battery-v0.2","","1156.2999999150634","H","elianto","#f73b6a7A","-1","32","0","-10","2656.69499989599","1","2","","","","","170","213","8","4","lose","no-go","0"
"pit-trial","244","969119","0.0-217.0","battery-v0.2","","569.5599999744445","Y","elianto","#3366ff99","32","32","1","+10","2070.7499999552965","1","2","","","","","170","214","9","1","win","go","0"
"pit-trial","245","973014","0.0-218.0","battery-v0.2","","1185.1500000339001","R","elianto","#f73b6a7A","32","32","1","-1","2687.0750000234693","1","2","","","","","170","215","10","3","lose","go","0"
"pit-trial","246","976547","0.0-219.0","battery-v0.2","","824.3599999696016","M","elianto","#3366ff99","32","32","1","+10","2325.7299999240786","1","2","","","","","170","216","11","1","win","go","0"
"pit-trial","247","980565","0.0-220.0","battery-v0.2","","-1","Y","elianto","#3366ff99","32","-1","0","+1","2970.505000092089","1","2","","","","","170","217","9","1","win","go","0"
"pit-trial","248","984191","0.0-221.0","battery-v0.2","","912.6699999906123","M","elianto","#3366ff99","32","32","1","+10","2413.074999814853","1","2","","","","","170","218","11","1","win","go","0"
"pit-trial","249","988210","0.0-222.0","battery-v0.2","","-1","H","elianto","#f73b6a7A","-1","-1","1","-10","","0","2","","","","","170","219","8","4","lose","no-go","1"
"pit-trial","250","991738","0.0-223.0","battery-v0.2","","811.7649999912828","R","elianto","#f73b6a7A","32","32","1","-1","2313.520000083372","1","2","","","","","170","220","10","3","lose","go","0"
"pit-trial","251","995615","0.0-224.0","battery-v0.2","","1172.8049998637289","Y","elianto","#3366ff99","32","32","1","+1","2674.559999955818","1","2","","","","","170","221","9","1","win","go","1"
"pit-trial","252","998862","0.0-225.0","battery-v0.2","","531.7149998154491","M","elianto","#3366ff99","32","32","1","+10","2032.5299999676645","1","2","","","","","170","222","11","1","win","go","0"
"pit-trial","253","1002877","0.0-226.0","battery-v0.2","","-1","R","elianto","#f73b6a7A","32","-1","0","-10","","0","2","","","","","170","223","10","3","lose","go","0"
"pit-trial","254","1005983","0.0-227.0","battery-v0.2","","397.51000003889203","H","elianto","#f73b6a7A","-1","32","0","-10","1898.879999993369","1","2","","","","","170","224","8","4","lose","no-go","0"
"pit-trial","255","1009671","0.0-228.0","battery-v0.2","","974.7150000184774","R","elianto","#f73b6a7A","32","32","1","-1","2475.8750000037253","1","2","","","","","170","225","10","3","lose","go","0"
"pit-trial","256","1012985","0.0-229.0","battery-v0.2","","597.5649999454618","M","elianto","#3366ff99","32","32","1","+1","2099.144999869168","1","2","","","","","170","226","11","1","win","go","1"
"pit-trial","257","1016456","0.0-230.0","battery-v0.2","","757.2099999524653","Y","elianto","#3366ff99","32","32","1","+10","2258.750000037253","1","2","","","","","170","227","9","1","win","go","0"
"pit-trial","258","1020470","0.0-231.0","battery-v0.2","","-1","H","elianto","#f73b6a7A","-1","-1","1","-10","","0","2","","","","","170","228","8","4","lose","no-go","1"
"pit-trial","259","1023666","0.0-232.0","battery-v0.2","","481.48499988019466","M","elianto","#3366ff99","32","32","1","+10","1981.9749998860061","1","2","","","","","170","229","11","1","win","go","0"
"pit-trial","260","1027677","0.0-233.0","battery-v0.2","","-1","Y","elianto","#3366ff99","32","-1","0","+1","","0","2","","","","","170","230","9","1","win","go","0"
"pit-trial","261","1031107","0.0-234.0","battery-v0.2","","717.3549998551607","R","elianto","#f73b6a7A","32","32","1","-1","2217.8050000220537","1","2","","","","","170","231","10","3","lose","go","0"
"pit-trial","262","1035114","0.0-235.0","battery-v0.2","","-1","H","elianto","#f73b6a7A","-1","-1","1","-1","2865.8850002102554","1","2","","","","","170","232","8","4","lose","no-go","0"
"pit-trial","263","1038952","0.0-236.0","battery-v0.2","","1123.3049998991191","M","elianto","#3366ff99","32","32","1","+10","2623.399999924004","1","2","","","","","170","233","11","1","win","go","0"
"pit-trial","264","1042964","0.0-237.0","battery-v0.2","","-1","R","elianto","#f73b6a7A","32","-1","0","-10","","0","2","","","","","170","234","10","3","lose","go","0"
"pit-trial","265","1046483","0.0-238.0","battery-v0.2","","810.3699998464435","H","elianto","#f73b6a7A","-1","32","0","-10","2310.8300000894815","1","2","","","","","170","235","8","4","lose","no-go","0"
"pit-trial","266","1050503","0.0-239.0","battery-v0.2","","-1","Y","elianto","#3366ff99","32","-1","0","+1","3118.9050001557916","1","2","","","","","170","236","9","1","win","go","0"
"pit-trial","267","1053872","0.0-240.0","battery-v0.2","","663.1199999246746","R","elianto","#f73b6a7A","32","32","1","-10","2164.555000141263","1","2","","","","","170","237","10","3","lose","go","1"
"pit-trial","268","1057759","0.0-241.0","battery-v0.2","","1183.9950000867248","H","elianto","#f73b6a7A","-1","32","0","-10","2684.0749999973923","1","2","","","","","170","238","8","4","lose","no-go","0"
"pit-trial","269","1060749","0.0-242.0","battery-v0.2","","278.8999998010695","Y","elianto","#3366ff99","32","32","1","+10","1779.4899998698384","1","2","","","","","170","239","9","1","win","go","0"
"pit-trial","270","1063874","0.0-243.0","battery-v0.2","","420.21999997086823","M","elianto","#3366ff99","32","32","1","+10","1921.1349999532104","1","2","","","","","170","240","11","1","win","go","0"
