"trial_type","trial_index","time_elapsed","internal_node_id","task_version","success","view_history","rt","rune","rune_set","hex","correct","choice","accuracy","outcome","keys","total_keys","block","practice","subject","participantId","value","responses","num_errors","sub","trial","stimulus","robot","valence","action","sham"
"pavlovia","0","73","0.0-0.0","battery-v0.2","","","","","","","","","","","","","","","","","","","","","","","","","",""
"fullscreen","1","4359","0.0-1.0","battery-v0.2","true","","","","","","","","","","","","","","","","","","","","","","","","",""
"pit-instructions","2","57135","0.0-2.0-0.0","battery-v0.2","","[{""page_index"":0,""viewing_time"":2382},{""page_index"":1,""viewing_time"":5038.699999809265},{""page_index"":2,""viewing_time"":3665},{""page_index"":3,""viewing_time"":2553.800000190735},{""page_index"":4,""viewing_time"":1446.7999999523163},{""page_index"":5,""viewing_time"":3087.2000000476837},{""page_index"":6,""viewing_time"":2529.5},{""page_index"":7,""viewing_time"":2909.399999856949},{""page_index"":8,""viewing_time"":2465},{""page_index"":9,""viewing_time"":2852.9000000953674},{""page_index"":10,""viewing_time"":6374.399999856949},{""page_index"":11,""viewing_time"":3947.9000000953674},{""page_index"":12,""viewing_time"":5856.299999952316},{""page_index"":13,""viewing_time"":3075.5},{""page_index"":14,""viewing_time"":4585.900000095367}]","52771.699999809265","","","","","","","","","","","","","","","","","","","","","","",""
"pit-trial","3","60063","0.0-2.0-1.0-0.0","battery-v0.2","","","69.40000009536743","&#9784;","elianto","#FFFFF080","32","32","1","&#10004","920","1","0","0","6100894ca36594e9bd02052e&order=&STUDY_ID=61f02a8661f82b834564f044","999","","","","","","","","","",""
"pit-trial","4","63337","0.0-2.0-1.1-0.1","battery-v0.2","","","413.2000000476837","&#9784;","elianto","#FFFFF080","32","32","1","&#10004","1264.7000000476837","1","0","0","6100894ca36594e9bd02052e&order=&STUDY_ID=61f02a8661f82b834564f044","999","","","","","","","","","",""
"pit-trial","5","66808","0.0-2.0-1.2-0.2","battery-v0.2","","","616.7999999523163","&#9784;","elianto","#FFFFF080","32","32","1","&#10004","1467.1000001430511","1","0","0","6100894ca36594e9bd02052e&order=&STUDY_ID=61f02a8661f82b834564f044","999","","","","","","","","","",""
"pit-trial","6","70088","0.0-2.0-1.3-0.3","battery-v0.2","","","423.10000014305115","&#9784;","elianto","#FFFFF080","32","32","1","&#10004","1276","1","0","0","6100894ca36594e9bd02052e&order=&STUDY_ID=61f02a8661f82b834564f044","999","","","","","","","","","",""
"pit-trial","7","73449","0.0-2.0-1.4-0.4","battery-v0.2","","","493.90000009536743","&#9784;","elianto","#FFFFF080","32","32","1","&#10004","1353.0999999046326","1","0","0","6100894ca36594e9bd02052e&order=&STUDY_ID=61f02a8661f82b834564f044","999","","","","","","","","","",""
"pit-instructions","8","82268","0.0-2.0-2.0","battery-v0.2","","[{""page_index"":0,""viewing_time"":2554.5},{""page_index"":1,""viewing_time"":2161.600000143051},{""page_index"":2,""viewing_time"":2691.0999999046326},{""page_index"":3,""viewing_time"":1406.2999999523163}]","8814","","","","","","","","","","","","","","","","","","","","","","",""
"pit-trial","9","87126","0.0-2.0-3.0-0.0","battery-v0.2","","","-1","&#9854;","elianto","#FFFFF080","-1","-1","1","&#10004","","0","0","1","6100894ca36594e9bd02052e&order=&STUDY_ID=61f02a8661f82b834564f044","999","","","","","","","","","",""
"pit-trial","10","91985","0.0-2.0-3.1-0.1","battery-v0.2","","","-1","&#9854;","elianto","#FFFFF080","-1","-1","1","&#10004","","0","0","1","6100894ca36594e9bd02052e&order=&STUDY_ID=61f02a8661f82b834564f044","999","","","","","","","","","",""
"pit-trial","11","96844","0.0-2.0-3.2-0.2","battery-v0.2","","","-1","&#9854;","elianto","#FFFFF080","-1","-1","1","&#10004","","0","0","1","6100894ca36594e9bd02052e&order=&STUDY_ID=61f02a8661f82b834564f044","999","","","","","","","","","",""
"pit-trial","12","101703","0.0-2.0-3.3-0.3","battery-v0.2","","","-1","&#9854;","elianto","#FFFFF080","-1","-1","1","&#10004","","0","0","1","6100894ca36594e9bd02052e&order=&STUDY_ID=61f02a8661f82b834564f044","999","","","","","","","","","",""
"pit-trial","13","106562","0.0-2.0-3.4-0.4","battery-v0.2","","","-1","&#9854;","elianto","#FFFFF080","-1","-1","1","&#10004","","0","0","1","6100894ca36594e9bd02052e&order=&STUDY_ID=61f02a8661f82b834564f044","999","","","","","","","","","",""
"pit-instructions","14","163369","0.0-2.0-4.0","battery-v0.2","","[{""page_index"":0,""viewing_time"":2567.300000190735},{""page_index"":1,""viewing_time"":3091.0999999046326},{""page_index"":2,""viewing_time"":3947.7999999523163},{""page_index"":3,""viewing_time"":3175.7000000476837},{""page_index"":4,""viewing_time"":1992.2000000476837},{""page_index"":5,""viewing_time"":2125.5999999046326},{""page_index"":6,""viewing_time"":2125.7000000476837},{""page_index"":7,""viewing_time"":2367.7000000476837},{""page_index"":8,""viewing_time"":6053.599999904633},{""page_index"":9,""viewing_time"":4109.600000143051},{""page_index"":10,""viewing_time"":2796.7999999523163},{""page_index"":11,""viewing_time"":1850.5999999046326},{""page_index"":12,""viewing_time"":4695.799999952316},{""page_index"":13,""viewing_time"":3103.7000000476837},{""page_index"":14,""viewing_time"":2634},{""page_index"":15,""viewing_time"":1326.2000000476837},{""page_index"":16,""viewing_time"":6069.900000095367},{""page_index"":17,""viewing_time"":2767.7999999523163}]","56801.60000014305","","","","","","","","","","","","","","","","","","","","","","",""
"pit-trial","15","167203","0.0-2.0-5.0-0.0","battery-v0.2","","","977.5999999046326","&#9776;","elianto","#3366ff99","32","32","1","+10","1829.9000000953674","1","0","1","6100894ca36594e9bd02052e&order=&STUDY_ID=61f02a8661f82b834564f044","999","","","","","","","","","",""
"pit-trial","16","170930","0.0-2.0-5.0-1.0","battery-v0.2","","","868.6000001430511","&#9776;","elianto","#3366ff99","32","32","1","+10","1721.1000001430511","1","0","1","6100894ca36594e9bd02052e&order=&STUDY_ID=61f02a8661f82b834564f044","999","","","","","","","","","",""
"pit-trial","17","174279","0.0-2.0-5.0-2.0","battery-v0.2","","","488.2000000476837","&#9776;","elianto","#3366ff99","32","32","1","+10","1343","1","0","1","6100894ca36594e9bd02052e&order=&STUDY_ID=61f02a8661f82b834564f044","999","","","","","","","","","",""
"pit-trial","18","177600","0.0-2.0-5.0-3.0","battery-v0.2","","","460","&#9776;","elianto","#3366ff99","32","32","1","0","1315.0999999046326","1","0","1","6100894ca36594e9bd02052e&order=&STUDY_ID=61f02a8661f82b834564f044","999","","","","","","","","","",""
"pit-trial","19","181158","0.0-2.0-5.0-4.0","battery-v0.2","","","702.7999999523163","&#9776;","elianto","#3366ff99","32","32","1","+10","1554.6999998092651","1","0","1","6100894ca36594e9bd02052e&order=&STUDY_ID=61f02a8661f82b834564f044","999","","","","","","","","","",""
"call-function","20","181160","0.0-2.0-6.0","battery-v0.2","","","","","","","","","","","","","","","","","","","","","","","","","",""
"pit-instructions","21","207987","0.0-2.0-7.0","battery-v0.2","","[{""page_index"":0,""viewing_time"":4964.899999856949},{""page_index"":1,""viewing_time"":1753.5},{""page_index"":2,""viewing_time"":2489.100000143051},{""page_index"":3,""viewing_time"":4194.5},{""page_index"":4,""viewing_time"":5240.099999904633},{""page_index"":5,""viewing_time"":8182.799999952316}]","26825.39999985695","","","","","","","","","","","","","","","","","","","","","","",""
"pit-trial","22","211723","0.0-2.0-8.0-0.0","battery-v0.2","","","877.4000000953674","&#9761;","elianto","#3366ff99","-1","32","0","0","1729.5","1","0","2","6100894ca36594e9bd02052e&order=&STUDY_ID=61f02a8661f82b834564f044","999","","","","","","","","","",""
"pit-trial","23","216581","0.0-2.0-8.0-1.0","battery-v0.2","","","-1","&#9761;","elianto","#3366ff99","-1","-1","1","+10","","0","0","2","6100894ca36594e9bd02052e&order=&STUDY_ID=61f02a8661f82b834564f044","999","","","","","","","","","",""
"pit-trial","24","221440","0.0-2.0-8.0-2.0","battery-v0.2","","","-1","&#9761;","elianto","#3366ff99","-1","-1","1","+10","","0","0","2","6100894ca36594e9bd02052e&order=&STUDY_ID=61f02a8661f82b834564f044","999","","","","","","","","","",""
"pit-trial","25","226299","0.0-2.0-8.0-3.0","battery-v0.2","","","-1","&#9761;","elianto","#3366ff99","-1","-1","1","0","","0","0","2","6100894ca36594e9bd02052e&order=&STUDY_ID=61f02a8661f82b834564f044","999","","","","","","","","","",""
"pit-trial","26","231158","0.0-2.0-8.0-4.0","battery-v0.2","","","-1","&#9761;","elianto","#3366ff99","-1","-1","1","+10","","0","0","2","6100894ca36594e9bd02052e&order=&STUDY_ID=61f02a8661f82b834564f044","999","","","","","","","","","",""
"call-function","27","231160","0.0-2.0-9.0","battery-v0.2","","","","","","","","","","","","","","","","","","","","","","","","","",""
"pit-instructions","28","241018","0.0-2.0-10.0","battery-v0.2","","[{""page_index"":0,""viewing_time"":1161.2999999523163},{""page_index"":1,""viewing_time"":888.4000000953674},{""page_index"":2,""viewing_time"":1406.2999999523163},{""page_index"":3,""viewing_time"":4626.400000095367},{""page_index"":4,""viewing_time"":1774}]","9856.799999952316","","","","","","","","","","","","","","","","","","","","","","",""
"pit-trial","29","244411","0.0-2.0-11.0-0.0","battery-v0.2","","","535.2999999523163","&#9826;","elianto","#f73b6a7A","-1","32","0","-10","1386.3000001907349","1","0","3","6100894ca36594e9bd02052e&order=&STUDY_ID=61f02a8661f82b834564f044","999","","","","","","","","","",""
"pit-trial","30","249270","0.0-2.0-11.0-1.0","battery-v0.2","","","-1","&#9826;","elianto","#f73b6a7A","-1","-1","1","0","","0","0","3","6100894ca36594e9bd02052e&order=&STUDY_ID=61f02a8661f82b834564f044","999","","","","","","","","","",""
"pit-trial","31","254129","0.0-2.0-11.0-2.0","battery-v0.2","","","-1","&#9826;","elianto","#f73b6a7A","-1","-1","1","0","","0","0","3","6100894ca36594e9bd02052e&order=&STUDY_ID=61f02a8661f82b834564f044","999","","","","","","","","","",""
"pit-trial","32","258988","0.0-2.0-11.0-3.0","battery-v0.2","","","-1","&#9826;","elianto","#f73b6a7A","-1","-1","1","-10","","0","0","3","6100894ca36594e9bd02052e&order=&STUDY_ID=61f02a8661f82b834564f044","999","","","","","","","","","",""
"pit-trial","33","263847","0.0-2.0-11.0-4.0","battery-v0.2","","","-1","&#9826;","elianto","#f73b6a7A","-1","-1","1","0","","0","0","3","6100894ca36594e9bd02052e&order=&STUDY_ID=61f02a8661f82b834564f044","999","","","","","","","","","",""
"call-function","34","263849","0.0-2.0-12.0","battery-v0.2","","","","","","","","","","","","","","","","","","","","","","","","","",""
"pit-instructions","35","277386","0.0-2.0-13.0","battery-v0.2","","[{""page_index"":0,""viewing_time"":4912.299999952316},{""page_index"":1,""viewing_time"":4946},{""page_index"":2,""viewing_time"":1963.9000000953674},{""page_index"":3,""viewing_time"":1713.2999999523163}]","13535.900000095367","","","","","","","","","","","","","","","","","","","","","","",""
"pit-trial","36","282243","0.0-2.0-14.0-0.0","battery-v0.2","","","-1","&#9789;","elianto","#f73b6a7A","32","-1","0","-10","","0","0","4","6100894ca36594e9bd02052e&order=&STUDY_ID=61f02a8661f82b834564f044","999","","","","","","","","","",""
"pit-trial","37","285616","0.0-2.0-14.0-1.0","battery-v0.2","","","515.2000000476837","&#9789;","elianto","#f73b6a7A","32","32","1","0","1366.6000001430511","1","0","4","6100894ca36594e9bd02052e&order=&STUDY_ID=61f02a8661f82b834564f044","999","","","","","","","","","",""
"pit-trial","38","288966","0.0-2.0-14.0-2.0","battery-v0.2","","","494","&#9789;","elianto","#f73b6a7A","32","32","1","0","1344.3000001907349","1","0","4","6100894ca36594e9bd02052e&order=&STUDY_ID=61f02a8661f82b834564f044","999","","","","","","","","","",""
"pit-trial","39","292211","0.0-2.0-14.0-3.0","battery-v0.2","","","390.39999985694885","&#9789;","elianto","#f73b6a7A","32","32","1","-10","1240.7999999523163","1","0","4","6100894ca36594e9bd02052e&order=&STUDY_ID=61f02a8661f82b834564f044","999","","","","","","","","","",""
"pit-trial","40","295508","0.0-2.0-14.0-4.0","battery-v0.2","","","443.89999985694885","&#9789;","elianto","#f73b6a7A","32","32","1","0","1294.2999999523163","1","0","4","6100894ca36594e9bd02052e&order=&STUDY_ID=61f02a8661f82b834564f044","999","","","","","","","","","",""
"call-function","41","295510","0.0-2.0-15.0","battery-v0.2","","","","","","","","","","","","","","","","","","","","","","","","","",""
"pit-instructions","42","342529","0.0-2.0-16.0","battery-v0.2","","[{""page_index"":0,""viewing_time"":2821.2000000476837},{""page_index"":1,""viewing_time"":3128.2000000476837},{""page_index"":2,""viewing_time"":9770.599999904633},{""page_index"":3,""viewing_time"":3919.7000000476837},{""page_index"":4,""viewing_time"":14333.799999952316},{""page_index"":5,""viewing_time"":2100.7000000476837},{""page_index"":6,""viewing_time"":6554.5},{""page_index"":7,""viewing_time"":2804.4000000953674},{""page_index"":8,""viewing_time"":1583.7999999523163}]","47017.299999952316","","","","","","","","","","","","","","","","","","","","","","",""
"pit-comprehension","43","347783","0.0-2.0-17.0-0.0","battery-v0.2","","","5250.400000095367","","","","","","","","","","","","","","","SPACE","0","","","","","","",""
"pit-instructions","44","351941","0.0-2.0-17.0-1.0","battery-v0.2","","[{""page_index"":0,""viewing_time"":4136.799999952316}]","4137.299999952316","","","","","","","","","","","","","","","","","","","","","","",""
"pit-comprehension","45","357231","0.0-2.0-18.0-0.0","battery-v0.2","","","5287.400000095367","","","","","","","","","","","","","","","10","0","","","","","","",""
"pit-instructions","46","358782","0.0-2.0-18.0-1.0","battery-v0.2","","[{""page_index"":0,""viewing_time"":1538.9000000953674}]","1539.4000000953674","","","","","","","","","","","","","","","","","","","","","","",""
"pit-comprehension","47","362740","0.0-2.0-19.0-0.0","battery-v0.2","","","3954.9000000953674","","","","","","","","","","","","","","","0","0","","","","","","",""
"pit-instructions","48","364330","0.0-2.0-19.0-1.0","battery-v0.2","","[{""page_index"":0,""viewing_time"":1577.5}]","1577.6999998092651","","","","","","","","","","","","","","","","","","","","","","",""
"pit-comprehension","49","374086","0.0-2.0-20.0-0.0","battery-v0.2","","","9753.100000143051","","","","","","","","","","","","","","","True","0","","","","","","",""
"pit-instructions","50","375379","0.0-2.0-20.0-1.0","battery-v0.2","","[{""page_index"":0,""viewing_time"":1279.6000001430511}]","1280.1000001430511","","","","","","","","","","","","","","","","","","","","","","",""
"pit-comprehension","51","386699","0.0-2.0-21.0-0.0","battery-v0.2","","","11316.600000143051","","","","","","","","","","","","","","","True","0","","","","","","",""
"pit-instructions","52","387902","0.0-2.0-21.0-1.0","battery-v0.2","","[{""page_index"":0,""viewing_time"":1189}]","1189.6000001430511","","","","","","","","","","","","","","","","","","","","","","",""
"pit-comprehension","53","392910","0.0-2.0-22.0-0.0","battery-v0.2","","","5004.599999904633","","","","","","","","","","","","","","","True","0","","","","","","",""
"pit-instructions","54","394206","0.0-2.0-22.0-1.0","battery-v0.2","","[{""page_index"":0,""viewing_time"":1282.0999999046326}]","1282.7000000476837","","","","","","","","","","","","","","","","","","","","","","",""
"pit-comprehension","55","400547","0.0-2.0-23.0-0.0","battery-v0.2","","","6337.200000047684","","","","","","","","","","","","","","","False","0","","","","","","",""
"pit-instructions","56","401985","0.0-2.0-23.0-1.0","battery-v0.2","","[{""page_index"":0,""viewing_time"":1423.4000000953674}]","1424","","","","","","","","","","","","","","","","","","","","","","",""
"pit-instructions","57","413275","0.0-3.0","battery-v0.2","","[{""page_index"":0,""viewing_time"":2264.7999999523163},{""page_index"":1,""viewing_time"":4339.800000190735},{""page_index"":2,""viewing_time"":4683.399999856949}]","11288.5","","","","","","","","","","","","","","","","","","","","","","",""
"pit-trial","58","418132","0.0-4.0","battery-v0.2","","","-1","&#9752;","elianto","#f73b6a7A","32","-1","0","-10","","0","1","","","","","","","6100894ca36594e9bd02052e&order=&STUDY_ID=61f02a8661f82b834564f044","1","3","3","lose","go","0"
"pit-trial","59","422300","0.0-5.0","battery-v0.2","","","1312.6000001430511","&#9730;","elianto","#3366ff99","32","32","1","+10","2162.7999999523163","1","1","","","","","","","6100894ca36594e9bd02052e&order=&STUDY_ID=61f02a8661f82b834564f044","2","1","1","win","go","0"
"pit-trial","60","427159","0.0-6.0","battery-v0.2","","","-1","&#9728;","elianto","#f73b6a7A","-1","-1","1","0","","0","1","","","","","","","6100894ca36594e9bd02052e&order=&STUDY_ID=61f02a8661f82b834564f044","3","0","4","lose","no-go","0"
"pit-trial","61","432018","0.0-7.0","battery-v0.2","","","-1","&#9733;","elianto","#3366ff99","-1","-1","1","+10","","0","1","","","","","","","6100894ca36594e9bd02052e&order=&STUDY_ID=61f02a8661f82b834564f044","4","2","2","win","no-go","0"
"pit-trial","62","436744","0.0-8.0","battery-v0.2","","","1868.4000000953674","&#9728;","elianto","#f73b6a7A","-1","32","0","0","2718.7000000476837","1","1","","","","","","","6100894ca36594e9bd02052e&order=&STUDY_ID=61f02a8661f82b834564f044","5","0","4","lose","no-go","1"
"pit-trial","63","441602","0.0-9.0","battery-v0.2","","","-1","&#9730;","elianto","#3366ff99","32","-1","0","0","","0","1","","","","","","","6100894ca36594e9bd02052e&order=&STUDY_ID=61f02a8661f82b834564f044","6","1","1","win","go","0"
"pit-trial","64","446461","0.0-10.0","battery-v0.2","","","-1","&#9733;","elianto","#3366ff99","-1","-1","1","+10","","0","1","","","","","","","6100894ca36594e9bd02052e&order=&STUDY_ID=61f02a8661f82b834564f044","7","2","2","win","no-go","0"
"pit-trial","65","451320","0.0-11.0","battery-v0.2","","","-1","&#9752;","elianto","#f73b6a7A","32","-1","0","-10","","0","1","","","","","","","6100894ca36594e9bd02052e&order=&STUDY_ID=61f02a8661f82b834564f044","8","3","3","lose","go","0"
"pit-trial","66","456179","0.0-12.0","battery-v0.2","","","-1","&#9733;","elianto","#3366ff99","-1","-1","1","+10","","0","1","","","","","","","6100894ca36594e9bd02052e&order=&STUDY_ID=61f02a8661f82b834564f044","9","2","2","win","no-go","0"
"pit-trial","67","460072","0.0-13.0","battery-v0.2","","","1028.7000000476837","&#9752;","elianto","#f73b6a7A","32","32","1","0","1886.4000000953674","1","1","","","","","","","6100894ca36594e9bd02052e&order=&STUDY_ID=61f02a8661f82b834564f044","10","3","3","lose","go","0"
"pit-trial","68","464754","0.0-14.0","battery-v0.2","","","1827.2000000476837","&#9730;","elianto","#3366ff99","32","32","1","+10","2677.5","1","1","","","","","","","6100894ca36594e9bd02052e&order=&STUDY_ID=61f02a8661f82b834564f044","11","1","1","win","go","0"
"pit-trial","69","469612","0.0-15.0","battery-v0.2","","","-1","&#9728;","elianto","#f73b6a7A","-1","-1","1","0","","0","1","","","","","","","6100894ca36594e9bd02052e&order=&STUDY_ID=61f02a8661f82b834564f044","12","0","4","lose","no-go","0"
"pit-trial","70","474146","0.0-16.0","battery-v0.2","","","1678.6999998092651","&#9730;","elianto","#3366ff99","32","32","1","+10","2529","1","1","","","","","","","6100894ca36594e9bd02052e&order=&STUDY_ID=61f02a8661f82b834564f044","13","1","1","win","go","0"
"pit-trial","71","479004","0.0-17.0","battery-v0.2","","","-1","&#9733;","elianto","#3366ff99","-1","-1","1","+10","","0","1","","","","","","","6100894ca36594e9bd02052e&order=&STUDY_ID=61f02a8661f82b834564f044","14","2","2","win","no-go","0"
"pit-trial","72","483864","0.0-18.0","battery-v0.2","","","-1","&#9728;","elianto","#f73b6a7A","-1","-1","1","0","","0","1","","","","","","","6100894ca36594e9bd02052e&order=&STUDY_ID=61f02a8661f82b834564f044","15","0","4","lose","no-go","0"
"pit-trial","73","487481","0.0-19.0","battery-v0.2","","","763.2000000476837","&#9752;","elianto","#f73b6a7A","32","32","1","0","1614","1","1","","","","","","","6100894ca36594e9bd02052e&order=&STUDY_ID=61f02a8661f82b834564f044","16","3","3","lose","go","0"
"pit-trial","74","491179","0.0-20.0","battery-v0.2","","","842.5","&#9730;","elianto","#3366ff99","32","32","1","+10","1693.5","1","1","","","","","","","6100894ca36594e9bd02052e&order=&STUDY_ID=61f02a8661f82b834564f044","17","1","1","win","go","0"
"pit-trial","75","495051","0.0-21.0","battery-v0.2","","","1018.2000000476837","&#9752;","elianto","#f73b6a7A","32","32","1","0","1869","1","1","","","","","","","6100894ca36594e9bd02052e&order=&STUDY_ID=61f02a8661f82b834564f044","18","3","3","lose","go","0"
"pit-trial","76","499909","0.0-22.0","battery-v0.2","","","-1","&#9728;","elianto","#f73b6a7A","-1","-1","1","0","","0","1","","","","","","","6100894ca36594e9bd02052e&order=&STUDY_ID=61f02a8661f82b834564f044","19","0","4","lose","no-go","0"
"pit-trial","77","504768","0.0-23.0","battery-v0.2","","","-1","&#9733;","elianto","#3366ff99","-1","-1","1","+10","","0","1","","","","","","","6100894ca36594e9bd02052e&order=&STUDY_ID=61f02a8661f82b834564f044","20","2","2","win","no-go","0"
"pit-instructions","78","510702","0.0-24.0","battery-v0.2","","[{""page_index"":0,""viewing_time"":2521.5},{""page_index"":1,""viewing_time"":3409.899999856949}]","5931.799999952316","","","","","","","","","","","","","","","","","","","","","","",""
"pit-trial","79","515560","0.0-25.0","battery-v0.2","","","-1","k","elianto","#f73b6a7A","32","-1","0","-10","","0","2","","","","","","","6100894ca36594e9bd02052e&order=&STUDY_ID=61f02a8661f82b834564f044","21","3","3","lose","go","0"
"pit-trial","80","519508","0.0-26.0","battery-v0.2","","","1093.6000001430511","d","elianto","#3366ff99","32","32","1","+10","1944.9000000953674","1","2","","","","","","","6100894ca36594e9bd02052e&order=&STUDY_ID=61f02a8661f82b834564f044","22","2","1","win","go","0"
"pit-trial","81","523490","0.0-27.0","battery-v0.2","","","1123.1000001430511","j","elianto","#3366ff99","-1","32","0","0","1978.7000000476837","1","2","","","","","","","6100894ca36594e9bd02052e&order=&STUDY_ID=61f02a8661f82b834564f044","23","1","2","win","no-go","0"
"pit-trial","82","527200","0.0-28.0","battery-v0.2","","","851.7999999523163","v","elianto","#3366ff99","-1","32","0","0","1702.3999998569489","1","2","","","","","","","6100894ca36594e9bd02052e&order=&STUDY_ID=61f02a8661f82b834564f044","24","0","2","win","no-go","0"
"pit-trial","83","530816","0.0-29.0","battery-v0.2","","","759.7000000476837","k","elianto","#f73b6a7A","32","32","1","-10","1610","1","2","","","","","","","6100894ca36594e9bd02052e&order=&STUDY_ID=61f02a8661f82b834564f044","25","3","3","lose","go","1"
"pit-trial","84","534803","0.0-30.0","battery-v0.2","","","1126.5","v","elianto","#3366ff99","-1","32","0","0","1980.4000000953674","1","2","","","","","","","6100894ca36594e9bd02052e&order=&STUDY_ID=61f02a8661f82b834564f044","26","0","2","win","no-go","0"
"pit-trial","85","538757","0.0-31.0","battery-v0.2","","","1099.0999999046326","d","elianto","#3366ff99","32","32","1","+10","1949.6999998092651","1","2","","","","","","","6100894ca36594e9bd02052e&order=&STUDY_ID=61f02a8661f82b834564f044","27","2","1","win","go","0"
"pit-trial","86","542734","0.0-32.0","battery-v0.2","","","1117.8000001907349","j","elianto","#3366ff99","-1","32","0","0","1971","1","2","","","","","","","6100894ca36594e9bd02052e&order=&STUDY_ID=61f02a8661f82b834564f044","28","1","2","win","no-go","0"
"pit-trial","87","546328","0.0-33.0","battery-v0.2","","","738.0999999046326","d","elianto","#3366ff99","32","32","1","0","1590.5","1","2","","","","","","","6100894ca36594e9bd02052e&order=&STUDY_ID=61f02a8661f82b834564f044","29","2","1","win","go","1"
"pit-trial","88","551186","0.0-34.0","battery-v0.2","","","-1","k","elianto","#f73b6a7A","32","-1","0","-10","","0","2","","","","","","","6100894ca36594e9bd02052e&order=&STUDY_ID=61f02a8661f82b834564f044","30","3","3","lose","go","0"
"pit-trial","89","555256","0.0-35.0","battery-v0.2","","","1211.4000000953674","j","elianto","#3366ff99","-1","32","0","0","2062.5","1","2","","","","","","","6100894ca36594e9bd02052e&order=&STUDY_ID=61f02a8661f82b834564f044","31","1","2","win","no-go","0"
"pit-trial","90","559287","0.0-36.0","battery-v0.2","","","1173.5","v","elianto","#3366ff99","-1","32","0","0","2024.5","1","2","","","","","","","6100894ca36594e9bd02052e&order=&STUDY_ID=61f02a8661f82b834564f044","32","0","2","win","no-go","0"
"pit-trial","91","564144","0.0-37.0","battery-v0.2","","","-1","k","elianto","#f73b6a7A","32","-1","0","-10","","0","2","","","","","","","6100894ca36594e9bd02052e&order=&STUDY_ID=61f02a8661f82b834564f044","33","3","3","lose","go","0"
"pit-trial","92","569002","0.0-38.0","battery-v0.2","","","-1","j","elianto","#3366ff99","-1","-1","1","0","","0","2","","","","","","","6100894ca36594e9bd02052e&order=&STUDY_ID=61f02a8661f82b834564f044","34","1","2","win","no-go","1"
"pit-trial","93","573861","0.0-39.0","battery-v0.2","","","-1","v","elianto","#3366ff99","-1","-1","1","+10","","0","2","","","","","","","6100894ca36594e9bd02052e&order=&STUDY_ID=61f02a8661f82b834564f044","35","0","2","win","no-go","0"
"pit-trial","94","578325","0.0-40.0","battery-v0.2","","","1609.2999999523163","d","elianto","#3366ff99","32","32","1","+10","2460.5999999046326","1","2","","","","","","","6100894ca36594e9bd02052e&order=&STUDY_ID=61f02a8661f82b834564f044","36","2","1","win","go","0"
"pit-trial","95","582831","0.0-41.0","battery-v0.2","","","1647.2000000476837","k","elianto","#f73b6a7A","32","32","1","0","2497.5999999046326","1","2","","","","","","","6100894ca36594e9bd02052e&order=&STUDY_ID=61f02a8661f82b834564f044","37","3","3","lose","go","0"
"pit-trial","96","587393","0.0-42.0","battery-v0.2","","","1706","d","elianto","#3366ff99","32","32","1","0","2556.300000190735","1","2","","","","","","","6100894ca36594e9bd02052e&order=&STUDY_ID=61f02a8661f82b834564f044","38","2","1","win","go","1"
"pit-trial","97","592252","0.0-43.0","battery-v0.2","","","-1","j","elianto","#3366ff99","-1","-1","1","+10","","0","2","","","","","","","6100894ca36594e9bd02052e&order=&STUDY_ID=61f02a8661f82b834564f044","39","1","2","win","no-go","0"
"pit-trial","98","597111","0.0-44.0","battery-v0.2","","","-1","v","elianto","#3366ff99","-1","-1","1","+10","","0","2","","","","","","","6100894ca36594e9bd02052e&order=&STUDY_ID=61f02a8661f82b834564f044","40","0","2","win","no-go","0"
"pit-trial","99","601970","0.0-45.0","battery-v0.2","","","-1","j","elianto","#3366ff99","-1","-1","1","+10","","0","2","","","","","","","6100894ca36594e9bd02052e&order=&STUDY_ID=61f02a8661f82b834564f044","41","1","2","win","no-go","0"
"pit-trial","100","606829","0.0-46.0","battery-v0.2","","","-1","v","elianto","#3366ff99","-1","-1","1","+10","","0","2","","","","","","","6100894ca36594e9bd02052e&order=&STUDY_ID=61f02a8661f82b834564f044","42","0","2","win","no-go","0"
"pit-trial","101","611687","0.0-47.0","battery-v0.2","","","-1","k","elianto","#f73b6a7A","32","-1","0","0","2940.5","1","2","","","","","","","6100894ca36594e9bd02052e&order=&STUDY_ID=61f02a8661f82b834564f044","43","3","3","lose","go","1"
"pit-trial","102","616111","0.0-48.0","battery-v0.2","","","1564.7000000476837","d","elianto","#3366ff99","32","32","1","+10","2416.5999999046326","1","2","","","","","","","6100894ca36594e9bd02052e&order=&STUDY_ID=61f02a8661f82b834564f044","44","2","1","win","go","0"
"pit-trial","103","620973","0.0-49.0","battery-v0.2","","","-1","v","elianto","#3366ff99","-1","-1","1","+10","","0","2","","","","","","","6100894ca36594e9bd02052e&order=&STUDY_ID=61f02a8661f82b834564f044","45","0","2","win","no-go","0"
"pit-trial","104","624860","0.0-50.0","battery-v0.2","","","1033.1000001430511","d","elianto","#3366ff99","32","32","1","+10","1883.3999998569489","1","2","","","","","","","6100894ca36594e9bd02052e&order=&STUDY_ID=61f02a8661f82b834564f044","46","2","1","win","go","0"
"pit-trial","105","629719","0.0-51.0","battery-v0.2","","","-1","j","elianto","#3366ff99","-1","-1","1","+10","","0","2","","","","","","","6100894ca36594e9bd02052e&order=&STUDY_ID=61f02a8661f82b834564f044","47","1","2","win","no-go","0"
"pit-trial","106","634579","0.0-52.0","battery-v0.2","","","-1","k","elianto","#f73b6a7A","32","-1","0","0","","0","2","","","","","","","6100894ca36594e9bd02052e&order=&STUDY_ID=61f02a8661f82b834564f044","48","3","3","lose","go","1"
"pit-trial","107","638293","0.0-53.0","battery-v0.2","","","858.9000000953674","k","elianto","#f73b6a7A","32","32","1","0","1709.2000000476837","1","2","","","","","","","6100894ca36594e9bd02052e&order=&STUDY_ID=61f02a8661f82b834564f044","49","3","3","lose","go","0"
"pit-trial","108","643152","0.0-54.0","battery-v0.2","","","-1","v","elianto","#3366ff99","-1","-1","1","+10","","0","2","","","","","","","6100894ca36594e9bd02052e&order=&STUDY_ID=61f02a8661f82b834564f044","50","0","2","win","no-go","0"
"pit-trial","109","648011","0.0-55.0","battery-v0.2","","","-1","j","elianto","#3366ff99","-1","-1","1","0","","0","2","","","","","","","6100894ca36594e9bd02052e&order=&STUDY_ID=61f02a8661f82b834564f044","51","1","2","win","no-go","1"
"pit-trial","110","651825","0.0-56.0","battery-v0.2","","","956.7000000476837","d","elianto","#3366ff99","32","32","1","+10","1807.6000001430511","1","2","","","","","","","6100894ca36594e9bd02052e&order=&STUDY_ID=61f02a8661f82b834564f044","52","2","1","win","go","0"
"pit-trial","111","656684","0.0-57.0","battery-v0.2","","","-1","v","elianto","#3366ff99","-1","-1","1","+10","","0","2","","","","","","","6100894ca36594e9bd02052e&order=&STUDY_ID=61f02a8661f82b834564f044","53","0","2","win","no-go","0"
"pit-trial","112","661212","0.0-58.0","battery-v0.2","","","1673.2999999523163","w","elianto","#f73b6a7A","32","32","1","0","2524.100000143051","1","2","","","","","","","6100894ca36594e9bd02052e&order=&STUDY_ID=61f02a8661f82b834564f044","54","5","3","lose","go","0"
"pit-trial","113","665345","0.0-59.0","battery-v0.2","","","1278.3999998569489","d","elianto","#3366ff99","32","32","1","+10","2128.5","1","2","","","","","","","6100894ca36594e9bd02052e&order=&STUDY_ID=61f02a8661f82b834564f044","55","2","1","win","go","0"
"pit-trial","114","669478","0.0-60.0","battery-v0.2","","","1279.5999999046326","e","elianto","#f73b6a7A","-1","32","0","-10","2129.899999856949","1","2","","","","","","","6100894ca36594e9bd02052e&order=&STUDY_ID=61f02a8661f82b834564f044","56","4","4","lose","no-go","0"
"pit-trial","115","674337","0.0-61.0","battery-v0.2","","","-1","d","elianto","#3366ff99","32","-1","0","0","","0","2","","","","","","","6100894ca36594e9bd02052e&order=&STUDY_ID=61f02a8661f82b834564f044","57","2","1","win","go","0"
"pit-trial","116","679039","0.0-62.0","battery-v0.2","","","1848.5","w","elianto","#f73b6a7A","32","32","1","0","2699.5","1","2","","","","","","","6100894ca36594e9bd02052e&order=&STUDY_ID=61f02a8661f82b834564f044","58","5","3","lose","go","0"
"pit-trial","117","683898","0.0-63.0","battery-v0.2","","","-1","e","elianto","#f73b6a7A","-1","-1","1","0","","0","2","","","","","","","6100894ca36594e9bd02052e&order=&STUDY_ID=61f02a8661f82b834564f044","59","4","4","lose","no-go","0"
"pit-trial","118","688757","0.0-64.0","battery-v0.2","","","-1","v","elianto","#3366ff99","-1","-1","1","+10","","0","2","","","","","","","6100894ca36594e9bd02052e&order=&STUDY_ID=61f02a8661f82b834564f044","60","0","2","win","no-go","0"
"pit-trial","119","693616","0.0-65.0","battery-v0.2","","","-1","e","elianto","#f73b6a7A","-1","-1","1","0","","0","2","","","","","","","6100894ca36594e9bd02052e&order=&STUDY_ID=61f02a8661f82b834564f044","61","4","4","lose","no-go","0"
"pit-trial","120","697245","0.0-66.0","battery-v0.2","","","770.3999998569489","w","elianto","#f73b6a7A","32","32","1","-10","1621","1","2","","","","","","","6100894ca36594e9bd02052e&order=&STUDY_ID=61f02a8661f82b834564f044","62","5","3","lose","go","1"
"pit-trial","121","701860","0.0-67.0","battery-v0.2","","","1756.1000001430511","d","elianto","#3366ff99","32","32","1","+10","2611.100000143051","1","2","","","","","","","6100894ca36594e9bd02052e&order=&STUDY_ID=61f02a8661f82b834564f044","63","2","1","win","go","0"
"pit-trial","122","706074","0.0-68.0","battery-v0.2","","","1354.5999999046326","s","elianto","#3366ff99","-1","32","0","0","2207","1","2","","","","","","","6100894ca36594e9bd02052e&order=&STUDY_ID=61f02a8661f82b834564f044","64","6","2","win","no-go","0"
"pit-trial","123","710933","0.0-69.0","battery-v0.2","","","-1","s","elianto","#3366ff99","-1","-1","1","+10","","0","2","","","","","","","6100894ca36594e9bd02052e&order=&STUDY_ID=61f02a8661f82b834564f044","65","6","2","win","no-go","0"
"pit-trial","124","715791","0.0-70.0","battery-v0.2","","","-1","e","elianto","#f73b6a7A","-1","-1","1","0","","0","2","","","","","","","6100894ca36594e9bd02052e&order=&STUDY_ID=61f02a8661f82b834564f044","66","4","4","lose","no-go","0"
"pit-trial","125","719995","0.0-71.0","battery-v0.2","","","1348.6000001430511","d","elianto","#3366ff99","32","32","1","0","2199.5","1","2","","","","","","","6100894ca36594e9bd02052e&order=&STUDY_ID=61f02a8661f82b834564f044","67","2","1","win","go","1"
"pit-trial","126","724459","0.0-72.0","battery-v0.2","","","1610.4000000953674","w","elianto","#f73b6a7A","32","32","1","-10","2461","1","2","","","","","","","6100894ca36594e9bd02052e&order=&STUDY_ID=61f02a8661f82b834564f044","68","5","3","lose","go","1"
"pit-trial","127","729318","0.0-73.0","battery-v0.2","","","-1","w","elianto","#f73b6a7A","32","-1","0","-10","","0","2","","","","","","","6100894ca36594e9bd02052e&order=&STUDY_ID=61f02a8661f82b834564f044","69","5","3","lose","go","0"
"pit-trial","128","734177","0.0-74.0","battery-v0.2","","","-1","p","elianto","#f73b6a7A","-1","-1","1","0","","0","2","","","","","","","6100894ca36594e9bd02052e&order=&STUDY_ID=61f02a8661f82b834564f044","70","7","4","lose","no-go","0"
"pit-trial","129","739036","0.0-75.0","battery-v0.2","","","-1","s","elianto","#3366ff99","-1","-1","1","0","","0","2","","","","","","","6100894ca36594e9bd02052e&order=&STUDY_ID=61f02a8661f82b834564f044","71","6","2","win","no-go","1"
"pit-trial","130","743894","0.0-76.0","battery-v0.2","","","-1","e","elianto","#f73b6a7A","-1","-1","1","0","","0","2","","","","","","","6100894ca36594e9bd02052e&order=&STUDY_ID=61f02a8661f82b834564f044","72","4","4","lose","no-go","0"
"pit-trial","131","748753","0.0-77.0","battery-v0.2","","","-1","w","elianto","#f73b6a7A","32","-1","0","0","","0","2","","","","","","","6100894ca36594e9bd02052e&order=&STUDY_ID=61f02a8661f82b834564f044","73","5","3","lose","go","1"
"pit-trial","132","753612","0.0-78.0","battery-v0.2","","","-1","e","elianto","#f73b6a7A","-1","-1","1","0","","0","2","","","","","","","6100894ca36594e9bd02052e&order=&STUDY_ID=61f02a8661f82b834564f044","74","4","4","lose","no-go","0"
"pit-trial","133","758123","0.0-79.0","battery-v0.2","","","1651.8999998569489","p","elianto","#f73b6a7A","-1","32","0","-10","2504.100000143051","1","2","","","","","","","6100894ca36594e9bd02052e&order=&STUDY_ID=61f02a8661f82b834564f044","75","7","4","lose","no-go","0"
"pit-trial","134","762982","0.0-80.0","battery-v0.2","","","-1","s","elianto","#3366ff99","-1","-1","1","+10","","0","2","","","","","","","6100894ca36594e9bd02052e&order=&STUDY_ID=61f02a8661f82b834564f044","76","6","2","win","no-go","0"
"pit-trial","135","767841","0.0-81.0","battery-v0.2","","","-1","s","elianto","#3366ff99","-1","-1","1","+10","","0","2","","","","","","","6100894ca36594e9bd02052e&order=&STUDY_ID=61f02a8661f82b834564f044","77","6","2","win","no-go","0"
"pit-trial","136","772166","0.0-82.0","battery-v0.2","","","1466.7999999523163","p","elianto","#f73b6a7A","-1","32","0","0","2318","1","2","","","","","","","6100894ca36594e9bd02052e&order=&STUDY_ID=61f02a8661f82b834564f044","78","7","4","lose","no-go","1"
"pit-trial","137","777025","0.0-83.0","battery-v0.2","","","-1","w","elianto","#f73b6a7A","32","-1","0","-10","","0","2","","","","","","","6100894ca36594e9bd02052e&order=&STUDY_ID=61f02a8661f82b834564f044","79","5","3","lose","go","0"
"pit-trial","138","781884","0.0-84.0","battery-v0.2","","","-1","e","elianto","#f73b6a7A","-1","-1","1","0","","0","2","","","","","","","6100894ca36594e9bd02052e&order=&STUDY_ID=61f02a8661f82b834564f044","80","4","4","lose","no-go","0"
"pit-trial","139","786743","0.0-85.0","battery-v0.2","","","-1","s","elianto","#3366ff99","-1","-1","1","+10","","0","2","","","","","","","6100894ca36594e9bd02052e&order=&STUDY_ID=61f02a8661f82b834564f044","81","6","2","win","no-go","0"
"pit-trial","140","791601","0.0-86.0","battery-v0.2","","","-1","w","elianto","#f73b6a7A","32","-1","0","-10","","0","2","","","","","","","6100894ca36594e9bd02052e&order=&STUDY_ID=61f02a8661f82b834564f044","82","5","3","lose","go","0"
"pit-trial","141","796460","0.0-87.0","battery-v0.2","","","-1","e","elianto","#f73b6a7A","-1","-1","1","0","","0","2","","","","","","","6100894ca36594e9bd02052e&order=&STUDY_ID=61f02a8661f82b834564f044","83","4","4","lose","no-go","0"
"pit-trial","142","800698","0.0-88.0","battery-v0.2","","","1383.9000000953674","p","elianto","#f73b6a7A","-1","32","0","0","2233.7999999523163","1","2","","","","","","","6100894ca36594e9bd02052e&order=&STUDY_ID=61f02a8661f82b834564f044","84","7","4","lose","no-go","1"
"pit-trial","143","805557","0.0-89.0","battery-v0.2","","","-1","s","elianto","#3366ff99","-1","-1","1","+10","","0","2","","","","","","","6100894ca36594e9bd02052e&order=&STUDY_ID=61f02a8661f82b834564f044","85","6","2","win","no-go","0"
"pit-trial","144","809017","0.0-90.0","battery-v0.2","","","601.7999999523163","w","elianto","#f73b6a7A","32","32","1","0","1452.0999999046326","1","2","","","","","","","6100894ca36594e9bd02052e&order=&STUDY_ID=61f02a8661f82b834564f044","86","5","3","lose","go","0"
"pit-trial","145","813591","0.0-91.0","battery-v0.2","","","1720.2000000476837","p","elianto","#f73b6a7A","-1","32","0","-10","2571.100000143051","1","2","","","","","","","6100894ca36594e9bd02052e&order=&STUDY_ID=61f02a8661f82b834564f044","87","7","4","lose","no-go","0"
"pit-trial","146","818450","0.0-92.0","battery-v0.2","","","-1","e","elianto","#f73b6a7A","-1","-1","1","0","","0","2","","","","","","","6100894ca36594e9bd02052e&order=&STUDY_ID=61f02a8661f82b834564f044","88","4","4","lose","no-go","0"
"pit-trial","147","823309","0.0-93.0","battery-v0.2","","","-1","s","elianto","#3366ff99","-1","-1","1","+10","","0","2","","","","","","","6100894ca36594e9bd02052e&order=&STUDY_ID=61f02a8661f82b834564f044","89","6","2","win","no-go","0"
"pit-trial","148","826920","0.0-94.0","battery-v0.2","","","753.6999998092651","w","elianto","#f73b6a7A","32","32","1","0","1604.7000000476837","1","2","","","","","","","6100894ca36594e9bd02052e&order=&STUDY_ID=61f02a8661f82b834564f044","90","5","3","lose","go","0"
"pit-trial","149","831779","0.0-95.0","battery-v0.2","","","-1","e","elianto","#f73b6a7A","-1","-1","1","0","","0","2","","","","","","","6100894ca36594e9bd02052e&order=&STUDY_ID=61f02a8661f82b834564f044","91","4","4","lose","no-go","0"
"pit-trial","150","835930","0.0-96.0","battery-v0.2","","","1295.3999998569489","p","elianto","#f73b6a7A","-1","32","0","-10","2146.5999999046326","1","2","","","","","","","6100894ca36594e9bd02052e&order=&STUDY_ID=61f02a8661f82b834564f044","92","7","4","lose","no-go","0"
"pit-trial","151","840788","0.0-97.0","battery-v0.2","","","-1","p","elianto","#f73b6a7A","-1","-1","1","0","","0","2","","","","","","","6100894ca36594e9bd02052e&order=&STUDY_ID=61f02a8661f82b834564f044","93","7","4","lose","no-go","0"
"pit-trial","152","845647","0.0-98.0","battery-v0.2","","","-1","w","elianto","#f73b6a7A","32","-1","0","-10","","0","2","","","","","","","6100894ca36594e9bd02052e&order=&STUDY_ID=61f02a8661f82b834564f044","94","5","3","lose","go","0"
"pit-trial","153","850506","0.0-99.0","battery-v0.2","","","-1","g","elianto","#f73b6a7A","-1","-1","1","0","","0","2","","","","","","","6100894ca36594e9bd02052e&order=&STUDY_ID=61f02a8661f82b834564f044","95","8","4","lose","no-go","0"
"pit-trial","154","855365","0.0-100.0","battery-v0.2","","","-1","s","elianto","#3366ff99","-1","-1","1","+10","","0","2","","","","","","","6100894ca36594e9bd02052e&order=&STUDY_ID=61f02a8661f82b834564f044","96","6","2","win","no-go","0"
"pit-trial","155","860224","0.0-101.0","battery-v0.2","","","-1","s","elianto","#3366ff99","-1","-1","1","0","","0","2","","","","","","","6100894ca36594e9bd02052e&order=&STUDY_ID=61f02a8661f82b834564f044","97","6","2","win","no-go","1"
"pit-trial","156","864863","0.0-102.0","battery-v0.2","","","1783","w","elianto","#f73b6a7A","32","32","1","0","2633.2999999523163","1","2","","","","","","","6100894ca36594e9bd02052e&order=&STUDY_ID=61f02a8661f82b834564f044","98","5","3","lose","go","0"
"pit-trial","157","869721","0.0-103.0","battery-v0.2","","","-1","g","elianto","#f73b6a7A","-1","-1","1","0","","0","2","","","","","","","6100894ca36594e9bd02052e&order=&STUDY_ID=61f02a8661f82b834564f044","99","8","4","lose","no-go","0"
"pit-trial","158","874580","0.0-104.0","battery-v0.2","","","-1","p","elianto","#f73b6a7A","-1","-1","1","0","","0","2","","","","","","","6100894ca36594e9bd02052e&order=&STUDY_ID=61f02a8661f82b834564f044","100","7","4","lose","no-go","0"
"pit-trial","159","879439","0.0-105.0","battery-v0.2","","","-1","l","elianto","#f73b6a7A","32","-1","0","-10","","0","2","","","","","","","6100894ca36594e9bd02052e&order=&STUDY_ID=61f02a8661f82b834564f044","101","10","3","lose","go","0"
"pit-trial","160","884298","0.0-106.0","battery-v0.2","","","-1","g","elianto","#f73b6a7A","-1","-1","1","0","","0","2","","","","","","","6100894ca36594e9bd02052e&order=&STUDY_ID=61f02a8661f82b834564f044","102","8","4","lose","no-go","0"
"pit-trial","161","889157","0.0-107.0","battery-v0.2","","","-1","s","elianto","#3366ff99","-1","-1","1","+10","","0","2","","","","","","","6100894ca36594e9bd02052e&order=&STUDY_ID=61f02a8661f82b834564f044","103","6","2","win","no-go","0"
"pit-trial","162","893442","0.0-108.0","battery-v0.2","","","1427.6999998092651","a","elianto","#3366ff99","32","32","1","+10","2279.0999999046326","1","2","","","","","","","6100894ca36594e9bd02052e&order=&STUDY_ID=61f02a8661f82b834564f044","104","9","1","win","go","0"
"pit-trial","163","898302","0.0-109.0","battery-v0.2","","","-1","l","elianto","#f73b6a7A","32","-1","0","-10","","0","2","","","","","","","6100894ca36594e9bd02052e&order=&STUDY_ID=61f02a8661f82b834564f044","105","10","3","lose","go","0"
"pit-trial","164","903159","0.0-110.0","battery-v0.2","","","-1","g","elianto","#f73b6a7A","-1","-1","1","0","","0","2","","","","","","","6100894ca36594e9bd02052e&order=&STUDY_ID=61f02a8661f82b834564f044","106","8","4","lose","no-go","0"
"pit-trial","165","908018","0.0-111.0","battery-v0.2","","","-1","s","elianto","#3366ff99","-1","-1","1","+10","","0","2","","","","","","","6100894ca36594e9bd02052e&order=&STUDY_ID=61f02a8661f82b834564f044","107","6","2","win","no-go","0"
"pit-trial","166","911693","0.0-112.0","battery-v0.2","","","816.1999998092651","a","elianto","#3366ff99","32","32","1","0","1666.6999998092651","1","2","","","","","","","6100894ca36594e9bd02052e&order=&STUDY_ID=61f02a8661f82b834564f044","108","9","1","win","go","1"
"pit-trial","167","915426","0.0-113.0","battery-v0.2","","","876.7000000476837","a","elianto","#3366ff99","32","32","1","+10","1726.9000000953674","1","2","","","","","","","6100894ca36594e9bd02052e&order=&STUDY_ID=61f02a8661f82b834564f044","109","9","1","win","go","0"
"pit-trial","168","919936","0.0-114.0","battery-v0.2","","","1648","u","elianto","#3366ff99","32","32","1","+10","2505.899999856949","1","2","","","","","","","6100894ca36594e9bd02052e&order=&STUDY_ID=61f02a8661f82b834564f044","110","11","1","win","go","0"
"pit-trial","169","924795","0.0-115.0","battery-v0.2","","","-1","l","elianto","#f73b6a7A","32","-1","0","-10","2927.5999999046326","1","2","","","","","","","6100894ca36594e9bd02052e&order=&STUDY_ID=61f02a8661f82b834564f044","111","10","3","lose","go","0"
"pit-trial","170","929654","0.0-116.0","battery-v0.2","","","-1","g","elianto","#f73b6a7A","-1","-1","1","0","","0","2","","","","","","","6100894ca36594e9bd02052e&order=&STUDY_ID=61f02a8661f82b834564f044","112","8","4","lose","no-go","0"
"pit-trial","171","934513","0.0-117.0","battery-v0.2","","","-1","l","elianto","#f73b6a7A","32","-1","0","-10","","0","2","","","","","","","6100894ca36594e9bd02052e&order=&STUDY_ID=61f02a8661f82b834564f044","113","10","3","lose","go","0"
"pit-trial","172","939372","0.0-118.0","battery-v0.2","","","-1","g","elianto","#f73b6a7A","-1","-1","1","-10","","0","2","","","","","","","6100894ca36594e9bd02052e&order=&STUDY_ID=61f02a8661f82b834564f044","114","8","4","lose","no-go","1"
"pit-trial","173","943244","0.0-119.0","battery-v0.2","","","1016.8999998569489","a","elianto","#3366ff99","32","32","1","+10","1867.2000000476837","1","2","","","","","","","6100894ca36594e9bd02052e&order=&STUDY_ID=61f02a8661f82b834564f044","115","9","1","win","go","0"
"pit-trial","174","947639","0.0-120.0","battery-v0.2","","","1538.9000000953674","u","elianto","#3366ff99","32","32","1","+10","2389.899999856949","1","2","","","","","","","6100894ca36594e9bd02052e&order=&STUDY_ID=61f02a8661f82b834564f044","116","11","1","win","go","0"
"pit-trial","175","952497","0.0-121.0","battery-v0.2","","","-1","g","elianto","#f73b6a7A","-1","-1","1","-10","","0","2","","","","","","","6100894ca36594e9bd02052e&order=&STUDY_ID=61f02a8661f82b834564f044","117","8","4","lose","no-go","1"
"pit-trial","176","956613","0.0-122.0","battery-v0.2","","","1258.5999999046326","u","elianto","#3366ff99","32","32","1","+10","2111.5999999046326","1","2","","","","","","","6100894ca36594e9bd02052e&order=&STUDY_ID=61f02a8661f82b834564f044","118","11","1","win","go","0"
"pit-trial","177","960516","0.0-123.0","battery-v0.2","","","1046.1000001430511","a","elianto","#3366ff99","32","32","1","+10","1897.6000001430511","1","2","","","","","","","6100894ca36594e9bd02052e&order=&STUDY_ID=61f02a8661f82b834564f044","119","9","1","win","go","0"
"pit-trial","178","965373","0.0-124.0","battery-v0.2","","","-1","l","elianto","#f73b6a7A","32","-1","0","-10","","0","2","","","","","","","6100894ca36594e9bd02052e&order=&STUDY_ID=61f02a8661f82b834564f044","120","10","3","lose","go","0"
"pit-trial","179","969501","0.0-125.0","battery-v0.2","","","1268.9000000953674","u","elianto","#3366ff99","32","32","1","+10","2120.5999999046326","1","2","","","","","","","6100894ca36594e9bd02052e&order=&STUDY_ID=61f02a8661f82b834564f044","121","11","1","win","go","0"
"pit-trial","180","973355","0.0-126.0","battery-v0.2","","","998.7999999523163","l","elianto","#f73b6a7A","32","32","1","0","1849.8999998569489","1","2","","","","","","","6100894ca36594e9bd02052e&order=&STUDY_ID=61f02a8661f82b834564f044","122","10","3","lose","go","0"
"pit-trial","181","976954","0.0-127.0","battery-v0.2","","","745","a","elianto","#3366ff99","32","32","1","+10","1595.4000000953674","1","2","","","","","","","6100894ca36594e9bd02052e&order=&STUDY_ID=61f02a8661f82b834564f044","123","9","1","win","go","0"
"pit-trial","182","981813","0.0-128.0","battery-v0.2","","","-1","g","elianto","#f73b6a7A","-1","-1","1","0","","0","2","","","","","","","6100894ca36594e9bd02052e&order=&STUDY_ID=61f02a8661f82b834564f044","124","8","4","lose","no-go","0"
"pit-trial","183","985558","0.0-129.0","battery-v0.2","","","890.2999999523163","a","elianto","#3366ff99","32","32","1","+10","1742","1","2","","","","","","","6100894ca36594e9bd02052e&order=&STUDY_ID=61f02a8661f82b834564f044","125","9","1","win","go","0"
"pit-trial","184","989546","0.0-130.0","battery-v0.2","","","1131.5","u","elianto","#3366ff99","32","32","1","0","1982.4000000953674","1","2","","","","","","","6100894ca36594e9bd02052e&order=&STUDY_ID=61f02a8661f82b834564f044","126","11","1","win","go","1"
"pit-trial","185","994405","0.0-131.0","battery-v0.2","","","-1","g","elianto","#f73b6a7A","-1","-1","1","-10","","0","2","","","","","","","6100894ca36594e9bd02052e&order=&STUDY_ID=61f02a8661f82b834564f044","127","8","4","lose","no-go","1"
"pit-trial","186","998353","0.0-132.0","battery-v0.2","","","1094.7999999523163","l","elianto","#f73b6a7A","32","32","1","0","1945.3999998569489","1","2","","","","","","","6100894ca36594e9bd02052e&order=&STUDY_ID=61f02a8661f82b834564f044","128","10","3","lose","go","0"
"pit-trial","187","1001835","0.0-133.0","battery-v0.2","","","625.5","l","elianto","#f73b6a7A","32","32","1","0","1476.1000001430511","1","2","","","","","","","6100894ca36594e9bd02052e&order=&STUDY_ID=61f02a8661f82b834564f044","129","10","3","lose","go","0"
"pit-trial","188","1005580","0.0-134.0","battery-v0.2","","","887.0999999046326","u","elianto","#3366ff99","32","32","1","+10","1740.7999999523163","1","2","","","","","","","6100894ca36594e9bd02052e&order=&STUDY_ID=61f02a8661f82b834564f044","130","11","1","win","go","0"
"pit-trial","189","1010439","0.0-135.0","battery-v0.2","","","-1","g","elianto","#f73b6a7A","-1","-1","1","0","","0","2","","","","","","","6100894ca36594e9bd02052e&order=&STUDY_ID=61f02a8661f82b834564f044","131","8","4","lose","no-go","0"
"pit-trial","190","1014299","0.0-136.0","battery-v0.2","","","1002","a","elianto","#3366ff99","32","32","1","+10","1854.5","1","2","","","","","","","6100894ca36594e9bd02052e&order=&STUDY_ID=61f02a8661f82b834564f044","132","9","1","win","go","0"
"pit-trial","191","1017991","0.0-137.0","battery-v0.2","","","834","u","elianto","#3366ff99","32","32","1","0","1684.6000001430511","1","2","","","","","","","6100894ca36594e9bd02052e&order=&STUDY_ID=61f02a8661f82b834564f044","133","11","1","win","go","1"
"pit-trial","192","1021860","0.0-138.0","battery-v0.2","","","1009.4000000953674","l","elianto","#f73b6a7A","32","32","1","0","1860.4000000953674","1","2","","","","","","","6100894ca36594e9bd02052e&order=&STUDY_ID=61f02a8661f82b834564f044","134","10","3","lose","go","0"
"pit-trial","193","1025573","0.0-139.0","battery-v0.2","","","855.4000000953674","a","elianto","#3366ff99","32","32","1","+10","1708.1000001430511","1","2","","","","","","","6100894ca36594e9bd02052e&order=&STUDY_ID=61f02a8661f82b834564f044","135","9","1","win","go","0"
"pit-trial","194","1030432","0.0-140.0","battery-v0.2","","","-1","g","elianto","#f73b6a7A","-1","-1","1","0","","0","2","","","","","","","6100894ca36594e9bd02052e&order=&STUDY_ID=61f02a8661f82b834564f044","136","8","4","lose","no-go","0"
"pit-trial","195","1035292","0.0-141.0","battery-v0.2","","","-1","g","elianto","#f73b6a7A","-1","-1","1","0","","0","2","","","","","","","6100894ca36594e9bd02052e&order=&STUDY_ID=61f02a8661f82b834564f044","137","8","4","lose","no-go","0"
"pit-trial","196","1038957","0.0-142.0","battery-v0.2","","","809.5","a","elianto","#3366ff99","32","32","1","+10","1660.8999998569489","1","2","","","","","","","6100894ca36594e9bd02052e&order=&STUDY_ID=61f02a8661f82b834564f044","138","9","1","win","go","0"
"pit-trial","197","1042783","0.0-143.0","battery-v0.2","","","968.8999998569489","l","elianto","#f73b6a7A","32","32","1","0","1819.2999999523163","1","2","","","","","","","6100894ca36594e9bd02052e&order=&STUDY_ID=61f02a8661f82b834564f044","139","10","3","lose","go","0"
"pit-trial","198","1046632","0.0-144.0","battery-v0.2","","","989.9000000953674","u","elianto","#3366ff99","32","32","1","0","1840.9000000953674","1","2","","","","","","","6100894ca36594e9bd02052e&order=&STUDY_ID=61f02a8661f82b834564f044","140","11","1","win","go","1"
"pit-instructions","199","1092783","0.0-145.0","battery-v0.2","","[{""page_index"":0,""viewing_time"":42774.299999952316},{""page_index"":1,""viewing_time"":3370.2000000476837}]","46145","","","","","","","","","","","","","","","","","","","","","","",""
"pit-trial","200","1097644","0.0-146.0","battery-v0.2","","","-1","n","elianto","#f73b6a7A","32","-1","0","-10","","0","3","","","","","","","6100894ca36594e9bd02052e&order=&STUDY_ID=61f02a8661f82b834564f044","141","1","3","lose","go","0"
"pit-trial","201","1102504","0.0-147.0","battery-v0.2","","","-1","f","elianto","#f73b6a7A","-1","-1","1","0","","0","3","","","","","","","6100894ca36594e9bd02052e&order=&STUDY_ID=61f02a8661f82b834564f044","142","2","4","lose","no-go","0"
"pit-trial","202","1107363","0.0-148.0","battery-v0.2","","","-1","q","elianto","#3366ff99","-1","-1","1","+10","","0","3","","","","","","","6100894ca36594e9bd02052e&order=&STUDY_ID=61f02a8661f82b834564f044","143","0","2","win","no-go","0"
"pit-trial","203","1111197","0.0-149.0","battery-v0.2","","","975.5","x","elianto","#3366ff99","32","32","1","+10","1827.8000001907349","1","3","","","","","","","6100894ca36594e9bd02052e&order=&STUDY_ID=61f02a8661f82b834564f044","144","3","1","win","go","0"
"pit-trial","204","1115014","0.0-150.0","battery-v0.2","","","959.2999999523163","x","elianto","#3366ff99","32","32","1","+10","1809.9000000953674","1","3","","","","","","","6100894ca36594e9bd02052e&order=&STUDY_ID=61f02a8661f82b834564f044","145","3","1","win","go","0"
"pit-trial","205","1119873","0.0-151.0","battery-v0.2","","","-1","n","elianto","#f73b6a7A","32","-1","0","-10","","0","3","","","","","","","6100894ca36594e9bd02052e&order=&STUDY_ID=61f02a8661f82b834564f044","146","1","3","lose","go","0"
"pit-trial","206","1124732","0.0-152.0","battery-v0.2","","","-1","f","elianto","#f73b6a7A","-1","-1","1","0","","0","3","","","","","","","6100894ca36594e9bd02052e&order=&STUDY_ID=61f02a8661f82b834564f044","147","2","4","lose","no-go","0"
"pit-trial","207","1129324","0.0-153.0","battery-v0.2","","","1737.5","q","elianto","#3366ff99","-1","32","0","+10","2588.7999999523163","1","3","","","","","","","6100894ca36594e9bd02052e&order=&STUDY_ID=61f02a8661f82b834564f044","148","0","2","win","no-go","1"
"pit-trial","208","1132998","0.0-154.0","battery-v0.2","","","818","n","elianto","#f73b6a7A","32","32","1","0","1669.1000001430511","1","3","","","","","","","6100894ca36594e9bd02052e&order=&STUDY_ID=61f02a8661f82b834564f044","149","1","3","lose","go","0"
"pit-trial","209","1137857","0.0-155.0","battery-v0.2","","","-1","f","elianto","#f73b6a7A","-1","-1","1","0","","0","3","","","","","","","6100894ca36594e9bd02052e&order=&STUDY_ID=61f02a8661f82b834564f044","150","2","4","lose","no-go","0"
"pit-trial","210","1141700","0.0-156.0","battery-v0.2","","","987.4000000953674","q","elianto","#3366ff99","-1","32","0","+10","1838.1000001430511","1","3","","","","","","","6100894ca36594e9bd02052e&order=&STUDY_ID=61f02a8661f82b834564f044","151","0","2","win","no-go","1"
"pit-trial","211","1145799","0.0-157.0","battery-v0.2","","","1237.7999999523163","x","elianto","#3366ff99","32","32","1","+10","2094.9000000953674","1","3","","","","","","","6100894ca36594e9bd02052e&order=&STUDY_ID=61f02a8661f82b834564f044","152","3","1","win","go","0"
"pit-trial","212","1150658","0.0-158.0","battery-v0.2","","","-1","f","elianto","#f73b6a7A","-1","-1","1","-10","","0","3","","","","","","","6100894ca36594e9bd02052e&order=&STUDY_ID=61f02a8661f82b834564f044","153","2","4","lose","no-go","1"
"pit-trial","213","1154489","0.0-159.0","battery-v0.2","","","970.0999999046326","n","elianto","#f73b6a7A","32","32","1","-10","1824.7999999523163","1","3","","","","","","","6100894ca36594e9bd02052e&order=&STUDY_ID=61f02a8661f82b834564f044","154","1","3","lose","go","1"
"pit-trial","214","1158059","0.0-160.0","battery-v0.2","","","716.5999999046326","q","elianto","#3366ff99","-1","32","0","0","1567","1","3","","","","","","","6100894ca36594e9bd02052e&order=&STUDY_ID=61f02a8661f82b834564f044","155","0","2","win","no-go","0"
"pit-trial","215","1161612","0.0-161.0","battery-v0.2","","","697.9000000953674","x","elianto","#3366ff99","32","32","1","+10","1548","1","3","","","","","","","6100894ca36594e9bd02052e&order=&STUDY_ID=61f02a8661f82b834564f044","156","3","1","win","go","0"
"pit-trial","216","1165141","0.0-162.0","battery-v0.2","","","671","q","elianto","#3366ff99","-1","32","0","0","1522.5999999046326","1","3","","","","","","","6100894ca36594e9bd02052e&order=&STUDY_ID=61f02a8661f82b834564f044","157","0","2","win","no-go","0"
"pit-trial","217","1169525","0.0-163.0","battery-v0.2","","","1530","x","elianto","#3366ff99","32","32","1","+10","2380.4000000953674","1","3","","","","","","","6100894ca36594e9bd02052e&order=&STUDY_ID=61f02a8661f82b834564f044","158","3","1","win","go","0"
"pit-trial","218","1173170","0.0-164.0","battery-v0.2","","","789.3999998569489","n","elianto","#f73b6a7A","32","32","1","0","1640.0999999046326","1","3","","","","","","","6100894ca36594e9bd02052e&order=&STUDY_ID=61f02a8661f82b834564f044","159","1","3","lose","go","0"
"pit-trial","219","1178029","0.0-165.0","battery-v0.2","","","-1","f","elianto","#f73b6a7A","-1","-1","1","0","","0","3","","","","","","","6100894ca36594e9bd02052e&order=&STUDY_ID=61f02a8661f82b834564f044","160","2","4","lose","no-go","0"
"pit-trial","220","1181767","0.0-166.0","battery-v0.2","","","880","x","elianto","#3366ff99","32","32","1","+10","1730.5","1","3","","","","","","","6100894ca36594e9bd02052e&order=&STUDY_ID=61f02a8661f82b834564f044","161","3","1","win","go","0"
"pit-trial","221","1185227","0.0-167.0","battery-v0.2","","","606.2999999523163","q","elianto","#3366ff99","-1","32","0","0","1456.7000000476837","1","3","","","","","","","6100894ca36594e9bd02052e&order=&STUDY_ID=61f02a8661f82b834564f044","162","0","2","win","no-go","0"
"pit-trial","222","1190086","0.0-168.0","battery-v0.2","","","-1","f","elianto","#f73b6a7A","-1","-1","1","0","","0","3","","","","","","","6100894ca36594e9bd02052e&order=&STUDY_ID=61f02a8661f82b834564f044","163","2","4","lose","no-go","0"
"pit-trial","223","1194491","0.0-169.0","battery-v0.2","","","1552","n","elianto","#f73b6a7A","32","32","1","-10","2403","1","3","","","","","","","6100894ca36594e9bd02052e&order=&STUDY_ID=61f02a8661f82b834564f044","164","1","3","lose","go","1"
"pit-trial","224","1199351","0.0-170.0","battery-v0.2","","","-1","f","elianto","#f73b6a7A","-1","-1","1","0","","0","3","","","","","","","6100894ca36594e9bd02052e&order=&STUDY_ID=61f02a8661f82b834564f044","165","2","4","lose","no-go","0"
"pit-trial","225","1204210","0.0-171.0","battery-v0.2","","","-1","n","elianto","#f73b6a7A","32","-1","0","-10","","0","3","","","","","","","6100894ca36594e9bd02052e&order=&STUDY_ID=61f02a8661f82b834564f044","166","1","3","lose","go","0"
"pit-trial","226","1207785","0.0-172.0","battery-v0.2","","","719.5999999046326","q","elianto","#3366ff99","-1","32","0","+10","1570.1999998092651","1","3","","","","","","","6100894ca36594e9bd02052e&order=&STUDY_ID=61f02a8661f82b834564f044","167","0","2","win","no-go","1"
"pit-trial","227","1211195","0.0-173.0","battery-v0.2","","","551.4000000953674","x","elianto","#3366ff99","32","32","1","+10","1403.2000000476837","1","3","","","","","","","6100894ca36594e9bd02052e&order=&STUDY_ID=61f02a8661f82b834564f044","168","3","1","win","go","0"
"pit-trial","228","1214607","0.0-174.0","battery-v0.2","","","557.8000001907349","x","elianto","#3366ff99","32","32","1","+10","1408","1","3","","","","","","","6100894ca36594e9bd02052e&order=&STUDY_ID=61f02a8661f82b834564f044","169","3","1","win","go","0"
"pit-trial","229","1219466","0.0-175.0","battery-v0.2","","","-1","n","elianto","#f73b6a7A","32","-1","0","-10","","0","3","","","","","","","6100894ca36594e9bd02052e&order=&STUDY_ID=61f02a8661f82b834564f044","170","1","3","lose","go","0"
"pit-trial","230","1223646","0.0-176.0","battery-v0.2","","","1323.6999998092651","q","elianto","#3366ff99","-1","32","0","0","2174.2999999523163","1","3","","","","","","","6100894ca36594e9bd02052e&order=&STUDY_ID=61f02a8661f82b834564f044","171","0","2","win","no-go","0"
"pit-trial","231","1228505","0.0-177.0","battery-v0.2","","","-1","f","elianto","#f73b6a7A","-1","-1","1","0","","0","3","","","","","","","6100894ca36594e9bd02052e&order=&STUDY_ID=61f02a8661f82b834564f044","172","2","4","lose","no-go","0"
"pit-trial","232","1233364","0.0-178.0","battery-v0.2","","","-1","b","elianto","#f73b6a7A","-1","-1","1","0","","0","3","","","","","","","6100894ca36594e9bd02052e&order=&STUDY_ID=61f02a8661f82b834564f044","173","5","4","lose","no-go","0"
"pit-trial","233","1237608","0.0-179.0","battery-v0.2","","","1387.2000000476837","n","elianto","#f73b6a7A","32","32","1","-10","2238.699999809265","1","3","","","","","","","6100894ca36594e9bd02052e&order=&STUDY_ID=61f02a8661f82b834564f044","174","1","3","lose","go","1"
"pit-trial","234","1242466","0.0-180.0","battery-v0.2","","","-1","t","elianto","#f73b6a7A","32","-1","0","-10","","0","3","","","","","","","6100894ca36594e9bd02052e&order=&STUDY_ID=61f02a8661f82b834564f044","175","4","3","lose","go","0"
"pit-trial","235","1247325","0.0-181.0","battery-v0.2","","","-1","f","elianto","#f73b6a7A","-1","-1","1","0","","0","3","","","","","","","6100894ca36594e9bd02052e&order=&STUDY_ID=61f02a8661f82b834564f044","176","2","4","lose","no-go","0"
"pit-trial","236","1251197","0.0-182.0","battery-v0.2","","","1013.5","t","elianto","#f73b6a7A","32","32","1","0","1864.7999999523163","1","3","","","","","","","6100894ca36594e9bd02052e&order=&STUDY_ID=61f02a8661f82b834564f044","177","4","3","lose","go","0"
"pit-trial","237","1256056","0.0-183.0","battery-v0.2","","","-1","b","elianto","#f73b6a7A","-1","-1","1","-10","","0","3","","","","","","","6100894ca36594e9bd02052e&order=&STUDY_ID=61f02a8661f82b834564f044","178","5","4","lose","no-go","1"
"pit-trial","238","1260915","0.0-184.0","battery-v0.2","","","-1","n","elianto","#f73b6a7A","32","-1","0","-10","","0","3","","","","","","","6100894ca36594e9bd02052e&order=&STUDY_ID=61f02a8661f82b834564f044","179","1","3","lose","go","0"
"pit-trial","239","1265774","0.0-185.0","battery-v0.2","","","-1","f","elianto","#f73b6a7A","-1","-1","1","0","","0","3","","","","","","","6100894ca36594e9bd02052e&order=&STUDY_ID=61f02a8661f82b834564f044","180","2","4","lose","no-go","0"
"pit-trial","240","1269820","0.0-186.0","battery-v0.2","","","1192.8999998569489","c","elianto","#3366ff99","-1","32","0","0","2043.1999998092651","1","3","","","","","","","6100894ca36594e9bd02052e&order=&STUDY_ID=61f02a8661f82b834564f044","181","6","2","win","no-go","0"
"pit-trial","241","1274679","0.0-187.0","battery-v0.2","","","-1","f","elianto","#f73b6a7A","-1","-1","1","0","","0","3","","","","","","","6100894ca36594e9bd02052e&order=&STUDY_ID=61f02a8661f82b834564f044","182","2","4","lose","no-go","0"
"pit-trial","242","1279004","0.0-188.0","battery-v0.2","","","1472.1000001430511","b","elianto","#f73b6a7A","-1","32","0","-10","2322.7000000476837","1","3","","","","","","","6100894ca36594e9bd02052e&order=&STUDY_ID=61f02a8661f82b834564f044","183","5","4","lose","no-go","0"
"pit-trial","243","1282673","0.0-189.0","battery-v0.2","","","813.0999999046326","t","elianto","#f73b6a7A","32","32","1","-10","1663.2000000476837","1","3","","","","","","","6100894ca36594e9bd02052e&order=&STUDY_ID=61f02a8661f82b834564f044","184","4","3","lose","go","1"
"pit-trial","244","1287451","0.0-190.0","battery-v0.2","","","1918.8999998569489","t","elianto","#f73b6a7A","32","32","1","0","2769.2999999523163","1","3","","","","","","","6100894ca36594e9bd02052e&order=&STUDY_ID=61f02a8661f82b834564f044","185","4","3","lose","go","0"
"pit-trial","245","1292310","0.0-191.0","battery-v0.2","","","-1","b","elianto","#f73b6a7A","-1","-1","1","0","","0","3","","","","","","","6100894ca36594e9bd02052e&order=&STUDY_ID=61f02a8661f82b834564f044","186","5","4","lose","no-go","0"
"pit-trial","246","1297169","0.0-192.0","battery-v0.2","","","-1","f","elianto","#f73b6a7A","-1","-1","1","0","","0","3","","","","","","","6100894ca36594e9bd02052e&order=&STUDY_ID=61f02a8661f82b834564f044","187","2","4","lose","no-go","0"
"pit-trial","247","1301215","0.0-193.0","battery-v0.2","","","1189.2999999523163","c","elianto","#3366ff99","-1","32","0","0","2040.5","1","3","","","","","","","6100894ca36594e9bd02052e&order=&STUDY_ID=61f02a8661f82b834564f044","188","6","2","win","no-go","0"
"pit-trial","248","1304883","0.0-194.0","battery-v0.2","","","814.6000001430511","z","elianto","#3366ff99","32","32","1","+10","1664.7999999523163","1","3","","","","","","","6100894ca36594e9bd02052e&order=&STUDY_ID=61f02a8661f82b834564f044","189","7","1","win","go","0"
"pit-trial","249","1309744","0.0-195.0","battery-v0.2","","","-1","b","elianto","#f73b6a7A","-1","-1","1","0","","0","3","","","","","","","6100894ca36594e9bd02052e&order=&STUDY_ID=61f02a8661f82b834564f044","190","5","4","lose","no-go","0"
"pit-trial","250","1314601","0.0-196.0","battery-v0.2","","","-1","c","elianto","#3366ff99","-1","-1","1","0","","0","3","","","","","","","6100894ca36594e9bd02052e&order=&STUDY_ID=61f02a8661f82b834564f044","191","6","2","win","no-go","1"
"pit-trial","251","1319460","0.0-197.0","battery-v0.2","","","-1","t","elianto","#f73b6a7A","32","-1","0","-10","","0","3","","","","","","","6100894ca36594e9bd02052e&order=&STUDY_ID=61f02a8661f82b834564f044","192","4","3","lose","go","0"
"pit-trial","252","1324319","0.0-198.0","battery-v0.2","","","-1","b","elianto","#f73b6a7A","-1","-1","1","0","","0","3","","","","","","","6100894ca36594e9bd02052e&order=&STUDY_ID=61f02a8661f82b834564f044","193","5","4","lose","no-go","0"
"pit-trial","253","1327738","0.0-199.0","battery-v0.2","","","562.3999998569489","t","elianto","#f73b6a7A","32","32","1","0","1412.5999999046326","1","3","","","","","","","6100894ca36594e9bd02052e&order=&STUDY_ID=61f02a8661f82b834564f044","194","4","3","lose","go","0"
"pit-trial","254","1332597","0.0-200.0","battery-v0.2","","","-1","c","elianto","#3366ff99","-1","-1","1","+10","","0","3","","","","","","","6100894ca36594e9bd02052e&order=&STUDY_ID=61f02a8661f82b834564f044","195","6","2","win","no-go","0"
"pit-trial","255","1336291","0.0-201.0","battery-v0.2","","","838.7999999523163","z","elianto","#3366ff99","32","32","1","+10","1689.1000001430511","1","3","","","","","","","6100894ca36594e9bd02052e&order=&STUDY_ID=61f02a8661f82b834564f044","196","7","1","win","go","0"
"pit-trial","256","1340492","0.0-202.0","battery-v0.2","","","1342.9000000953674","z","elianto","#3366ff99","32","32","1","+10","2194.100000143051","1","3","","","","","","","6100894ca36594e9bd02052e&order=&STUDY_ID=61f02a8661f82b834564f044","197","7","1","win","go","0"
"pit-trial","257","1345351","0.0-203.0","battery-v0.2","","","-1","b","elianto","#f73b6a7A","-1","-1","1","0","","0","3","","","","","","","6100894ca36594e9bd02052e&order=&STUDY_ID=61f02a8661f82b834564f044","198","5","4","lose","no-go","0"
"pit-trial","258","1349246","0.0-204.0","battery-v0.2","","","1037.6000001430511","t","elianto","#f73b6a7A","32","32","1","0","1887.9000000953674","1","3","","","","","","","6100894ca36594e9bd02052e&order=&STUDY_ID=61f02a8661f82b834564f044","199","4","3","lose","go","0"
"pit-trial","259","1354107","0.0-205.0","battery-v0.2","","","-1","c","elianto","#3366ff99","-1","-1","1","+10","","0","3","","","","","","","6100894ca36594e9bd02052e&order=&STUDY_ID=61f02a8661f82b834564f044","200","6","2","win","no-go","0"
"pit-trial","260","1357960","0.0-206.0","battery-v0.2","","","998.7000000476837","t","elianto","#f73b6a7A","32","32","1","0","1849.5","1","3","","","","","","","6100894ca36594e9bd02052e&order=&STUDY_ID=61f02a8661f82b834564f044","201","4","3","lose","go","0"
"pit-trial","261","1361832","0.0-207.0","battery-v0.2","","","1013","z","elianto","#3366ff99","32","32","1","+10","1865.3999998569489","1","3","","","","","","","6100894ca36594e9bd02052e&order=&STUDY_ID=61f02a8661f82b834564f044","202","7","1","win","go","0"
"pit-trial","262","1366691","0.0-208.0","battery-v0.2","","","-1","b","elianto","#f73b6a7A","-1","-1","1","0","","0","3","","","","","","","6100894ca36594e9bd02052e&order=&STUDY_ID=61f02a8661f82b834564f044","203","5","4","lose","no-go","0"
"pit-trial","263","1371550","0.0-209.0","battery-v0.2","","","-1","c","elianto","#3366ff99","-1","-1","1","+10","","0","3","","","","","","","6100894ca36594e9bd02052e&order=&STUDY_ID=61f02a8661f82b834564f044","204","6","2","win","no-go","0"
"pit-trial","264","1375213","0.0-210.0","battery-v0.2","","","806.3000001907349","z","elianto","#3366ff99","32","32","1","+10","1658.7000000476837","1","3","","","","","","","6100894ca36594e9bd02052e&order=&STUDY_ID=61f02a8661f82b834564f044","205","7","1","win","go","0"
"pit-trial","265","1380072","0.0-211.0","battery-v0.2","","","-1","b","elianto","#f73b6a7A","-1","-1","1","0","","0","3","","","","","","","6100894ca36594e9bd02052e&order=&STUDY_ID=61f02a8661f82b834564f044","206","5","4","lose","no-go","0"
"pit-trial","266","1384053","0.0-212.0","battery-v0.2","","","1124.6000001430511","t","elianto","#f73b6a7A","32","32","1","-10","1975","1","3","","","","","","","6100894ca36594e9bd02052e&order=&STUDY_ID=61f02a8661f82b834564f044","207","4","3","lose","go","1"
"pit-trial","267","1388913","0.0-213.0","battery-v0.2","","","-1","c","elianto","#3366ff99","-1","-1","1","+10","","0","3","","","","","","","6100894ca36594e9bd02052e&order=&STUDY_ID=61f02a8661f82b834564f044","208","6","2","win","no-go","0"
"pit-trial","268","1392507","0.0-214.0","battery-v0.2","","","735.4000000953674","t","elianto","#f73b6a7A","32","32","1","0","1586.1000001430511","1","3","","","","","","","6100894ca36594e9bd02052e&order=&STUDY_ID=61f02a8661f82b834564f044","209","4","3","lose","go","0"
"pit-trial","269","1397366","0.0-215.0","battery-v0.2","","","-1","b","elianto","#f73b6a7A","-1","-1","1","0","","0","3","","","","","","","6100894ca36594e9bd02052e&order=&STUDY_ID=61f02a8661f82b834564f044","210","5","4","lose","no-go","0"
"pit-trial","270","1400889","0.0-216.0","battery-v0.2","","","664.2999999523163","z","elianto","#3366ff99","32","32","1","+10","1515.9000000953674","1","3","","","","","","","6100894ca36594e9bd02052e&order=&STUDY_ID=61f02a8661f82b834564f044","211","7","1","win","go","0"
"pit-trial","271","1405748","0.0-217.0","battery-v0.2","","","-1","c","elianto","#3366ff99","-1","-1","1","+10","","0","3","","","","","","","6100894ca36594e9bd02052e&order=&STUDY_ID=61f02a8661f82b834564f044","212","6","2","win","no-go","0"
"pit-trial","272","1410607","0.0-218.0","battery-v0.2","","","-1","h","elianto","#3366ff99","32","-1","0","0","","0","3","","","","","","","6100894ca36594e9bd02052e&order=&STUDY_ID=61f02a8661f82b834564f044","213","8","1","win","go","0"
"pit-trial","273","1415466","0.0-219.0","battery-v0.2","","","-1","c","elianto","#3366ff99","-1","-1","1","+10","","0","3","","","","","","","6100894ca36594e9bd02052e&order=&STUDY_ID=61f02a8661f82b834564f044","214","6","2","win","no-go","0"
"pit-trial","274","1419251","0.0-220.0","battery-v0.2","","","931.3999998569489","t","elianto","#f73b6a7A","32","32","1","0","1781.7000000476837","1","3","","","","","","","6100894ca36594e9bd02052e&order=&STUDY_ID=61f02a8661f82b834564f044","215","4","3","lose","go","0"
"pit-trial","275","1423204","0.0-221.0","battery-v0.2","","","1097.6999998092651","z","elianto","#3366ff99","32","32","1","+10","1947.6999998092651","1","3","","","","","","","6100894ca36594e9bd02052e&order=&STUDY_ID=61f02a8661f82b834564f044","216","7","1","win","go","0"
"pit-trial","276","1426763","0.0-222.0","battery-v0.2","","","702.4000000953674","h","elianto","#3366ff99","32","32","1","+10","1554.0999999046326","1","3","","","","","","","6100894ca36594e9bd02052e&order=&STUDY_ID=61f02a8661f82b834564f044","217","8","1","win","go","0"
"pit-trial","277","1430478","0.0-223.0","battery-v0.2","","","860.2999999523163","z","elianto","#3366ff99","32","32","1","+10","1711.9000000953674","1","3","","","","","","","6100894ca36594e9bd02052e&order=&STUDY_ID=61f02a8661f82b834564f044","218","7","1","win","go","0"
"pit-trial","278","1435337","0.0-224.0","battery-v0.2","","","-1","c","elianto","#3366ff99","-1","-1","1","0","","0","3","","","","","","","6100894ca36594e9bd02052e&order=&STUDY_ID=61f02a8661f82b834564f044","219","6","2","win","no-go","1"
"pit-trial","279","1439163","0.0-225.0","battery-v0.2","","","967.7000000476837","t","elianto","#f73b6a7A","32","32","1","0","1818","1","3","","","","","","","6100894ca36594e9bd02052e&order=&STUDY_ID=61f02a8661f82b834564f044","220","4","3","lose","go","0"
"pit-trial","280","1443180","0.0-226.0","battery-v0.2","","","1164.8999998569489","z","elianto","#3366ff99","32","32","1","+10","2015.5","1","3","","","","","","","6100894ca36594e9bd02052e&order=&STUDY_ID=61f02a8661f82b834564f044","221","7","1","win","go","0"
"pit-trial","281","1448039","0.0-227.0","battery-v0.2","","","-1","y","elianto","#3366ff99","-1","-1","1","0","","0","3","","","","","","","6100894ca36594e9bd02052e&order=&STUDY_ID=61f02a8661f82b834564f044","222","9","2","win","no-go","1"
"pit-trial","282","1451998","0.0-228.0","battery-v0.2","","","1102","h","elianto","#3366ff99","32","32","1","0","1953.2999999523163","1","3","","","","","","","6100894ca36594e9bd02052e&order=&STUDY_ID=61f02a8661f82b834564f044","223","8","1","win","go","1"
"pit-trial","283","1456857","0.0-229.0","battery-v0.2","","","-1","c","elianto","#3366ff99","-1","-1","1","+10","","0","3","","","","","","","6100894ca36594e9bd02052e&order=&STUDY_ID=61f02a8661f82b834564f044","224","6","2","win","no-go","0"
"pit-trial","284","1460700","0.0-230.0","battery-v0.2","","","987.6999998092651","h","elianto","#3366ff99","32","32","1","+10","1838.4000000953674","1","3","","","","","","","6100894ca36594e9bd02052e&order=&STUDY_ID=61f02a8661f82b834564f044","225","8","1","win","go","0"
"pit-trial","285","1465559","0.0-231.0","battery-v0.2","","","-1","y","elianto","#3366ff99","-1","-1","1","+10","","0","3","","","","","","","6100894ca36594e9bd02052e&order=&STUDY_ID=61f02a8661f82b834564f044","226","9","2","win","no-go","0"
"pit-trial","286","1470417","0.0-232.0","battery-v0.2","","","-1","c","elianto","#3366ff99","-1","-1","1","+10","","0","3","","","","","","","6100894ca36594e9bd02052e&order=&STUDY_ID=61f02a8661f82b834564f044","227","6","2","win","no-go","0"
"pit-trial","287","1474487","0.0-233.0","battery-v0.2","","","1208.9000000953674","z","elianto","#3366ff99","32","32","1","0","2063.300000190735","1","3","","","","","","","6100894ca36594e9bd02052e&order=&STUDY_ID=61f02a8661f82b834564f044","228","7","1","win","go","1"
"pit-trial","288","1478249","0.0-234.0","battery-v0.2","","","901.6999998092651","h","elianto","#3366ff99","32","32","1","+10","1754.6999998092651","1","3","","","","","","","6100894ca36594e9bd02052e&order=&STUDY_ID=61f02a8661f82b834564f044","229","8","1","win","go","0"
"pit-trial","289","1483108","0.0-235.0","battery-v0.2","","","-1","m","elianto","#f73b6a7A","-1","-1","1","0","","0","3","","","","","","","6100894ca36594e9bd02052e&order=&STUDY_ID=61f02a8661f82b834564f044","230","11","4","lose","no-go","0"
"pit-trial","290","1487970","0.0-236.0","battery-v0.2","","","-1","r","elianto","#f73b6a7A","32","-1","0","-10","","0","3","","","","","","","6100894ca36594e9bd02052e&order=&STUDY_ID=61f02a8661f82b834564f044","231","10","3","lose","go","0"
"pit-trial","291","1492826","0.0-237.0","battery-v0.2","","","-1","y","elianto","#3366ff99","-1","-1","1","+10","","0","3","","","","","","","6100894ca36594e9bd02052e&order=&STUDY_ID=61f02a8661f82b834564f044","232","9","2","win","no-go","0"
"pit-trial","292","1496721","0.0-238.0","battery-v0.2","","","1036.4000000953674","r","elianto","#f73b6a7A","32","32","1","0","1887.2000000476837","1","3","","","","","","","6100894ca36594e9bd02052e&order=&STUDY_ID=61f02a8661f82b834564f044","233","10","3","lose","go","0"
"pit-trial","293","1501580","0.0-239.0","battery-v0.2","","","-1","y","elianto","#3366ff99","-1","-1","1","+10","","0","3","","","","","","","6100894ca36594e9bd02052e&order=&STUDY_ID=61f02a8661f82b834564f044","234","9","2","win","no-go","0"
"pit-trial","294","1506439","0.0-240.0","battery-v0.2","","","-1","m","elianto","#f73b6a7A","-1","-1","1","0","","0","3","","","","","","","6100894ca36594e9bd02052e&order=&STUDY_ID=61f02a8661f82b834564f044","235","11","4","lose","no-go","0"
"pit-trial","295","1510804","0.0-241.0","battery-v0.2","","","1507.8000001907349","h","elianto","#3366ff99","32","32","1","0","2358.100000143051","1","3","","","","","","","6100894ca36594e9bd02052e&order=&STUDY_ID=61f02a8661f82b834564f044","236","8","1","win","go","1"
"pit-trial","296","1515663","0.0-242.0","battery-v0.2","","","-1","h","elianto","#3366ff99","32","-1","0","0","","0","3","","","","","","","6100894ca36594e9bd02052e&order=&STUDY_ID=61f02a8661f82b834564f044","237","8","1","win","go","0"
"pit-trial","297","1519239","0.0-243.0","battery-v0.2","","","719.7000000476837","r","elianto","#f73b6a7A","32","32","1","0","1569.9000000953674","1","3","","","","","","","6100894ca36594e9bd02052e&order=&STUDY_ID=61f02a8661f82b834564f044","238","10","3","lose","go","0"
"pit-trial","298","1524098","0.0-244.0","battery-v0.2","","","-1","y","elianto","#3366ff99","-1","-1","1","+10","","0","3","","","","","","","6100894ca36594e9bd02052e&order=&STUDY_ID=61f02a8661f82b834564f044","239","9","2","win","no-go","0"
"pit-trial","299","1528957","0.0-245.0","battery-v0.2","","","-1","m","elianto","#f73b6a7A","-1","-1","1","0","","0","3","","","","","","","6100894ca36594e9bd02052e&order=&STUDY_ID=61f02a8661f82b834564f044","240","11","4","lose","no-go","0"
"pit-trial","300","1533816","0.0-246.0","battery-v0.2","","","-1","y","elianto","#3366ff99","-1","-1","1","+10","","0","3","","","","","","","6100894ca36594e9bd02052e&order=&STUDY_ID=61f02a8661f82b834564f044","241","9","2","win","no-go","0"
"pit-trial","301","1537612","0.0-247.0","battery-v0.2","","","943.3999998569489","h","elianto","#3366ff99","32","32","1","+10","1793.5999999046326","1","3","","","","","","","6100894ca36594e9bd02052e&order=&STUDY_ID=61f02a8661f82b834564f044","242","8","1","win","go","0"
"pit-trial","302","1542471","0.0-248.0","battery-v0.2","","","-1","m","elianto","#f73b6a7A","-1","-1","1","0","","0","3","","","","","","","6100894ca36594e9bd02052e&order=&STUDY_ID=61f02a8661f82b834564f044","243","11","4","lose","no-go","0"
"pit-trial","303","1546488","0.0-249.0","battery-v0.2","","","1159.0999999046326","r","elianto","#f73b6a7A","32","32","1","0","2009.5","1","3","","","","","","","6100894ca36594e9bd02052e&order=&STUDY_ID=61f02a8661f82b834564f044","244","10","3","lose","go","0"
"pit-trial","304","1551347","0.0-250.0","battery-v0.2","","","-1","m","elianto","#f73b6a7A","-1","-1","1","0","","0","3","","","","","","","6100894ca36594e9bd02052e&order=&STUDY_ID=61f02a8661f82b834564f044","245","11","4","lose","no-go","0"
"pit-trial","305","1556206","0.0-251.0","battery-v0.2","","","-1","y","elianto","#3366ff99","-1","-1","1","+10","","0","3","","","","","","","6100894ca36594e9bd02052e&order=&STUDY_ID=61f02a8661f82b834564f044","246","9","2","win","no-go","0"
"pit-trial","306","1559829","0.0-252.0","battery-v0.2","","","763.2000000476837","r","elianto","#f73b6a7A","32","32","1","0","1618.7000000476837","1","3","","","","","","","6100894ca36594e9bd02052e&order=&STUDY_ID=61f02a8661f82b834564f044","247","10","3","lose","go","0"
"pit-trial","307","1563678","0.0-253.0","battery-v0.2","","","994","h","elianto","#3366ff99","32","32","1","0","1844","1","3","","","","","","","6100894ca36594e9bd02052e&order=&STUDY_ID=61f02a8661f82b834564f044","248","8","1","win","go","1"
"pit-trial","308","1568537","0.0-254.0","battery-v0.2","","","-1","y","elianto","#3366ff99","-1","-1","1","+10","","0","3","","","","","","","6100894ca36594e9bd02052e&order=&STUDY_ID=61f02a8661f82b834564f044","249","9","2","win","no-go","0"
"pit-trial","309","1573395","0.0-255.0","battery-v0.2","","","-1","m","elianto","#f73b6a7A","-1","-1","1","-10","","0","3","","","","","","","6100894ca36594e9bd02052e&order=&STUDY_ID=61f02a8661f82b834564f044","250","11","4","lose","no-go","1"
"pit-trial","310","1577186","0.0-256.0","battery-v0.2","","","933.2000000476837","r","elianto","#f73b6a7A","32","32","1","0","1786.2000000476837","1","3","","","","","","","6100894ca36594e9bd02052e&order=&STUDY_ID=61f02a8661f82b834564f044","251","10","3","lose","go","0"
"pit-trial","311","1580861","0.0-257.0","battery-v0.2","","","816.5","h","elianto","#3366ff99","32","32","1","+10","1666.7999999523163","1","3","","","","","","","6100894ca36594e9bd02052e&order=&STUDY_ID=61f02a8661f82b834564f044","252","8","1","win","go","0"
"pit-trial","312","1585720","0.0-258.0","battery-v0.2","","","-1","m","elianto","#f73b6a7A","-1","-1","1","-10","","0","3","","","","","","","6100894ca36594e9bd02052e&order=&STUDY_ID=61f02a8661f82b834564f044","253","11","4","lose","no-go","1"
"pit-trial","313","1589900","0.0-259.0","battery-v0.2","","","1320.5","r","elianto","#f73b6a7A","32","32","1","0","2173","1","3","","","","","","","6100894ca36594e9bd02052e&order=&STUDY_ID=61f02a8661f82b834564f044","254","10","3","lose","go","0"
"pit-trial","314","1593661","0.0-260.0","battery-v0.2","","","905.1000001430511","h","elianto","#3366ff99","32","32","1","+10","1758.1999998092651","1","3","","","","","","","6100894ca36594e9bd02052e&order=&STUDY_ID=61f02a8661f82b834564f044","255","8","1","win","go","0"
"pit-trial","315","1598520","0.0-261.0","battery-v0.2","","","-1","y","elianto","#3366ff99","-1","-1","1","0","","0","3","","","","","","","6100894ca36594e9bd02052e&order=&STUDY_ID=61f02a8661f82b834564f044","256","9","2","win","no-go","1"
"pit-trial","316","1602230","0.0-262.0","battery-v0.2","","","850","m","elianto","#f73b6a7A","-1","32","0","-10","1702.7000000476837","1","3","","","","","","","6100894ca36594e9bd02052e&order=&STUDY_ID=61f02a8661f82b834564f044","257","11","4","lose","no-go","0"
"pit-trial","317","1605968","0.0-263.0","battery-v0.2","","","883.5999999046326","r","elianto","#f73b6a7A","32","32","1","0","1734.5999999046326","1","3","","","","","","","6100894ca36594e9bd02052e&order=&STUDY_ID=61f02a8661f82b834564f044","258","10","3","lose","go","0"
"pit-trial","318","1609718","0.0-264.0","battery-v0.2","","","890.9000000953674","h","elianto","#3366ff99","32","32","1","+10","1741.7999999523163","1","3","","","","","","","6100894ca36594e9bd02052e&order=&STUDY_ID=61f02a8661f82b834564f044","259","8","1","win","go","0"
"pit-trial","319","1614577","0.0-265.0","battery-v0.2","","","-1","y","elianto","#3366ff99","-1","-1","1","+10","","0","3","","","","","","","6100894ca36594e9bd02052e&order=&STUDY_ID=61f02a8661f82b834564f044","260","9","2","win","no-go","0"
