"trial_type","trial_index","time_elapsed","internal_node_id","task_version","subject_id","interactions","blur_events","focus_events","fullscreenenter_events","fullscreenexit_events","success","view_history","rt","responses","num_errors","age","subject","participantId","rune","rune_set","hex","correct","choice","accuracy","outcome","keys","total_keys","block","practice","value","sub","trial","stimulus","robot","valence","action","sham","browser_interactions"
"pavlovia","0","27","0.0-0.0","battery-v0.2","","""event"",""trial"",""time""
""fullscreenenter"",""1"",""6325""
","
","
","""event"",""trial"",""time""
""fullscreenenter"",""1"",""6325""
","
","","","","","","","","","","","","","","","","","","","","","","","","","","","",""
"fullscreen","1","7292","0.0-1.0","battery-v0.2","","""event"",""trial"",""time""
""fullscreenenter"",""1"",""6325""
","
","
","""event"",""trial"",""time""
""fullscreenenter"",""1"",""6325""
","
","true","","","","","","","","","","","","","","","","","","","","","","","","","","",""
"pit-instructions","2","16895","0.0-2.0-0.0","battery-v0.2","","""event"",""trial"",""time""
""fullscreenenter"",""1"",""6325""
","
","
","""event"",""trial"",""time""
""fullscreenenter"",""1"",""6325""
","
","","[{""page_index"":0,""viewing_time"":9593.5}]","9595","","","","","","","","","","","","","","","","","","","","","","","","",""
"pit-comprehension","3","22275","0.0-2.0-1.0-0.0","battery-v0.2","","""event"",""trial"",""time""
""fullscreenenter"",""1"",""6325""
","
","
","""event"",""trial"",""time""
""fullscreenenter"",""1"",""6325""
","
","","","5374.300000011921","[""shark""]","0","12","1208","1070","","","","","","","","","","","","","","","","","","","",""
"pit-instructions","4","24233","0.0-2.0-1.0-1.0","battery-v0.2","","""event"",""trial"",""time""
""fullscreenenter"",""1"",""6325""
","
","
","""event"",""trial"",""time""
""fullscreenenter"",""1"",""6325""
","
","","[{""page_index"":0,""viewing_time"":1931.8999999761581}]","1932.2999999523163","","","","","","","","","","","","","","","","","","","","","","","","",""
"pit-comprehension","5","28944","0.0-2.0-2.0-0.0","battery-v0.2","","""event"",""trial"",""time""
""fullscreenenter"",""1"",""6325""
","
","
","""event"",""trial"",""time""
""fullscreenenter"",""1"",""6325""
","
","","","4705.400000035763","[""tiger""]","0","12","1208","1070","","","","","","","","","","","","","","","","","","","",""
"pit-instructions","6","42064","0.0-2.0-2.0-1.0","battery-v0.2","","""event"",""trial"",""time""
""fullscreenenter"",""1"",""6325""
","
","
","""event"",""trial"",""time""
""fullscreenenter"",""1"",""6325""
","
","","[{""page_index"":0,""viewing_time"":13114.100000023842}]","13114.700000047684","","","","","","","","","","","","","","","","","","","","","","","","",""
"pit-instructions","7","189738","0.0-2.0-3.0","battery-v0.2","","""event"",""trial"",""time""
""fullscreenenter"",""1"",""6325""
","
","
","""event"",""trial"",""time""
""fullscreenenter"",""1"",""6325""
","
","","[{""page_index"":0,""viewing_time"":8715},{""page_index"":1,""viewing_time"":55785.30000001192},{""page_index"":2,""viewing_time"":6926.199999988079},{""page_index"":3,""viewing_time"":5819.699999988079},{""page_index"":4,""viewing_time"":5979.699999988079},{""page_index"":5,""viewing_time"":5750.700000047684},{""page_index"":6,""viewing_time"":7330.299999952316},{""page_index"":7,""viewing_time"":7409.400000035763},{""page_index"":8,""viewing_time"":6300},{""page_index"":9,""viewing_time"":8377.5},{""page_index"":10,""viewing_time"":8156},{""page_index"":11,""viewing_time"":7159.800000011921},{""page_index"":12,""viewing_time"":6077.199999988079},{""page_index"":13,""viewing_time"":7877.199999988079}]","147664.60000002384","","","","","","","","","","","","","","","","","","","","","","","","",""
"pit-trial","8","193439","0.0-2.0-4.0-0.0","battery-v0.2","","""event"",""trial"",""time""
""fullscreenenter"",""1"",""6325""
","
","
","""event"",""trial"",""time""
""fullscreenenter"",""1"",""6325""
","
","","","839.5","","","12","1208","1070","&#9784;","elianto","#FFFFF080"," "," ","1","&#10004","[1690.7000000476837]","1","0","0","","","","","","","","",""
"pit-trial","9","196869","0.0-2.0-4.1-0.1","battery-v0.2","","""event"",""trial"",""time""
""fullscreenenter"",""1"",""6325""
","
","
","""event"",""trial"",""time""
""fullscreenenter"",""1"",""6325""
","
","","","566","","","12","1208","1070","&#9784;","elianto","#FFFFF080"," "," ","1","&#10004","[1417.800000011921]","1","0","0","","","","","","","","",""
"pit-trial","10","200329","0.0-2.0-4.2-0.2","battery-v0.2","","""event"",""trial"",""time""
""fullscreenenter"",""1"",""6325""
","
","
","""event"",""trial"",""time""
""fullscreenenter"",""1"",""6325""
","
","","","589.5","","","12","1208","1070","&#9784;","elianto","#FFFFF080"," "," ","1","&#10004","[1443.199999988079]","1","0","0","","","","","","","","",""
"pit-trial","11","204009","0.0-2.0-4.3-0.3","battery-v0.2","","""event"",""trial"",""time""
""fullscreenenter"",""1"",""6325""
","
","
","""event"",""trial"",""time""
""fullscreenenter"",""1"",""6325""
","
","","","819.8000000119209","","","12","1208","1070","&#9784;","elianto","#FFFFF080"," "," ","1","&#10004","[1672.699999988079]","1","0","0","","","","","","","","",""
"pit-trial","12","207529","0.0-2.0-4.4-0.4","battery-v0.2","","""event"",""trial"",""time""
""fullscreenenter"",""1"",""6325""
","
","
","""event"",""trial"",""time""
""fullscreenenter"",""1"",""6325""
","
","","","655.4000000357628","","","12","1208","1070","&#9784;","elianto","#FFFFF080"," "," ","1","&#10004","[1506.5999999642372]","1","0","0","","","","","","","","",""
"pit-instructions","13","232438","0.0-2.0-5.0","battery-v0.2","","""event"",""trial"",""time""
""fullscreenenter"",""1"",""6325""
","
","
","""event"",""trial"",""time""
""fullscreenenter"",""1"",""6325""
","
","","[{""page_index"":0,""viewing_time"":6625.300000011921},{""page_index"":1,""viewing_time"":6353.899999976158},{""page_index"":2,""viewing_time"":6182.5},{""page_index"":3,""viewing_time"":5743.199999988079}]","24905.30000001192","","","","","","","","","","","","","","","","","","","","","","","","",""
"pit-trial","14","237318","0.0-2.0-6.0-0.0","battery-v0.2","","""event"",""trial"",""time""
""fullscreenenter"",""1"",""6325""
","
","
","""event"",""trial"",""time""
""fullscreenenter"",""1"",""6325""
","
","","","-1","","","12","1208","1070","&#9854;","elianto","#FFFFF080","-1","-1","1","&#10004","[]","0","0","1","","","","","","","","",""
"pit-trial","15","242199","0.0-2.0-6.1-0.1","battery-v0.2","","""event"",""trial"",""time""
""fullscreenenter"",""1"",""6325""
","
","
","""event"",""trial"",""time""
""fullscreenenter"",""1"",""6325""
","
","","","-1","","","12","1208","1070","&#9854;","elianto","#FFFFF080","-1","-1","1","&#10004","[]","0","0","1","","","","","","","","",""
"pit-trial","16","247066","0.0-2.0-6.2-0.2","battery-v0.2","","""event"",""trial"",""time""
""fullscreenenter"",""1"",""6325""
","
","
","""event"",""trial"",""time""
""fullscreenenter"",""1"",""6325""
","
","","","-1","","","12","1208","1070","&#9854;","elianto","#FFFFF080","-1","-1","1","&#10004","[]","0","0","1","","","","","","","","",""
"pit-trial","17","251949","0.0-2.0-6.3-0.3","battery-v0.2","","""event"",""trial"",""time""
""fullscreenenter"",""1"",""6325""
","
","
","""event"",""trial"",""time""
""fullscreenenter"",""1"",""6325""
","
","","","-1","","","12","1208","1070","&#9854;","elianto","#FFFFF080","-1","-1","1","&#10004","[]","0","0","1","","","","","","","","",""
"pit-trial","18","256829","0.0-2.0-6.4-0.4","battery-v0.2","","""event"",""trial"",""time""
""fullscreenenter"",""1"",""6325""
","
","
","""event"",""trial"",""time""
""fullscreenenter"",""1"",""6325""
","
","","","-1","","","12","1208","1070","&#9854;","elianto","#FFFFF080","-1","-1","1","&#10004","[]","0","0","1","","","","","","","","",""
"pit-instructions","19","378190","0.0-2.0-7.0","battery-v0.2","","""event"",""trial"",""time""
""fullscreenenter"",""1"",""6325""
","
","
","""event"",""trial"",""time""
""fullscreenenter"",""1"",""6325""
","
","","[{""page_index"":0,""viewing_time"":7294.199999988079},{""page_index"":1,""viewing_time"":6063.600000023842},{""page_index"":2,""viewing_time"":6469.699999988079},{""page_index"":3,""viewing_time"":6745.399999976158},{""page_index"":4,""viewing_time"":5854.400000035763},{""page_index"":5,""viewing_time"":7119.899999976158},{""page_index"":6,""viewing_time"":4542.800000011921},{""page_index"":7,""viewing_time"":7428.5},{""page_index"":8,""viewing_time"":7638.899999976158},{""page_index"":9,""viewing_time"":6850.199999988079},{""page_index"":10,""viewing_time"":6880.700000047684},{""page_index"":11,""viewing_time"":4958.699999988079},{""page_index"":12,""viewing_time"":7824},{""page_index"":13,""viewing_time"":7445.5},{""page_index"":14,""viewing_time"":7151.899999976158},{""page_index"":15,""viewing_time"":6794.300000011921},{""page_index"":16,""viewing_time"":6421.5},{""page_index"":17,""viewing_time"":7873}]","121358","","","","","","","","","","","","","","","","","","","","","","","","",""
"pit-trial","20","382148","0.0-2.0-8.0-0.0","battery-v0.2","","""event"",""trial"",""time""
""fullscreenenter"",""1"",""6325""
","
","
","""event"",""trial"",""time""
""fullscreenenter"",""1"",""6325""
","
","","","1100.0999999642372","","","12","1208","1070","&#9776;","elianto","#3366ff99"," "," ","1","+10","[1950.5]","1","0","1","","","","","","","","",""
"pit-trial","21","385509","0.0-2.0-8.0-1.0","battery-v0.2","","""event"",""trial"",""time""
""fullscreenenter"",""1"",""6325""
","
","
","""event"",""trial"",""time""
""fullscreenenter"",""1"",""6325""
","
","","","499.80000001192093","","","12","1208","1070","&#9776;","elianto","#3366ff99"," "," ","1","+10","[1350.5]","1","0","1","","","","","","","","",""
"pit-trial","22","388879","0.0-2.0-8.0-2.0","battery-v0.2","","""event"",""trial"",""time""
""fullscreenenter"",""1"",""6325""
","
","
","""event"",""trial"",""time""
""fullscreenenter"",""1"",""6325""
","
","","","503.60000002384186","","","12","1208","1070","&#9776;","elianto","#3366ff99"," "," ","1","+10","[1354.1000000238419]","1","0","1","","","","","","","","",""
"pit-trial","23","392278","0.0-2.0-8.0-3.0","battery-v0.2","","""event"",""trial"",""time""
""fullscreenenter"",""1"",""6325""
","
","
","""event"",""trial"",""time""
""fullscreenenter"",""1"",""6325""
","
","","","529.8000000119209","","","12","1208","1070","&#9776;","elianto","#3366ff99"," "," ","1","0","[1381.7000000476837]","1","0","1","","","","","","","","",""
"pit-trial","24","395748","0.0-2.0-8.0-4.0","battery-v0.2","","""event"",""trial"",""time""
""fullscreenenter"",""1"",""6325""
","
","
","""event"",""trial"",""time""
""fullscreenenter"",""1"",""6325""
","
","","","604.7999999523163","","","12","1208","1070","&#9776;","elianto","#3366ff99"," "," ","1","+10","[1462.699999988079]","1","0","1","","","","","","","","",""
"call-function","25","395751","0.0-2.0-9.0","battery-v0.2","","""event"",""trial"",""time""
""fullscreenenter"",""1"",""6325""
","
","
","""event"",""trial"",""time""
""fullscreenenter"",""1"",""6325""
","
","","","","","","","","","","","","","","","","","","","","","","","","","","","",""
"pit-instructions","26","442120","0.0-2.0-10.0","battery-v0.2","","""event"",""trial"",""time""
""fullscreenenter"",""1"",""6325""
","
","
","""event"",""trial"",""time""
""fullscreenenter"",""1"",""6325""
","
","","[{""page_index"":0,""viewing_time"":11148.299999952316},{""page_index"":1,""viewing_time"":7525.600000023842},{""page_index"":2,""viewing_time"":9802.100000023842},{""page_index"":3,""viewing_time"":9458.599999964237},{""page_index"":4,""viewing_time"":8433}]","46368.299999952316","","","","","","","","","","","","","","","","","","","","","","","","",""
"pit-trial","27","445399","0.0-2.0-11.0-0.0","battery-v0.2","","""event"",""trial"",""time""
""fullscreenenter"",""1"",""6325""
","
","
","""event"",""trial"",""time""
""fullscreenenter"",""1"",""6325""
","
","","","425.0999999642372","","","12","1208","1070","&#9761;","elianto","#3366ff99","-1"," ","0","0","[1275.2999999523163]","1","0","2","","","","","","","","",""
"pit-trial","28","448678","0.0-2.0-11.0-1.0","battery-v0.2","","""event"",""trial"",""time""
""fullscreenenter"",""1"",""6325""
","
","
","""event"",""trial"",""time""
""fullscreenenter"",""1"",""6325""
","
","","","410.7000000476837","","","12","1208","1070","&#9761;","elianto","#3366ff99","-1"," ","0","0","[1267.9000000357628]","1","0","2","","","","","","","","",""
"pit-trial","29","451768","0.0-2.0-11.0-2.0","battery-v0.2","","""event"",""trial"",""time""
""fullscreenenter"",""1"",""6325""
","
","
","""event"",""trial"",""time""
""fullscreenenter"",""1"",""6325""
","
","","","216.30000001192093","","","12","1208","1070","&#9761;","elianto","#3366ff99","-1"," ","0","0","[1071.199999988079]","1","0","2","","","","","","","","",""
"pit-trial","30","456648","0.0-2.0-11.0-3.0","battery-v0.2","","""event"",""trial"",""time""
""fullscreenenter"",""1"",""6325""
","
","
","""event"",""trial"",""time""
""fullscreenenter"",""1"",""6325""
","
","","","-1","","","12","1208","1070","&#9761;","elianto","#3366ff99","-1","-1","1","0","[]","0","0","2","","","","","","","","",""
"pit-trial","31","461518","0.0-2.0-11.0-4.0","battery-v0.2","","""event"",""trial"",""time""
""fullscreenenter"",""1"",""6325""
","
","
","""event"",""trial"",""time""
""fullscreenenter"",""1"",""6325""
","
","","","-1","","","12","1208","1070","&#9761;","elianto","#3366ff99","-1","-1","1","+10","[]","0","0","2","","","","","","","","",""
"pit-trial","32","466398","0.0-2.0-11.1-0.1","battery-v0.2","","""event"",""trial"",""time""
""fullscreenenter"",""1"",""6325""
","
","
","""event"",""trial"",""time""
""fullscreenenter"",""1"",""6325""
","
","","","-1","","","12","1208","1070","&#9761;","elianto","#3366ff99","-1","-1","1","+10","[]","0","0","2","","","","","","","","",""
"pit-trial","33","469709","0.0-2.0-11.1-1.1","battery-v0.2","","""event"",""trial"",""time""
""fullscreenenter"",""1"",""6325""
","
","
","""event"",""trial"",""time""
""fullscreenenter"",""1"",""6325""
","
","","","445.19999998807907","","","12","1208","1070","&#9761;","elianto","#3366ff99","-1"," ","0","0","[1295.5]","1","0","2","","","","","","","","",""
"pit-trial","34","472884","0.0-2.0-11.1-2.1","battery-v0.2","","""event"",""trial"",""time""
""fullscreenenter"",""1"",""6325""
","
","
","""event"",""trial"",""time""
""fullscreenenter"",""1"",""6325""
","
","","","312.60000002384186","","","12","1208","1070","&#9761;","elianto","#3366ff99","-1"," ","0","0","[1164.7000000476837]","1","0","2","","","","","","","","",""
"pit-trial","35","477746","0.0-2.0-11.1-3.1","battery-v0.2","","""event"",""trial"",""time""
""fullscreenenter"",""1"",""6325""
","
","
","""event"",""trial"",""time""
""fullscreenenter"",""1"",""6325""
","
","","","-1","","","12","1208","1070","&#9761;","elianto","#3366ff99","-1","-1","1","0","[]","0","0","2","","","","","","","","",""
"pit-trial","36","482601","0.0-2.0-11.1-4.1","battery-v0.2","","""event"",""trial"",""time""
""fullscreenenter"",""1"",""6325""
","
","
","""event"",""trial"",""time""
""fullscreenenter"",""1"",""6325""
","
","","","-1","","","12","1208","1070","&#9761;","elianto","#3366ff99","-1","-1","1","+10","[]","0","0","2","","","","","","","","",""
"pit-trial","37","486560","0.0-2.0-11.2-0.2","battery-v0.2","","""event"",""trial"",""time""
""fullscreenenter"",""1"",""6325""
","
","
","""event"",""trial"",""time""
""fullscreenenter"",""1"",""6325""
","
","","","1100.2000000476837","","","12","1208","1070","&#9761;","elianto","#3366ff99","-1"," ","0","0","[1950.9000000357628]","1","0","2","","","","","","","","",""
"pit-trial","38","491426","0.0-2.0-11.2-1.2","battery-v0.2","","""event"",""trial"",""time""
""fullscreenenter"",""1"",""6325""
","
","
","""event"",""trial"",""time""
""fullscreenenter"",""1"",""6325""
","
","","","-1","","","12","1208","1070","&#9761;","elianto","#3366ff99","-1","-1","1","+10","[]","0","0","2","","","","","","","","",""
"pit-trial","39","496296","0.0-2.0-11.2-2.2","battery-v0.2","","""event"",""trial"",""time""
""fullscreenenter"",""1"",""6325""
","
","
","""event"",""trial"",""time""
""fullscreenenter"",""1"",""6325""
","
","","","-1","","","12","1208","1070","&#9761;","elianto","#3366ff99","-1","-1","1","+10","[]","0","0","2","","","","","","","","",""
"pit-trial","40","501159","0.0-2.0-11.2-3.2","battery-v0.2","","""event"",""trial"",""time""
""fullscreenenter"",""1"",""6325""
","
","
","""event"",""trial"",""time""
""fullscreenenter"",""1"",""6325""
","
","","","-1","","","12","1208","1070","&#9761;","elianto","#3366ff99","-1","-1","1","0","[]","0","0","2","","","","","","","","",""
"pit-trial","41","506019","0.0-2.0-11.2-4.2","battery-v0.2","","""event"",""trial"",""time""
""fullscreenenter"",""1"",""6325""
","
","
","""event"",""trial"",""time""
""fullscreenenter"",""1"",""6325""
","
","","","-1","","","12","1208","1070","&#9761;","elianto","#3366ff99","-1","-1","1","+10","[]","0","0","2","","","","","","","","",""
"call-function","42","506021","0.0-2.0-12.0","battery-v0.2","","""event"",""trial"",""time""
""fullscreenenter"",""1"",""6325""
","
","
","""event"",""trial"",""time""
""fullscreenenter"",""1"",""6325""
","
","","","","","","","","","","","","","","","","","","","","","","","","","","","",""
"pit-instructions","43","538443","0.0-2.0-13.0","battery-v0.2","","""event"",""trial"",""time""
""fullscreenenter"",""1"",""6325""
","
","
","""event"",""trial"",""time""
""fullscreenenter"",""1"",""6325""
","
","","[{""page_index"":0,""viewing_time"":4840.900000035763},{""page_index"":1,""viewing_time"":7340.199999988079},{""page_index"":2,""viewing_time"":3459.5},{""page_index"":3,""viewing_time"":11027.800000011921},{""page_index"":4,""viewing_time"":5752}]","32420.900000035763","","","","","","","","","","","","","","","","","","","","","","","","",""
"pit-trial","44","542662","0.0-2.0-14.0-0.0","battery-v0.2","","""event"",""trial"",""time""
""fullscreenenter"",""1"",""6325""
","
","
","""event"",""trial"",""time""
""fullscreenenter"",""1"",""6325""
","
","","","1361.6000000238419","","","12","1208","1070","&#9826;","elianto","#f73b6a7A","-1"," ","0","-10","[2213]","1","0","3","","","","","","","","",""
"pit-trial","45","545978","0.0-2.0-14.0-1.0","battery-v0.2","","""event"",""trial"",""time""
""fullscreenenter"",""1"",""6325""
","
","
","""event"",""trial"",""time""
""fullscreenenter"",""1"",""6325""
","
","","","449.7999999523163","","","12","1208","1070","&#9826;","elianto","#f73b6a7A","-1"," ","0","-10","[1306.800000011921]","1","0","3","","","","","","","","",""
"pit-trial","46","549720","0.0-2.0-14.0-2.0","battery-v0.2","","""event"",""trial"",""time""
""fullscreenenter"",""1"",""6325""
","
","
","""event"",""trial"",""time""
""fullscreenenter"",""1"",""6325""
","
","","","879.1999999880791","","","12","1208","1070","&#9826;","elianto","#f73b6a7A","-1"," ","0","-10","[1730.5]","1","0","3","","","","","","","","",""
"pit-trial","47","554612","0.0-2.0-14.0-3.0","battery-v0.2","","""event"",""trial"",""time""
""fullscreenenter"",""1"",""6325""
","
","
","""event"",""trial"",""time""
""fullscreenenter"",""1"",""6325""
","
","","","-1","","","12","1208","1070","&#9826;","elianto","#f73b6a7A","-1","-1","1","-10","[]","0","0","3","","","","","","","","",""
"pit-trial","48","559478","0.0-2.0-14.0-4.0","battery-v0.2","","""event"",""trial"",""time""
""fullscreenenter"",""1"",""6325""
","
","
","""event"",""trial"",""time""
""fullscreenenter"",""1"",""6325""
","
","","","-1","","","12","1208","1070","&#9826;","elianto","#f73b6a7A","-1","-1","1","0","[]","0","0","3","","","","","","","","",""
"pit-trial","49","564353","0.0-2.0-14.1-0.1","battery-v0.2","","""event"",""trial"",""time""
""fullscreenenter"",""1"",""6325""
","
","
","""event"",""trial"",""time""
""fullscreenenter"",""1"",""6325""
","
","","","-1","","","12","1208","1070","&#9826;","elianto","#f73b6a7A","-1","-1","1","0","[]","0","0","3","","","","","","","","",""
"pit-trial","50","569226","0.0-2.0-14.1-1.1","battery-v0.2","","""event"",""trial"",""time""
""fullscreenenter"",""1"",""6325""
","
","
","""event"",""trial"",""time""
""fullscreenenter"",""1"",""6325""
","
","","","-1","","","12","1208","1070","&#9826;","elianto","#f73b6a7A","-1","-1","1","0","[]","0","0","3","","","","","","","","",""
"pit-trial","51","574093","0.0-2.0-14.1-2.1","battery-v0.2","","""event"",""trial"",""time""
""fullscreenenter"",""1"",""6325""
","
","
","""event"",""trial"",""time""
""fullscreenenter"",""1"",""6325""
","
","","","-1","","","12","1208","1070","&#9826;","elianto","#f73b6a7A","-1","-1","1","0","[]","0","0","3","","","","","","","","",""
"pit-trial","52","577317","0.0-2.0-14.1-3.1","battery-v0.2","","""event"",""trial"",""time""
""fullscreenenter"",""1"",""6325""
","
","
","""event"",""trial"",""time""
""fullscreenenter"",""1"",""6325""
","
","","","367","","","12","1208","1070","&#9826;","elianto","#f73b6a7A","-1"," ","0","0","[1221.5]","1","0","3","","","","","","","","",""
"pit-trial","53","580685","0.0-2.0-14.1-4.1","battery-v0.2","","""event"",""trial"",""time""
""fullscreenenter"",""1"",""6325""
","
","
","""event"",""trial"",""time""
""fullscreenenter"",""1"",""6325""
","
","","","511.39999997615814","","","12","1208","1070","&#9826;","elianto","#f73b6a7A","-1"," ","0","-10","[1361.5]","1","0","3","","","","","","","","",""
"pit-trial","54","584102","0.0-2.0-14.2-0.2","battery-v0.2","","""event"",""trial"",""time""
""fullscreenenter"",""1"",""6325""
","
","
","""event"",""trial"",""time""
""fullscreenenter"",""1"",""6325""
","
","","","551.4000000357628","","","12","1208","1070","&#9826;","elianto","#f73b6a7A","-1"," ","0","-10","[1406]","1","0","3","","","","","","","","",""
"pit-trial","55","587491","0.0-2.0-14.2-1.2","battery-v0.2","","""event"",""trial"",""time""
""fullscreenenter"",""1"",""6325""
","
","
","""event"",""trial"",""time""
""fullscreenenter"",""1"",""6325""
","
","","","528.4000000357628","","","12","1208","1070","&#9826;","elianto","#f73b6a7A","-1"," ","0","-10","[1378.6000000238419]","1","0","3","","","","","","","","",""
"pit-trial","56","592349","0.0-2.0-14.2-2.2","battery-v0.2","","""event"",""trial"",""time""
""fullscreenenter"",""1"",""6325""
","
","
","""event"",""trial"",""time""
""fullscreenenter"",""1"",""6325""
","
","","","-1","","","12","1208","1070","&#9826;","elianto","#f73b6a7A","-1","-1","1","0","[]","0","0","3","","","","","","","","",""
"pit-trial","57","597207","0.0-2.0-14.2-3.2","battery-v0.2","","""event"",""trial"",""time""
""fullscreenenter"",""1"",""6325""
","
","
","""event"",""trial"",""time""
""fullscreenenter"",""1"",""6325""
","
","","","-1","","","12","1208","1070","&#9826;","elianto","#f73b6a7A","-1","-1","1","-10","[]","0","0","3","","","","","","","","",""
"pit-trial","58","602079","0.0-2.0-14.2-4.2","battery-v0.2","","""event"",""trial"",""time""
""fullscreenenter"",""1"",""6325""
","
","
","""event"",""trial"",""time""
""fullscreenenter"",""1"",""6325""
","
","","","-1","","","12","1208","1070","&#9826;","elianto","#f73b6a7A","-1","-1","1","0","[]","0","0","3","","","","","","","","",""
"pit-trial","59","606953","0.0-2.0-14.3-0.3","battery-v0.2","","""event"",""trial"",""time""
""fullscreenenter"",""1"",""6325""
","
","
","""event"",""trial"",""time""
""fullscreenenter"",""1"",""6325""
","
","","","-1","","","12","1208","1070","&#9826;","elianto","#f73b6a7A","-1","-1","1","0","[]","0","0","3","","","","","","","","",""
"pit-trial","60","611827","0.0-2.0-14.3-1.3","battery-v0.2","","""event"",""trial"",""time""
""fullscreenenter"",""1"",""6325""
","
","
","""event"",""trial"",""time""
""fullscreenenter"",""1"",""6325""
","
","","","-1","","","12","1208","1070","&#9826;","elianto","#f73b6a7A","-1","-1","1","0","[]","0","0","3","","","","","","","","",""
"pit-trial","61","616695","0.0-2.0-14.3-2.3","battery-v0.2","","""event"",""trial"",""time""
""fullscreenenter"",""1"",""6325""
","
","
","""event"",""trial"",""time""
""fullscreenenter"",""1"",""6325""
","
","","","-1","","","12","1208","1070","&#9826;","elianto","#f73b6a7A","-1","-1","1","0","[]","0","0","3","","","","","","","","",""
"pit-trial","62","621549","0.0-2.0-14.3-3.3","battery-v0.2","","""event"",""trial"",""time""
""fullscreenenter"",""1"",""6325""
","
","
","""event"",""trial"",""time""
""fullscreenenter"",""1"",""6325""
","
","","","-1","","","12","1208","1070","&#9826;","elianto","#f73b6a7A","-1","-1","1","-10","[]","0","0","3","","","","","","","","",""
"pit-trial","63","626410","0.0-2.0-14.3-4.3","battery-v0.2","","""event"",""trial"",""time""
""fullscreenenter"",""1"",""6325""
","
","
","""event"",""trial"",""time""
""fullscreenenter"",""1"",""6325""
","
","","","-1","","","12","1208","1070","&#9826;","elianto","#f73b6a7A","-1","-1","1","0","[]","0","0","3","","","","","","","","",""
"call-function","64","626411","0.0-2.0-15.0","battery-v0.2","","""event"",""trial"",""time""
""fullscreenenter"",""1"",""6325""
","
","
","""event"",""trial"",""time""
""fullscreenenter"",""1"",""6325""
","
","","","","","","","","","","","","","","","","","","","","","","","","","","","",""
"pit-instructions","65","657058","0.0-2.0-16.0","battery-v0.2","","""event"",""trial"",""time""
""fullscreenenter"",""1"",""6325""
","
","
","""event"",""trial"",""time""
""fullscreenenter"",""1"",""6325""
","
","","[{""page_index"":0,""viewing_time"":11450.100000023842},{""page_index"":1,""viewing_time"":8460.300000011921},{""page_index"":2,""viewing_time"":4830.099999964237},{""page_index"":3,""viewing_time"":5905.800000011921}]","30646.700000047684","","","","","","","","","","","","","","","","","","","","","","","","",""
"pit-trial","66","660691","0.0-2.0-17.0-0.0","battery-v0.2","","""event"",""trial"",""time""
""fullscreenenter"",""1"",""6325""
","
","
","""event"",""trial"",""time""
""fullscreenenter"",""1"",""6325""
","
","","","770.2999999523163","","","12","1208","1070","&#9789;","elianto","#f73b6a7A"," "," ","1","0","[1620.6000000238419]","1","0","4","","","","","","","","",""
"pit-trial","67","664061","0.0-2.0-17.0-1.0","battery-v0.2","","""event"",""trial"",""time""
""fullscreenenter"",""1"",""6325""
","
","
","""event"",""trial"",""time""
""fullscreenenter"",""1"",""6325""
","
","","","500.19999998807907","","","12","1208","1070","&#9789;","elianto","#f73b6a7A"," "," ","1","0","[1357.300000011921]","1","0","4","","","","","","","","",""
"pit-trial","68","667411","0.0-2.0-17.0-2.0","battery-v0.2","","""event"",""trial"",""time""
""fullscreenenter"",""1"",""6325""
","
","
","""event"",""trial"",""time""
""fullscreenenter"",""1"",""6325""
","
","","","480.30000001192093","","","12","1208","1070","&#9789;","elianto","#f73b6a7A"," "," ","1","0","[1332.300000011921]","1","0","4","","","","","","","","",""
"pit-trial","69","672281","0.0-2.0-17.0-3.0","battery-v0.2","","""event"",""trial"",""time""
""fullscreenenter"",""1"",""6325""
","
","
","""event"",""trial"",""time""
""fullscreenenter"",""1"",""6325""
","
","","","-1","","","12","1208","1070","&#9789;","elianto","#f73b6a7A"," ","-1","0","0","[]","0","0","4","","","","","","","","",""
"pit-trial","70","677171","0.0-2.0-17.0-4.0","battery-v0.2","","""event"",""trial"",""time""
""fullscreenenter"",""1"",""6325""
","
","
","""event"",""trial"",""time""
""fullscreenenter"",""1"",""6325""
","
","","","-1","","","12","1208","1070","&#9789;","elianto","#f73b6a7A"," ","-1","0","-10","[]","0","0","4","","","","","","","","",""
"pit-trial","71","680461","0.0-2.0-17.1-0.1","battery-v0.2","","""event"",""trial"",""time""
""fullscreenenter"",""1"",""6325""
","
","
","""event"",""trial"",""time""
""fullscreenenter"",""1"",""6325""
","
","","","415.80000001192093","","","12","1208","1070","&#9789;","elianto","#f73b6a7A"," "," ","1","0","[1271.6000000238419]","1","0","4","","","","","","","","",""
"pit-trial","72","683751","0.0-2.0-17.1-1.1","battery-v0.2","","""event"",""trial"",""time""
""fullscreenenter"",""1"",""6325""
","
","
","""event"",""trial"",""time""
""fullscreenenter"",""1"",""6325""
","
","","","429.80000001192093","","","12","1208","1070","&#9789;","elianto","#f73b6a7A"," "," ","1","0","[1280.2999999523163]","1","0","4","","","","","","","","",""
"pit-trial","73","688616","0.0-2.0-17.1-2.1","battery-v0.2","","""event"",""trial"",""time""
""fullscreenenter"",""1"",""6325""
","
","
","""event"",""trial"",""time""
""fullscreenenter"",""1"",""6325""
","
","","","-1","","","12","1208","1070","&#9789;","elianto","#f73b6a7A"," ","-1","0","-10","[]","0","0","4","","","","","","","","",""
"pit-trial","74","693477","0.0-2.0-17.1-3.1","battery-v0.2","","""event"",""trial"",""time""
""fullscreenenter"",""1"",""6325""
","
","
","""event"",""trial"",""time""
""fullscreenenter"",""1"",""6325""
","
","","","-1","","","12","1208","1070","&#9789;","elianto","#f73b6a7A"," ","-1","0","0","[]","0","0","4","","","","","","","","",""
"pit-trial","75","698332","0.0-2.0-17.1-4.1","battery-v0.2","","""event"",""trial"",""time""
""fullscreenenter"",""1"",""6325""
","
","
","""event"",""trial"",""time""
""fullscreenenter"",""1"",""6325""
","
","","","-1","","","12","1208","1070","&#9789;","elianto","#f73b6a7A"," ","-1","0","-10","[]","0","0","4","","","","","","","","",""
"pit-trial","76","702268","0.0-2.0-17.2-0.2","battery-v0.2","","""event"",""trial"",""time""
""fullscreenenter"",""1"",""6325""
","
","
","""event"",""trial"",""time""
""fullscreenenter"",""1"",""6325""
","
","","","1073.300000011921","","","12","1208","1070","&#9789;","elianto","#f73b6a7A"," "," ","1","0","[1924.5]","1","0","4","","","","","","","","",""
"pit-trial","77","705792","0.0-2.0-17.2-1.2","battery-v0.2","","""event"",""trial"",""time""
""fullscreenenter"",""1"",""6325""
","
","
","""event"",""trial"",""time""
""fullscreenenter"",""1"",""6325""
","
","","","667.1999999880791","","","12","1208","1070","&#9789;","elianto","#f73b6a7A"," "," ","1","0","[1517.3999999761581]","1","0","4","","","","","","","","",""
"pit-trial","78","710652","0.0-2.0-17.2-2.2","battery-v0.2","","""event"",""trial"",""time""
""fullscreenenter"",""1"",""6325""
","
","
","""event"",""trial"",""time""
""fullscreenenter"",""1"",""6325""
","
","","","-1","","","12","1208","1070","&#9789;","elianto","#f73b6a7A"," ","-1","0","-10","[]","0","0","4","","","","","","","","",""
"pit-trial","79","715521","0.0-2.0-17.2-3.2","battery-v0.2","","""event"",""trial"",""time""
""fullscreenenter"",""1"",""6325""
","
","
","""event"",""trial"",""time""
""fullscreenenter"",""1"",""6325""
","
","","","-1","","","12","1208","1070","&#9789;","elianto","#f73b6a7A"," ","-1","0","0","[]","0","0","4","","","","","","","","",""
"pit-trial","80","718912","0.0-2.0-17.2-4.2","battery-v0.2","","""event"",""trial"",""time""
""fullscreenenter"",""1"",""6325""
","
","
","""event"",""trial"",""time""
""fullscreenenter"",""1"",""6325""
","
","","","530.5999999642372","","","12","1208","1070","&#9789;","elianto","#f73b6a7A"," "," ","1","0","[1387.7000000476837]","1","0","4","","","","","","","","",""
"pit-trial","81","722263","0.0-2.0-17.3-0.3","battery-v0.2","","""event"",""trial"",""time""
""fullscreenenter"",""1"",""6325""
","
","
","""event"",""trial"",""time""
""fullscreenenter"",""1"",""6325""
","
","","","491.39999997615814","","","12","1208","1070","&#9789;","elianto","#f73b6a7A"," "," ","1","0","[1341.7000000476837]","1","0","4","","","","","","","","",""
"pit-trial","82","725208","0.0-2.0-17.3-1.3","battery-v0.2","","""event"",""trial"",""time""
""fullscreenenter"",""1"",""6325""
","
","
","""event"",""trial"",""time""
""fullscreenenter"",""1"",""6325""
","
","","","88.70000004768372","","","12","1208","1070","&#9789;","elianto","#f73b6a7A"," "," ","1","0","[941.8999999761581]","1","0","4","","","","","","","","",""
"pit-trial","83","728134","0.0-2.0-17.3-2.3","battery-v0.2","","""event"",""trial"",""time""
""fullscreenenter"",""1"",""6325""
","
","
","""event"",""trial"",""time""
""fullscreenenter"",""1"",""6325""
","
","","","60","","","12","1208","1070","&#9789;","elianto","#f73b6a7A"," "," ","1","0","[915.6999999880791]","1","0","4","","","","","","","","",""
"pit-trial","84","731292","0.0-2.0-17.3-3.3","battery-v0.2","","""event"",""trial"",""time""
""fullscreenenter"",""1"",""6325""
","
","
","""event"",""trial"",""time""
""fullscreenenter"",""1"",""6325""
","
","","","294.19999998807907","","","12","1208","1070","&#9789;","elianto","#f73b6a7A"," "," ","1","-10","[1146.699999988079]","1","0","4","","","","","","","","",""
"pit-trial","85","734472","0.0-2.0-17.3-4.3","battery-v0.2","","""event"",""trial"",""time""
""fullscreenenter"",""1"",""6325""
","
","
","""event"",""trial"",""time""
""fullscreenenter"",""1"",""6325""
","
","","","318.9000000357628","","","12","1208","1070","&#9789;","elianto","#f73b6a7A"," "," ","1","0","[1174.6000000238419]","1","0","4","","","","","","","","",""
"call-function","86","734474","0.0-2.0-18.0","battery-v0.2","","""event"",""trial"",""time""
""fullscreenenter"",""1"",""6325""
","
","
","""event"",""trial"",""time""
""fullscreenenter"",""1"",""6325""
","
","","","","","","","","","","","","","","","","","","","","","","","","","","","",""
"pit-instructions","87","805599","0.0-2.0-19.0","battery-v0.2","","""event"",""trial"",""time""
""fullscreenenter"",""1"",""6325""
","
","
","""event"",""trial"",""time""
""fullscreenenter"",""1"",""6325""
","
","","[{""page_index"":0,""viewing_time"":6634.300000011921},{""page_index"":1,""viewing_time"":6059.699999988079},{""page_index"":2,""viewing_time"":14540.100000023842},{""page_index"":3,""viewing_time"":6838.899999976158},{""page_index"":4,""viewing_time"":8801.100000023842},{""page_index"":5,""viewing_time"":8170.099999964237},{""page_index"":6,""viewing_time"":8479.800000011921},{""page_index"":7,""viewing_time"":7066.699999988079},{""page_index"":8,""viewing_time"":4532.800000011921}]","71124.30000001192","","","","","","","","","","","","","","","","","","","","","","","","",""
"pit-comprehension","88","811420","0.0-2.0-20.0-0.0","battery-v0.2","","""event"",""trial"",""time""
""fullscreenenter"",""1"",""6325""
","
","
","""event"",""trial"",""time""
""fullscreenenter"",""1"",""6325""
","
","","","5816.100000023842","[""SPACE""]","0","12","1208","1070","","","","","","","","","","","","","","","","","","","",""
"pit-instructions","89","815932","0.0-2.0-20.0-1.0","battery-v0.2","","""event"",""trial"",""time""
""fullscreenenter"",""1"",""6325""
","
","
","""event"",""trial"",""time""
""fullscreenenter"",""1"",""6325""
","
","","[{""page_index"":0,""viewing_time"":4439.900000035763}]","4440.5","","","","","","","","","","","","","","","","","","","","","","","","",""
"pit-comprehension","90","823878","0.0-2.0-21.0-0.0","battery-v0.2","","""event"",""trial"",""time""
""fullscreenenter"",""1"",""6325""
","
","
","""event"",""trial"",""time""
""fullscreenenter"",""1"",""6325""
","
","","","7949.399999976158","[""10""]","0","12","1208","1070","","","","","","","","","","","","","","","","","","","",""
"pit-instructions","91","825831","0.0-2.0-21.0-1.0","battery-v0.2","","""event"",""trial"",""time""
""fullscreenenter"",""1"",""6325""
","
","
","""event"",""trial"",""time""
""fullscreenenter"",""1"",""6325""
","
","","[{""page_index"":0,""viewing_time"":1884}]","1884.5","","","","","","","","","","","","","","","","","","","","","","","","",""
"pit-comprehension","92","833669","0.0-2.0-22.0-0.0","battery-v0.2","","""event"",""trial"",""time""
""fullscreenenter"",""1"",""6325""
","
","
","""event"",""trial"",""time""
""fullscreenenter"",""1"",""6325""
","
","","","7832.900000035763","[""0""]","0","12","1208","1070","","","","","","","","","","","","","","","","","","","",""
"pit-instructions","93","836091","0.0-2.0-22.0-1.0","battery-v0.2","","""event"",""trial"",""time""
""fullscreenenter"",""1"",""6325""
","
","
","""event"",""trial"",""time""
""fullscreenenter"",""1"",""6325""
","
","","[{""page_index"":0,""viewing_time"":2357.7000000476837}]","2358.2000000476837","","","","","","","","","","","","","","","","","","","","","","","","",""
"pit-comprehension","94","846270","0.0-2.0-23.0-0.0","battery-v0.2","","""event"",""trial"",""time""
""fullscreenenter"",""1"",""6325""
","
","
","""event"",""trial"",""time""
""fullscreenenter"",""1"",""6325""
","
","","","10174","[""True""]","0","12","1208","1070","","","","","","","","","","","","","","","","","","","",""
"pit-instructions","95","848481","0.0-2.0-23.0-1.0","battery-v0.2","","""event"",""trial"",""time""
""fullscreenenter"",""1"",""6325""
","
","
","""event"",""trial"",""time""
""fullscreenenter"",""1"",""6325""
","
","","[{""page_index"":0,""viewing_time"":2137.199999988079}]","2137.699999988079","","","","","","","","","","","","","","","","","","","","","","","","",""
"pit-comprehension","96","857498","0.0-2.0-24.0-0.0","battery-v0.2","","""event"",""trial"",""time""
""fullscreenenter"",""1"",""6325""
","
","
","""event"",""trial"",""time""
""fullscreenenter"",""1"",""6325""
","
","","","9012.399999976158","[""True""]","0","12","1208","1070","","","","","","","","","","","","","","","","","","","",""
"pit-instructions","97","859391","0.0-2.0-24.0-1.0","battery-v0.2","","""event"",""trial"",""time""
""fullscreenenter"",""1"",""6325""
","
","
","""event"",""trial"",""time""
""fullscreenenter"",""1"",""6325""
","
","","[{""page_index"":0,""viewing_time"":1837.1000000238419}]","1837.7000000476837","","","","","","","","","","","","","","","","","","","","","","","","",""
"pit-comprehension","98","867021","0.0-2.0-25.0-0.0","battery-v0.2","","""event"",""trial"",""time""
""fullscreenenter"",""1"",""6325""
","
","
","""event"",""trial"",""time""
""fullscreenenter"",""1"",""6325""
","
","","","7625.300000011921","[""True""]","0","12","1208","1070","","","","","","","","","","","","","","","","","","","",""
"pit-instructions","99","869458","0.0-2.0-25.0-1.0","battery-v0.2","","""event"",""trial"",""time""
""fullscreenenter"",""1"",""6325""
","
","
","""event"",""trial"",""time""
""fullscreenenter"",""1"",""6325""
","
","","[{""page_index"":0,""viewing_time"":2366}]","2366.399999976158","","","","","","","","","","","","","","","","","","","","","","","","",""
"pit-comprehension","100","875314","0.0-2.0-26.0-0.0","battery-v0.2","","""event"",""trial"",""time""
""fullscreenenter"",""1"",""6325""
","
","
","""event"",""trial"",""time""
""fullscreenenter"",""1"",""6325""
","
","","","5851.300000011921","[""False""]","0","12","1208","1070","","","","","","","","","","","","","","","","","","","",""
"pit-instructions","101","879081","0.0-2.0-26.0-1.0","battery-v0.2","","""event"",""trial"",""time""
""fullscreenenter"",""1"",""6325""
","
","
","""event"",""trial"",""time""
""fullscreenenter"",""1"",""6325""
","
","","[{""page_index"":0,""viewing_time"":3709.100000023842}]","3709.800000011921","","","","","","","","","","","","","","","","","","","","","","","","",""
"pit-instructions","102","896548","0.0-3.0","battery-v0.2","","""event"",""trial"",""time""
""fullscreenenter"",""1"",""6325""
","
","
","""event"",""trial"",""time""
""fullscreenenter"",""1"",""6325""
","
","","[{""page_index"":0,""viewing_time"":5596.899999976158},{""page_index"":1,""viewing_time"":5360.100000023842},{""page_index"":2,""viewing_time"":6499.799999952316}]","17457.399999976158","","","","","","","","","","","","","","","","","","","","","","","","",""
"pit-trial","103","900807","0.0-4.0","battery-v0.2","","""event"",""trial"",""time""
""fullscreenenter"",""1"",""6325""
","
","
","""event"",""trial"",""time""
""fullscreenenter"",""1"",""6325""
","
","","","1371.8999999761581","","","12","1208","1070","&#9730;","elianto","#3366ff99"," "," ","1","+10","[2233.099999964237]","1","1","","","1208","1","1","1","win","go","0","[]"
"pit-trial","104","905677","0.0-5.0","battery-v0.2","","""event"",""trial"",""time""
""fullscreenenter"",""1"",""6325""
","
","
","""event"",""trial"",""time""
""fullscreenenter"",""1"",""6325""
","
","","","-1","","","12","1208","1070","&#9752;","elianto","#f73b6a7A"," ","-1","0","0","[]","0","1","","","1208","2","3","3","lose","go","1","0"
"pit-trial","105","909427","0.0-6.0","battery-v0.2","","""event"",""trial"",""time""
""fullscreenenter"",""1"",""6325""
","
","
","""event"",""trial"",""time""
""fullscreenenter"",""1"",""6325""
","
","","","889.4000000357628","","","12","1208","1070","&#9733;","elianto","#3366ff99","-1"," ","0","0","[1742.199999988079]","1","1","","","1208","3","2","2","win","no-go","0","0"
"pit-trial","106","913317","0.0-7.0","battery-v0.2","","""event"",""trial"",""time""
""fullscreenenter"",""1"",""6325""
","
","
","""event"",""trial"",""time""
""fullscreenenter"",""1"",""6325""
","
","","","1021.7999999523163","","","12","1208","1070","&#9728;","elianto","#f73b6a7A","-1"," ","0","-10","[1874.5]","1","1","","","1208","4","0","4","lose","no-go","0","0"
"pit-trial","107","916686","0.0-8.0","battery-v0.2","","""event"",""trial"",""time""
""fullscreenenter"",""1"",""6325""
","
","
","""event"",""trial"",""time""
""fullscreenenter"",""1"",""6325""
","
","","","505.4000000357628","","","12","1208","1070","&#9728;","elianto","#f73b6a7A","-1"," ","0","-10","[1362.5]","1","1","","","1208","5","0","4","lose","no-go","0","0"
"pit-trial","108","920257","0.0-9.0","battery-v0.2","","""event"",""trial"",""time""
""fullscreenenter"",""1"",""6325""
","
","
","""event"",""trial"",""time""
""fullscreenenter"",""1"",""6325""
","
","","","703.5","","","12","1208","1070","&#9730;","elianto","#3366ff99"," "," ","1","+10","[1555.199999988079]","1","1","","","1208","6","1","1","win","go","0","0"
"pit-trial","109","925137","0.0-10.0","battery-v0.2","","""event"",""trial"",""time""
""fullscreenenter"",""1"",""6325""
","
","
","""event"",""trial"",""time""
""fullscreenenter"",""1"",""6325""
","
","","","-1","","","12","1208","1070","&#9752;","elianto","#f73b6a7A"," ","-1","0","-10","[]","0","1","","","1208","7","3","3","lose","go","0","0"
"pit-trial","110","928582","0.0-11.0","battery-v0.2","","""event"",""trial"",""time""
""fullscreenenter"",""1"",""6325""
","
","
","""event"",""trial"",""time""
""fullscreenenter"",""1"",""6325""
","
","","","582","","","12","1208","1070","&#9733;","elianto","#3366ff99","-1"," ","0","0","[1435.2999999523163]","1","1","","","1208","8","2","2","win","no-go","0","0"
"pit-trial","111","933443","0.0-12.0","battery-v0.2","","""event"",""trial"",""time""
""fullscreenenter"",""1"",""6325""
","
","
","""event"",""trial"",""time""
""fullscreenenter"",""1"",""6325""
","
","","","-1","","","12","1208","1070","&#9728;","elianto","#f73b6a7A","-1","-1","1","0","[]","0","1","","","1208","9","0","4","lose","no-go","0","0"
"pit-trial","112","938304","0.0-13.0","battery-v0.2","","""event"",""trial"",""time""
""fullscreenenter"",""1"",""6325""
","
","
","""event"",""trial"",""time""
""fullscreenenter"",""1"",""6325""
","
","","","-1","","","12","1208","1070","&#9752;","elianto","#f73b6a7A"," ","-1","0","-10","[]","0","1","","","1208","10","3","3","lose","go","0","0"
"pit-trial","113","941717","0.0-14.0","battery-v0.2","","""event"",""trial"",""time""
""fullscreenenter"",""1"",""6325""
","
","
","""event"",""trial"",""time""
""fullscreenenter"",""1"",""6325""
","
","","","554.5","","","12","1208","1070","&#9730;","elianto","#3366ff99"," "," ","1","+10","[1409.300000011921]","1","1","","","1208","11","1","1","win","go","0","0"
"pit-trial","114","945101","0.0-15.0","battery-v0.2","","""event"",""trial"",""time""
""fullscreenenter"",""1"",""6325""
","
","
","""event"",""trial"",""time""
""fullscreenenter"",""1"",""6325""
","
","","","521","","","12","1208","1070","&#9733;","elianto","#3366ff99","-1"," ","0","+10","[1371.5999999642372]","1","1","","","1208","12","2","2","win","no-go","1","0"
"pit-trial","115","948879","0.0-16.0","battery-v0.2","","""event"",""trial"",""time""
""fullscreenenter"",""1"",""6325""
","
","
","""event"",""trial"",""time""
""fullscreenenter"",""1"",""6325""
","
","","","908.3999999761581","","","12","1208","1070","&#9752;","elianto","#f73b6a7A"," "," ","1","0","[1766.5]","1","1","","","1208","13","3","3","lose","go","0","0"
"pit-trial","116","953736","0.0-17.0","battery-v0.2","","""event"",""trial"",""time""
""fullscreenenter"",""1"",""6325""
","
","
","""event"",""trial"",""time""
""fullscreenenter"",""1"",""6325""
","
","","","-1","","","12","1208","1070","&#9728;","elianto","#f73b6a7A","-1","-1","1","0","[]","0","1","","","1208","14","0","4","lose","no-go","0","0"
"pit-trial","117","957598","0.0-18.0","battery-v0.2","","""event"",""trial"",""time""
""fullscreenenter"",""1"",""6325""
","
","
","""event"",""trial"",""time""
""fullscreenenter"",""1"",""6325""
","
","","","1001.6999999880791","","","12","1208","1070","&#9730;","elianto","#3366ff99"," "," ","1","+10","[1856.300000011921]","1","1","","","1208","15","1","1","win","go","0","0"
"pit-trial","118","961309","0.0-19.0","battery-v0.2","","""event"",""trial"",""time""
""fullscreenenter"",""1"",""6325""
","
","
","""event"",""trial"",""time""
""fullscreenenter"",""1"",""6325""
","
","","","849.6999999880791","","","12","1208","1070","&#9733;","elianto","#3366ff99","-1"," ","0","0","[1703.5]","1","1","","","1208","16","2","2","win","no-go","0","0"
"pit-trial","119","966181","0.0-20.0","battery-v0.2","","""event"",""trial"",""time""
""fullscreenenter"",""1"",""6325""
","
","
","""event"",""trial"",""time""
""fullscreenenter"",""1"",""6325""
","
","","","-1","","","12","1208","1070","&#9728;","elianto","#f73b6a7A","-1","-1","1","0","[]","0","1","","","1208","17","0","4","lose","no-go","0","0"
"pit-trial","120","969534","0.0-21.0","battery-v0.2","","""event"",""trial"",""time""
""fullscreenenter"",""1"",""6325""
","
","
","""event"",""trial"",""time""
""fullscreenenter"",""1"",""6325""
","
","","","492.2000000476837","","","12","1208","1070","&#9733;","elianto","#3366ff99","-1"," ","0","0","[1344.800000011921]","1","1","","","1208","18","2","2","win","no-go","0","0"
"pit-trial","121","973031","0.0-22.0","battery-v0.2","","""event"",""trial"",""time""
""fullscreenenter"",""1"",""6325""
","
","
","""event"",""trial"",""time""
""fullscreenenter"",""1"",""6325""
","
","","","635.5","","","12","1208","1070","&#9730;","elianto","#3366ff99"," "," ","1","+10","[1489.5]","1","1","","","1208","19","1","1","win","go","0","0"
"pit-trial","122","977898","0.0-23.0","battery-v0.2","","""event"",""trial"",""time""
""fullscreenenter"",""1"",""6325""
","
","
","""event"",""trial"",""time""
""fullscreenenter"",""1"",""6325""
","
","","","-1","","","12","1208","1070","&#9752;","elianto","#f73b6a7A"," ","-1","0","0","[]","0","1","","","1208","20","3","3","lose","go","1","0"
"pit-instructions","123","992198","0.0-24.0","battery-v0.2","","""event"",""trial"",""time""
""fullscreenenter"",""1"",""6325""
","
","
","""event"",""trial"",""time""
""fullscreenenter"",""1"",""6325""
","
","","[{""page_index"":0,""viewing_time"":6497.199999988079},{""page_index"":1,""viewing_time"":7800.600000023842}]","14298.399999976158","","","","","","","","","","","","","","","","","","","","","","","","",""
"pit-trial","124","995797","0.0-25.0","battery-v0.2","","""event"",""trial"",""time""
""fullscreenenter"",""1"",""6325""
","
","
","""event"",""trial"",""time""
""fullscreenenter"",""1"",""6325""
","
","","","736.6000000238419","","","12","1208","1070","k","elianto","#3366ff99"," "," ","1","0","[1591.1000000238419]","1","2","","","1208","21","3","1","win","go","1","0"
"pit-trial","125","999317","0.0-26.0","battery-v0.2","","""event"",""trial"",""time""
""fullscreenenter"",""1"",""6325""
","
","
","""event"",""trial"",""time""
""fullscreenenter"",""1"",""6325""
","
","","","648.5","","","12","1208","1070","v","elianto","#3366ff99","-1"," ","0","0","[1505.9000000357628]","1","2","","","1208","22","0","2","win","no-go","0","0"
"pit-trial","126","1004186","0.0-27.0","battery-v0.2","","""event"",""trial"",""time""
""fullscreenenter"",""1"",""6325""
","
","
","""event"",""trial"",""time""
""fullscreenenter"",""1"",""6325""
","
","","","-1","","","12","1208","1070","j","elianto","#f73b6a7A"," ","-1","0","0","[]","0","2","","","1208","23","1","3","lose","go","1","0"
"pit-trial","127","1007895","0.0-28.0","battery-v0.2","","""event"",""trial"",""time""
""fullscreenenter"",""1"",""6325""
","
","
","""event"",""trial"",""time""
""fullscreenenter"",""1"",""6325""
","
","","","842.1000000238419","","","12","1208","1070","d","elianto","#f73b6a7A","-1"," ","0","-10","[1694]","1","2","","","1208","24","2","4","lose","no-go","0","0"
"pit-trial","128","1012761","0.0-29.0","battery-v0.2","","""event"",""trial"",""time""
""fullscreenenter"",""1"",""6325""
","
","
","""event"",""trial"",""time""
""fullscreenenter"",""1"",""6325""
","
","","","-1","","","12","1208","1070","d","elianto","#f73b6a7A","-1","-1","1","0","[4510.100000023842]","1","2","","","1208","25","2","4","lose","no-go","0","0"
"pit-trial","129","1016115","0.0-30.0","battery-v0.2","","""event"",""trial"",""time""
""fullscreenenter"",""1"",""6325""
","
","
","""event"",""trial"",""time""
""fullscreenenter"",""1"",""6325""
","
","","","491.30000001192093","","","12","1208","1070","v","elianto","#3366ff99","-1"," ","0","0","[1342.699999988079]","1","2","","","1208","26","0","2","win","no-go","0","0"
"pit-trial","130","1020995","0.0-31.0","battery-v0.2","","""event"",""trial"",""time""
""fullscreenenter"",""1"",""6325""
","
","
","""event"",""trial"",""time""
""fullscreenenter"",""1"",""6325""
","
","","","-1","","","12","1208","1070","j","elianto","#f73b6a7A"," ","-1","0","0","[]","0","2","","","1208","27","1","3","lose","go","1","0"
"pit-trial","131","1024538","0.0-32.0","battery-v0.2","","""event"",""trial"",""time""
""fullscreenenter"",""1"",""6325""
","
","
","""event"",""trial"",""time""
""fullscreenenter"",""1"",""6325""
","
","","","682.5","","","12","1208","1070","k","elianto","#3366ff99"," "," ","1","+10","[1534.3999999761581]","1","2","","","1208","28","3","1","win","go","0","0"
"pit-trial","132","1029402","0.0-33.0","battery-v0.2","","""event"",""trial"",""time""
""fullscreenenter"",""1"",""6325""
","
","
","""event"",""trial"",""time""
""fullscreenenter"",""1"",""6325""
","
","","","-1","","","12","1208","1070","d","elianto","#f73b6a7A","-1","-1","1","0","[]","0","2","","","1208","29","2","4","lose","no-go","0","0"
"pit-trial","133","1034260","0.0-34.0","battery-v0.2","","""event"",""trial"",""time""
""fullscreenenter"",""1"",""6325""
","
","
","""event"",""trial"",""time""
""fullscreenenter"",""1"",""6325""
","
","","","-1","","","12","1208","1070","v","elianto","#3366ff99","-1","-1","1","+10","[]","0","2","","","1208","30","0","2","win","no-go","0","0"
"pit-trial","134","1039126","0.0-35.0","battery-v0.2","","""event"",""trial"",""time""
""fullscreenenter"",""1"",""6325""
","
","
","""event"",""trial"",""time""
""fullscreenenter"",""1"",""6325""
","
","","","-1","","","12","1208","1070","k","elianto","#3366ff99"," ","-1","0","0","[]","0","2","","","1208","31","3","1","win","go","0","0"
"pit-trial","135","1044000","0.0-36.0","battery-v0.2","","""event"",""trial"",""time""
""fullscreenenter"",""1"",""6325""
","
","
","""event"",""trial"",""time""
""fullscreenenter"",""1"",""6325""
","
","","","-1","","","12","1208","1070","j","elianto","#f73b6a7A"," ","-1","0","-10","[]","0","2","","","1208","32","1","3","lose","go","0","0"
"pit-trial","136","1048862","0.0-37.0","battery-v0.2","","""event"",""trial"",""time""
""fullscreenenter"",""1"",""6325""
","
","
","""event"",""trial"",""time""
""fullscreenenter"",""1"",""6325""
","
","","","-1","","","12","1208","1070","d","elianto","#f73b6a7A","-1","-1","1","-10","[]","0","2","","","1208","33","2","4","lose","no-go","1","0"
"pit-trial","137","1052328","0.0-38.0","battery-v0.2","","""event"",""trial"",""time""
""fullscreenenter"",""1"",""6325""
","
","
","""event"",""trial"",""time""
""fullscreenenter"",""1"",""6325""
","
","","","605.6000000238419","","","12","1208","1070","j","elianto","#f73b6a7A"," "," ","1","0","[1462]","1","2","","","1208","34","1","3","lose","go","0","0"
"pit-trial","138","1056170","0.0-39.0","battery-v0.2","","""event"",""trial"",""time""
""fullscreenenter"",""1"",""6325""
","
","
","""event"",""trial"",""time""
""fullscreenenter"",""1"",""6325""
","
","","","976.5","","","12","1208","1070","v","elianto","#3366ff99","-1"," ","0","0","[1831.699999988079]","1","2","","","1208","35","0","2","win","no-go","0","0"
"pit-trial","139","1059582","0.0-40.0","battery-v0.2","","""event"",""trial"",""time""
""fullscreenenter"",""1"",""6325""
","
","
","""event"",""trial"",""time""
""fullscreenenter"",""1"",""6325""
","
","","","557","","","12","1208","1070","k","elianto","#3366ff99"," "," ","1","+10","[1407.699999988079]","1","2","","","1208","36","3","1","win","go","0","0"
"pit-trial","140","1063197","0.0-41.0","battery-v0.2","","""event"",""trial"",""time""
""fullscreenenter"",""1"",""6325""
","
","
","""event"",""trial"",""time""
""fullscreenenter"",""1"",""6325""
","
","","","752.4000000357628","","","12","1208","1070","k","elianto","#3366ff99"," "," ","1","+10","[1603.300000011921]","1","2","","","1208","37","3","1","win","go","0","0"
"pit-trial","141","1068055","0.0-42.0","battery-v0.2","","""event"",""trial"",""time""
""fullscreenenter"",""1"",""6325""
","
","
","""event"",""trial"",""time""
""fullscreenenter"",""1"",""6325""
","
","","","-1","","","12","1208","1070","j","elianto","#f73b6a7A"," ","-1","0","-10","[]","0","2","","","1208","38","1","3","lose","go","0","0"
"pit-trial","142","1071322","0.0-43.0","battery-v0.2","","""event"",""trial"",""time""
""fullscreenenter"",""1"",""6325""
","
","
","""event"",""trial"",""time""
""fullscreenenter"",""1"",""6325""
","
","","","407.80000001192093","","","12","1208","1070","v","elianto","#3366ff99","-1"," ","0","0","[1259.8999999761581]","1","2","","","1208","39","0","2","win","no-go","0","0"
"pit-trial","143","1074724","0.0-44.0","battery-v0.2","","""event"",""trial"",""time""
""fullscreenenter"",""1"",""6325""
","
","
","""event"",""trial"",""time""
""fullscreenenter"",""1"",""6325""
","
","","","542.6999999880791","","","12","1208","1070","d","elianto","#f73b6a7A","-1"," ","0","-10","[1396.6000000238419]","1","2","","","1208","40","2","4","lose","no-go","0","0"
"pit-trial","144","1078121","0.0-45.0","battery-v0.2","","""event"",""trial"",""time""
""fullscreenenter"",""1"",""6325""
","
","
","""event"",""trial"",""time""
""fullscreenenter"",""1"",""6325""
","
","","","536.2999999523163","","","12","1208","1070","k","elianto","#3366ff99"," "," ","1","+10","[1391.3999999761581]","1","2","","","1208","41","3","1","win","go","0","0"
"pit-trial","145","1081767","0.0-46.0","battery-v0.2","","""event"",""trial"",""time""
""fullscreenenter"",""1"",""6325""
","
","
","""event"",""trial"",""time""
""fullscreenenter"",""1"",""6325""
","
","","","781.2999999523163","","","12","1208","1070","j","elianto","#f73b6a7A"," "," ","1","0","[1637.5]","1","2","","","1208","42","1","3","lose","go","0","0"
"pit-trial","146","1085387","0.0-47.0","battery-v0.2","","""event"",""trial"",""time""
""fullscreenenter"",""1"",""6325""
","
","
","""event"",""trial"",""time""
""fullscreenenter"",""1"",""6325""
","
","","","762","","","12","1208","1070","d","elianto","#f73b6a7A","-1"," ","0","-10","[1615.5999999642372]","1","2","","","1208","43","2","4","lose","no-go","0","0"
"pit-trial","147","1088712","0.0-48.0","battery-v0.2","","""event"",""trial"",""time""
""fullscreenenter"",""1"",""6325""
","
","
","""event"",""trial"",""time""
""fullscreenenter"",""1"",""6325""
","
","","","459.39999997615814","","","12","1208","1070","v","elianto","#3366ff99","-1"," ","0","0","[1315.5]","1","2","","","1208","44","0","2","win","no-go","0","0"
"pit-trial","148","1093575","0.0-49.0","battery-v0.2","","""event"",""trial"",""time""
""fullscreenenter"",""1"",""6325""
","
","
","""event"",""trial"",""time""
""fullscreenenter"",""1"",""6325""
","
","","","-1","","","12","1208","1070","v","elianto","#3366ff99","-1","-1","1","+10","[]","0","2","","","1208","45","0","2","win","no-go","0","0"
"pit-trial","149","1097169","0.0-50.0","battery-v0.2","","""event"",""trial"",""time""
""fullscreenenter"",""1"",""6325""
","
","
","""event"",""trial"",""time""
""fullscreenenter"",""1"",""6325""
","
","","","730.3999999761581","","","12","1208","1070","k","elianto","#3366ff99"," "," ","1","0","[1585.2999999523163]","1","2","","","1208","46","3","1","win","go","1","0"
"pit-trial","150","1102031","0.0-51.0","battery-v0.2","","""event"",""trial"",""time""
""fullscreenenter"",""1"",""6325""
","
","
","""event"",""trial"",""time""
""fullscreenenter"",""1"",""6325""
","
","","","-1","","","12","1208","1070","j","elianto","#f73b6a7A"," ","-1","0","-10","[]","0","2","","","1208","47","1","3","lose","go","0","0"
"pit-trial","151","1105526","0.0-52.0","battery-v0.2","","""event"",""trial"",""time""
""fullscreenenter"",""1"",""6325""
","
","
","""event"",""trial"",""time""
""fullscreenenter"",""1"",""6325""
","
","","","637.1999999880791","","","12","1208","1070","d","elianto","#f73b6a7A","-1"," ","0","-10","[1487.5]","1","2","","","1208","48","2","4","lose","no-go","0","0"
"pit-trial","152","1108749","0.0-53.0","battery-v0.2","","""event"",""trial"",""time""
""fullscreenenter"",""1"",""6325""
","
","
","""event"",""trial"",""time""
""fullscreenenter"",""1"",""6325""
","
","","","364.10000002384186","","","12","1208","1070","k","elianto","#3366ff99"," "," ","1","+10","[1219.5]","1","2","","","1208","49","3","1","win","go","0","0"
"pit-trial","153","1112156","0.0-54.0","battery-v0.2","","""event"",""trial"",""time""
""fullscreenenter"",""1"",""6325""
","
","
","""event"",""trial"",""time""
""fullscreenenter"",""1"",""6325""
","
","","","547.6000000238419","","","12","1208","1070","d","elianto","#f73b6a7A","-1"," ","0","-10","[1397.6000000238419]","1","2","","","1208","50","2","4","lose","no-go","0","0"
"pit-trial","154","1115106","0.0-55.0","battery-v0.2","","""event"",""trial"",""time""
""fullscreenenter"",""1"",""6325""
","
","
","""event"",""trial"",""time""
""fullscreenenter"",""1"",""6325""
","
","","","92.80000001192093","","","12","1208","1070","j","elianto","#f73b6a7A"," "," ","1","0","[943.5999999642372]","1","2","","","1208","51","1","3","lose","go","0","0"
"pit-trial","155","1118014","0.0-56.0","battery-v0.2","","""event"",""trial"",""time""
""fullscreenenter"",""1"",""6325""
","
","
","""event"",""trial"",""time""
""fullscreenenter"",""1"",""6325""
","
","","","45.09999996423721","","","12","1208","1070","v","elianto","#3366ff99","-1"," ","0","0","[902.5999999642372,1296.8999999761581,1515.800000011921,1726,1932.300000011921,2146.699999988079,2360,2581.099999964237,2813.5]","9","2","","","1208","52","0","2","win","no-go","0","0"
"pit-trial","156","1121318","0.0-57.0","battery-v0.2","","""event"",""trial"",""time""
""fullscreenenter"",""1"",""6325""
","
","
","""event"",""trial"",""time""
""fullscreenenter"",""1"",""6325""
","
","","","444.69999998807907","","","12","1208","1070","d","elianto","#f73b6a7A","-1"," ","0","-10","[124.5,1299.1000000238419]","2","2","","","1208","53","2","4","lose","no-go","0","0"
"pit-trial","157","1124855","0.0-58.0","battery-v0.2","","""event"",""trial"",""time""
""fullscreenenter"",""1"",""6325""
","
","
","""event"",""trial"",""time""
""fullscreenenter"",""1"",""6325""
","
","","","685.8999999761581","","","12","1208","1070","j","elianto","#f73b6a7A"," "," ","1","0","[1538.2000000476837]","1","2","","","1208","54","1","3","lose","go","0","0"
"pit-trial","158","1128457","0.0-59.0","battery-v0.2","","""event"",""trial"",""time""
""fullscreenenter"",""1"",""6325""
","
","
","""event"",""trial"",""time""
""fullscreenenter"",""1"",""6325""
","
","","","741.7999999523163","","","12","1208","1070","w","elianto","#f73b6a7A","-1"," ","0","-10","[1594]","1","2","","","1208","55","5","4","lose","no-go","0","0"
"pit-trial","159","1131754","0.0-60.0","battery-v0.2","","""event"",""trial"",""time""
""fullscreenenter"",""1"",""6325""
","
","
","""event"",""trial"",""time""
""fullscreenenter"",""1"",""6325""
","
","","","440.5","","","12","1208","1070","e","elianto","#f73b6a7A"," "," ","1","-10","[1292.5]","1","2","","","1208","56","4","3","lose","go","1","0"
"pit-trial","160","1135400","0.0-61.0","battery-v0.2","","""event"",""trial"",""time""
""fullscreenenter"",""1"",""6325""
","
","
","""event"",""trial"",""time""
""fullscreenenter"",""1"",""6325""
","
","","","787.1000000238419","","","12","1208","1070","j","elianto","#f73b6a7A"," "," ","1","0","[1639.6000000238419]","1","2","","","1208","57","1","3","lose","go","0","0"
"pit-trial","161","1140260","0.0-62.0","battery-v0.2","","""event"",""trial"",""time""
""fullscreenenter"",""1"",""6325""
","
","
","""event"",""trial"",""time""
""fullscreenenter"",""1"",""6325""
","
","","","-1","","","12","1208","1070","e","elianto","#f73b6a7A"," ","-1","0","-10","[]","0","2","","","1208","58","4","3","lose","go","0","0"
"pit-trial","162","1145128","0.0-63.0","battery-v0.2","","""event"",""trial"",""time""
""fullscreenenter"",""1"",""6325""
","
","
","""event"",""trial"",""time""
""fullscreenenter"",""1"",""6325""
","
","","","-1","","","12","1208","1070","w","elianto","#f73b6a7A","-1","-1","1","0","[]","0","2","","","1208","59","5","4","lose","no-go","0","0"
"pit-trial","163","1149991","0.0-64.0","battery-v0.2","","""event"",""trial"",""time""
""fullscreenenter"",""1"",""6325""
","
","
","""event"",""trial"",""time""
""fullscreenenter"",""1"",""6325""
","
","","","-1","","","12","1208","1070","d","elianto","#f73b6a7A","-1","-1","1","0","[]","0","2","","","1208","60","2","4","lose","no-go","0","0"
"pit-trial","164","1153792","0.0-65.0","battery-v0.2","","""event"",""trial"",""time""
""fullscreenenter"",""1"",""6325""
","
","
","""event"",""trial"",""time""
""fullscreenenter"",""1"",""6325""
","
","","","941","","","12","1208","1070","s","elianto","#3366ff99","-1"," ","0","0","[1795.5]","1","2","","","1208","61","6","2","win","no-go","0","0"
"pit-trial","165","1158660","0.0-66.0","battery-v0.2","","""event"",""trial"",""time""
""fullscreenenter"",""1"",""6325""
","
","
","""event"",""trial"",""time""
""fullscreenenter"",""1"",""6325""
","
","","","-1","","","12","1208","1070","d","elianto","#f73b6a7A","-1","-1","1","0","[]","0","2","","","1208","62","2","4","lose","no-go","0","0"
"pit-trial","166","1163524","0.0-67.0","battery-v0.2","","""event"",""trial"",""time""
""fullscreenenter"",""1"",""6325""
","
","
","""event"",""trial"",""time""
""fullscreenenter"",""1"",""6325""
","
","","","-1","","","12","1208","1070","e","elianto","#f73b6a7A"," ","-1","0","-10","[]","0","2","","","1208","63","4","3","lose","go","0","0"
"pit-trial","167","1167077","0.0-68.0","battery-v0.2","","""event"",""trial"",""time""
""fullscreenenter"",""1"",""6325""
","
","
","""event"",""trial"",""time""
""fullscreenenter"",""1"",""6325""
","
","","","697","","","12","1208","1070","w","elianto","#f73b6a7A","-1"," ","0","-10","[1547.800000011921,1721.0999999642372]","2","2","","","1208","64","5","4","lose","no-go","0","0"
"pit-trial","168","1171420","0.0-69.0","battery-v0.2","","""event"",""trial"",""time""
""fullscreenenter"",""1"",""6325""
","
","
","""event"",""trial"",""time""
""fullscreenenter"",""1"",""6325""
","
","","","1484.300000011921","","","12","1208","1070","w","elianto","#f73b6a7A","-1"," ","0","-10","[2336.5]","1","2","","","1208","65","5","4","lose","no-go","0","0"
"pit-trial","169","1176290","0.0-70.0","battery-v0.2","","""event"",""trial"",""time""
""fullscreenenter"",""1"",""6325""
","
","
","""event"",""trial"",""time""
""fullscreenenter"",""1"",""6325""
","
","","","-1","","","12","1208","1070","d","elianto","#f73b6a7A","-1","-1","1","0","[]","0","2","","","1208","66","2","4","lose","no-go","0","0"
"pit-trial","170","1181037","0.0-71.0","battery-v0.2","","""event"",""trial"",""time""
""fullscreenenter"",""1"",""6325""
","
","
","""event"",""trial"",""time""
""fullscreenenter"",""1"",""6325""
","
","","","1882.3999999761581","","","12","1208","1070","e","elianto","#f73b6a7A"," "," ","1","0","[2736.699999988079]","1","2","","","1208","67","4","3","lose","go","0","0"
"pit-trial","171","1184563","0.0-72.0","battery-v0.2","","""event"",""trial"",""time""
""fullscreenenter"",""1"",""6325""
","
","
","""event"",""trial"",""time""
""fullscreenenter"",""1"",""6325""
","
","","","655.8999999761581","","","12","1208","1070","s","elianto","#3366ff99","-1"," ","0","0","[1506.2999999523163]","1","2","","","1208","68","6","2","win","no-go","0","0"
"pit-trial","172","1189425","0.0-73.0","battery-v0.2","","""event"",""trial"",""time""
""fullscreenenter"",""1"",""6325""
","
","
","""event"",""trial"",""time""
""fullscreenenter"",""1"",""6325""
","
","","","-1","","","12","1208","1070","s","elianto","#3366ff99","-1","-1","1","0","[]","0","2","","","1208","69","6","2","win","no-go","1","0"
"pit-trial","173","1193842","0.0-74.0","battery-v0.2","","""event"",""trial"",""time""
""fullscreenenter"",""1"",""6325""
","
","
","""event"",""trial"",""time""
""fullscreenenter"",""1"",""6325""
","
","","","1558.800000011921","","","12","1208","1070","p","elianto","#3366ff99"," "," ","1","+10","[2409.099999964237]","1","2","","","1208","70","7","1","win","go","0","0"
"pit-trial","174","1198715","0.0-75.0","battery-v0.2","","""event"",""trial"",""time""
""fullscreenenter"",""1"",""6325""
","
","
","""event"",""trial"",""time""
""fullscreenenter"",""1"",""6325""
","
","","","-1","","","12","1208","1070","w","elianto","#f73b6a7A","-1","-1","1","0","[]","0","2","","","1208","71","5","4","lose","no-go","0","0"
"pit-trial","175","1203574","0.0-76.0","battery-v0.2","","""event"",""trial"",""time""
""fullscreenenter"",""1"",""6325""
","
","
","""event"",""trial"",""time""
""fullscreenenter"",""1"",""6325""
","
","","","-1","","","12","1208","1070","e","elianto","#f73b6a7A"," ","-1","0","-10","[]","0","2","","","1208","72","4","3","lose","go","0","0"
"pit-trial","176","1208435","0.0-77.0","battery-v0.2","","""event"",""trial"",""time""
""fullscreenenter"",""1"",""6325""
","
","
","""event"",""trial"",""time""
""fullscreenenter"",""1"",""6325""
","
","","","-1","","","12","1208","1070","w","elianto","#f73b6a7A","-1","-1","1","0","[]","0","2","","","1208","73","5","4","lose","no-go","0","0"
"pit-trial","177","1213296","0.0-78.0","battery-v0.2","","""event"",""trial"",""time""
""fullscreenenter"",""1"",""6325""
","
","
","""event"",""trial"",""time""
""fullscreenenter"",""1"",""6325""
","
","","","-1","","","12","1208","1070","s","elianto","#3366ff99","-1","-1","1","+10","[]","0","2","","","1208","74","6","2","win","no-go","0","0"
"pit-trial","178","1218170","0.0-79.0","battery-v0.2","","""event"",""trial"",""time""
""fullscreenenter"",""1"",""6325""
","
","
","""event"",""trial"",""time""
""fullscreenenter"",""1"",""6325""
","
","","","-1","","","12","1208","1070","p","elianto","#3366ff99"," ","-1","0","+10","[]","0","2","","","1208","75","7","1","win","go","1","0"
"pit-trial","179","1223035","0.0-80.0","battery-v0.2","","""event"",""trial"",""time""
""fullscreenenter"",""1"",""6325""
","
","
","""event"",""trial"",""time""
""fullscreenenter"",""1"",""6325""
","
","","","-1","","","12","1208","1070","e","elianto","#f73b6a7A"," ","-1","0","-10","[]","0","2","","","1208","76","4","3","lose","go","0","0"
"pit-trial","180","1227904","0.0-81.0","battery-v0.2","","""event"",""trial"",""time""
""fullscreenenter"",""1"",""6325""
","
","
","""event"",""trial"",""time""
""fullscreenenter"",""1"",""6325""
","
","","","-1","","","12","1208","1070","e","elianto","#f73b6a7A"," ","-1","0","-10","[]","0","2","","","1208","77","4","3","lose","go","0","0"
"pit-trial","181","1232767","0.0-82.0","battery-v0.2","","""event"",""trial"",""time""
""fullscreenenter"",""1"",""6325""
","
","
","""event"",""trial"",""time""
""fullscreenenter"",""1"",""6325""
","
","","","-1","","","12","1208","1070","p","elianto","#3366ff99"," ","-1","0","0","[]","0","2","","","1208","78","7","1","win","go","0","0"
"pit-trial","182","1237627","0.0-83.0","battery-v0.2","","""event"",""trial"",""time""
""fullscreenenter"",""1"",""6325""
","
","
","""event"",""trial"",""time""
""fullscreenenter"",""1"",""6325""
","
","","","-1","","","12","1208","1070","s","elianto","#3366ff99","-1","-1","1","+10","[]","0","2","","","1208","79","6","2","win","no-go","0","0"
"pit-trial","183","1242488","0.0-84.0","battery-v0.2","","""event"",""trial"",""time""
""fullscreenenter"",""1"",""6325""
","
","
","""event"",""trial"",""time""
""fullscreenenter"",""1"",""6325""
","
","","","-1","","","12","1208","1070","w","elianto","#f73b6a7A","-1","-1","1","0","[]","0","2","","","1208","80","5","4","lose","no-go","0","0"
"pit-trial","184","1247348","0.0-85.0","battery-v0.2","","""event"",""trial"",""time""
""fullscreenenter"",""1"",""6325""
","
","
","""event"",""trial"",""time""
""fullscreenenter"",""1"",""6325""
","
","","","-1","","","12","1208","1070","s","elianto","#3366ff99","-1","-1","1","+10","[]","0","2","","","1208","81","6","2","win","no-go","0","0"
"pit-trial","185","1252212","0.0-86.0","battery-v0.2","","""event"",""trial"",""time""
""fullscreenenter"",""1"",""6325""
","
","
","""event"",""trial"",""time""
""fullscreenenter"",""1"",""6325""
","
","","","-1","","","12","1208","1070","p","elianto","#3366ff99"," ","-1","0","+10","[]","0","2","","","1208","82","7","1","win","go","1","0"
"pit-trial","186","1257069","0.0-87.0","battery-v0.2","","""event"",""trial"",""time""
""fullscreenenter"",""1"",""6325""
","
","
","""event"",""trial"",""time""
""fullscreenenter"",""1"",""6325""
","
","","","-1","","","12","1208","1070","w","elianto","#f73b6a7A","-1","-1","1","0","[]","0","2","","","1208","83","5","4","lose","no-go","0","0"
"pit-trial","187","1261935","0.0-88.0","battery-v0.2","","""event"",""trial"",""time""
""fullscreenenter"",""1"",""6325""
","
","
","""event"",""trial"",""time""
""fullscreenenter"",""1"",""6325""
","
","","","-1","","","12","1208","1070","e","elianto","#f73b6a7A"," ","-1","0","-10","[]","0","2","","","1208","84","4","3","lose","go","0","0"
"pit-trial","188","1266805","0.0-89.0","battery-v0.2","","""event"",""trial"",""time""
""fullscreenenter"",""1"",""6325""
","
","
","""event"",""trial"",""time""
""fullscreenenter"",""1"",""6325""
","
","","","-1","","","12","1208","1070","p","elianto","#3366ff99"," ","-1","0","0","[]","0","2","","","1208","85","7","1","win","go","0","0"
"pit-trial","189","1271669","0.0-90.0","battery-v0.2","","""event"",""trial"",""time""
""fullscreenenter"",""1"",""6325""
","
","
","""event"",""trial"",""time""
""fullscreenenter"",""1"",""6325""
","
","","","-1","","","12","1208","1070","s","elianto","#3366ff99","-1","-1","1","+10","[]","0","2","","","1208","86","6","2","win","no-go","0","0"
"pit-trial","190","1276531","0.0-91.0","battery-v0.2","","""event"",""trial"",""time""
""fullscreenenter"",""1"",""6325""
","
","
","""event"",""trial"",""time""
""fullscreenenter"",""1"",""6325""
","
","","","-1","","","12","1208","1070","e","elianto","#f73b6a7A"," ","-1","0","-10","[]","0","2","","","1208","87","4","3","lose","go","0","0"
"pit-trial","191","1281390","0.0-92.0","battery-v0.2","","""event"",""trial"",""time""
""fullscreenenter"",""1"",""6325""
","
","
","""event"",""trial"",""time""
""fullscreenenter"",""1"",""6325""
","
","","","-1","","","12","1208","1070","w","elianto","#f73b6a7A","-1","-1","1","0","[]","0","2","","","1208","88","5","4","lose","no-go","0","0"
"pit-trial","192","1286251","0.0-93.0","battery-v0.2","","""event"",""trial"",""time""
""fullscreenenter"",""1"",""6325""
","
","
","""event"",""trial"",""time""
""fullscreenenter"",""1"",""6325""
","
","","","-1","","","12","1208","1070","e","elianto","#f73b6a7A"," ","-1","0","0","[]","0","2","","","1208","89","4","3","lose","go","1","0"
"pit-trial","193","1291112","0.0-94.0","battery-v0.2","","""event"",""trial"",""time""
""fullscreenenter"",""1"",""6325""
","
","
","""event"",""trial"",""time""
""fullscreenenter"",""1"",""6325""
","
","","","-1","","","12","1208","1070","s","elianto","#3366ff99","-1","-1","1","+10","[]","0","2","","","1208","90","6","2","win","no-go","0","0"
"pit-trial","194","1295976","0.0-95.0","battery-v0.2","","""event"",""trial"",""time""
""fullscreenenter"",""1"",""6325""
","
","
","""event"",""trial"",""time""
""fullscreenenter"",""1"",""6325""
","
","","","-1","","","12","1208","1070","p","elianto","#3366ff99"," ","-1","0","0","[]","0","2","","","1208","91","7","1","win","go","0","0"
"pit-trial","195","1300839","0.0-96.0","battery-v0.2","","""event"",""trial"",""time""
""fullscreenenter"",""1"",""6325""
","
","
","""event"",""trial"",""time""
""fullscreenenter"",""1"",""6325""
","
","","","-1","","","12","1208","1070","w","elianto","#f73b6a7A","-1","-1","1","-10","[]","0","2","","","1208","92","5","4","lose","no-go","1","0"
"pit-trial","196","1305707","0.0-97.0","battery-v0.2","","""event"",""trial"",""time""
""fullscreenenter"",""1"",""6325""
","
","
","""event"",""trial"",""time""
""fullscreenenter"",""1"",""6325""
","
","","","-1","","","12","1208","1070","e","elianto","#f73b6a7A"," ","-1","0","0","[]","0","2","","","1208","93","4","3","lose","go","1","0"
"pit-trial","197","1310574","0.0-98.0","battery-v0.2","","""event"",""trial"",""time""
""fullscreenenter"",""1"",""6325""
","
","
","""event"",""trial"",""time""
""fullscreenenter"",""1"",""6325""
","
","","","-1","","","12","1208","1070","g","elianto","#3366ff99"," ","-1","0","0","[]","0","2","","","1208","94","8","1","win","go","0","0"
"pit-trial","198","1314877","0.0-99.0","battery-v0.2","","""event"",""trial"",""time""
""fullscreenenter"",""1"",""6325""
","
","
","""event"",""trial"",""time""
""fullscreenenter"",""1"",""6325""
","
","","","1437.7999999523163","","","12","1208","1070","s","elianto","#3366ff99","-1"," ","0","+10","[2291.900000035763]","1","2","","","1208","95","6","2","win","no-go","1","0"
"pit-trial","199","1319022","0.0-100.0","battery-v0.2","","""event"",""trial"",""time""
""fullscreenenter"",""1"",""6325""
","
","
","""event"",""trial"",""time""
""fullscreenenter"",""1"",""6325""
","
","","","1285.5999999642372","","","12","1208","1070","p","elianto","#3366ff99"," "," ","1","0","[2135.699999988079]","1","2","","","1208","96","7","1","win","go","1","0"
"pit-trial","200","1323890","0.0-101.0","battery-v0.2","","""event"",""trial"",""time""
""fullscreenenter"",""1"",""6325""
","
","
","""event"",""trial"",""time""
""fullscreenenter"",""1"",""6325""
","
","","","-1","","","12","1208","1070","e","elianto","#f73b6a7A"," ","-1","0","0","[2900.100000023842]","1","2","","","1208","97","4","3","lose","go","1","0"
"pit-trial","201","1327669","0.0-102.0","battery-v0.2","","""event"",""trial"",""time""
""fullscreenenter"",""1"",""6325""
","
","
","""event"",""trial"",""time""
""fullscreenenter"",""1"",""6325""
","
","","","920.1999999880791","","","12","1208","1070","s","elianto","#3366ff99","-1"," ","0","0","[1772.2999999523163]","1","2","","","1208","98","6","2","win","no-go","0","0"
"pit-trial","202","1331718","0.0-103.0","battery-v0.2","","""event"",""trial"",""time""
""fullscreenenter"",""1"",""6325""
","
","
","""event"",""trial"",""time""
""fullscreenenter"",""1"",""6325""
","
","","","1190.699999988079","","","12","1208","1070","p","elianto","#3366ff99"," "," ","1","+10","[2043]","1","2","","","1208","99","7","1","win","go","0","0"
"pit-trial","203","1335972","0.0-104.0","battery-v0.2","","""event"",""trial"",""time""
""fullscreenenter"",""1"",""6325""
","
","
","""event"",""trial"",""time""
""fullscreenenter"",""1"",""6325""
","
","","","1391.2000000476837","","","12","1208","1070","g","elianto","#3366ff99"," "," ","1","+10","[2244.5]","1","2","","","1208","100","8","1","win","go","0","0"
"pit-trial","204","1340835","0.0-105.0","battery-v0.2","","""event"",""trial"",""time""
""fullscreenenter"",""1"",""6325""
","
","
","""event"",""trial"",""time""
""fullscreenenter"",""1"",""6325""
","
","","","-1","","","12","1208","1070","s","elianto","#3366ff99","-1","-1","1","+10","[]","0","2","","","1208","101","6","2","win","no-go","0","0"
"pit-trial","205","1344821","0.0-106.0","battery-v0.2","","""event"",""trial"",""time""
""fullscreenenter"",""1"",""6325""
","
","
","""event"",""trial"",""time""
""fullscreenenter"",""1"",""6325""
","
","","","1129","","","12","1208","1070","a","elianto","#3366ff99","-1"," ","0","0","[1979.8999999761581]","1","2","","","1208","102","9","2","win","no-go","0","0"
"pit-trial","206","1348747","0.0-107.0","battery-v0.2","","""event"",""trial"",""time""
""fullscreenenter"",""1"",""6325""
","
","
","""event"",""trial"",""time""
""fullscreenenter"",""1"",""6325""
","
","","","1069.5","","","12","1208","1070","p","elianto","#3366ff99"," "," ","1","+10","[1920.300000011921]","1","2","","","1208","103","7","1","win","go","0","0"
"pit-trial","207","1352523","0.0-108.0","battery-v0.2","","""event"",""trial"",""time""
""fullscreenenter"",""1"",""6325""
","
","
","""event"",""trial"",""time""
""fullscreenenter"",""1"",""6325""
","
","","","917.2999999523163","","","12","1208","1070","g","elianto","#3366ff99"," "," ","1","+10","[1769.699999988079]","1","2","","","1208","104","8","1","win","go","0","0"
"pit-trial","208","1357393","0.0-109.0","battery-v0.2","","""event"",""trial"",""time""
""fullscreenenter"",""1"",""6325""
","
","
","""event"",""trial"",""time""
""fullscreenenter"",""1"",""6325""
","
","","","-1","","","12","1208","1070","p","elianto","#3366ff99"," ","-1","0","0","[]","0","2","","","1208","105","7","1","win","go","0","0"
"pit-trial","209","1362258","0.0-110.0","battery-v0.2","","""event"",""trial"",""time""
""fullscreenenter"",""1"",""6325""
","
","
","""event"",""trial"",""time""
""fullscreenenter"",""1"",""6325""
","
","","","-1","","","12","1208","1070","a","elianto","#3366ff99","-1","-1","1","+10","[]","0","2","","","1208","106","9","2","win","no-go","0","0"
"pit-trial","210","1367099","0.0-111.0","battery-v0.2","","""event"",""trial"",""time""
""fullscreenenter"",""1"",""6325""
","
","
","""event"",""trial"",""time""
""fullscreenenter"",""1"",""6325""
","
","","","1983","","","12","1208","1070","g","elianto","#3366ff99"," "," ","1","0","[2834.800000011921]","1","2","","","1208","107","8","1","win","go","1","0"
"pit-trial","211","1371159","0.0-112.0","battery-v0.2","","""event"",""trial"",""time""
""fullscreenenter"",""1"",""6325""
","
","
","""event"",""trial"",""time""
""fullscreenenter"",""1"",""6325""
","
","","","1199.800000011921","","","12","1208","1070","s","elianto","#3366ff99","-1"," ","0","0","[2049.900000035763]","1","2","","","1208","108","6","2","win","no-go","0","0"
"pit-trial","212","1376020","0.0-113.0","battery-v0.2","","""event"",""trial"",""time""
""fullscreenenter"",""1"",""6325""
","
","
","""event"",""trial"",""time""
""fullscreenenter"",""1"",""6325""
","
","","","-1","","","12","1208","1070","g","elianto","#3366ff99"," ","-1","0","0","[]","0","2","","","1208","109","8","1","win","go","0","0"
"pit-trial","213","1380896","0.0-114.0","battery-v0.2","","""event"",""trial"",""time""
""fullscreenenter"",""1"",""6325""
","
","
","""event"",""trial"",""time""
""fullscreenenter"",""1"",""6325""
","
","","","-1","","","12","1208","1070","u","elianto","#f73b6a7A","-1","-1","1","0","[]","0","2","","","1208","110","11","4","lose","no-go","0","0"
"pit-trial","214","1385755","0.0-115.0","battery-v0.2","","""event"",""trial"",""time""
""fullscreenenter"",""1"",""6325""
","
","
","""event"",""trial"",""time""
""fullscreenenter"",""1"",""6325""
","
","","","-1","","","12","1208","1070","a","elianto","#3366ff99","-1","-1","1","+10","[]","0","2","","","1208","111","9","2","win","no-go","0","0"
"pit-trial","215","1390057","0.0-116.0","battery-v0.2","","""event"",""trial"",""time""
""fullscreenenter"",""1"",""6325""
","
","
","""event"",""trial"",""time""
""fullscreenenter"",""1"",""6325""
","
","","","1446.5999999642372","","","12","1208","1070","l","elianto","#f73b6a7A"," "," ","1","-10","[2298.5]","1","2","","","1208","112","10","3","lose","go","1","0"
"pit-trial","216","1394919","0.0-117.0","battery-v0.2","","""event"",""trial"",""time""
""fullscreenenter"",""1"",""6325""
","
","
","""event"",""trial"",""time""
""fullscreenenter"",""1"",""6325""
","
","","","-1","","","12","1208","1070","l","elianto","#f73b6a7A"," ","-1","0","-10","[]","0","2","","","1208","113","10","3","lose","go","0","0"
"pit-trial","217","1399783","0.0-118.0","battery-v0.2","","""event"",""trial"",""time""
""fullscreenenter"",""1"",""6325""
","
","
","""event"",""trial"",""time""
""fullscreenenter"",""1"",""6325""
","
","","","-1","","","12","1208","1070","a","elianto","#3366ff99","-1","-1","1","+10","[]","0","2","","","1208","114","9","2","win","no-go","0","0"
"pit-trial","218","1404416","0.0-119.0","battery-v0.2","","""event"",""trial"",""time""
""fullscreenenter"",""1"",""6325""
","
","
","""event"",""trial"",""time""
""fullscreenenter"",""1"",""6325""
","
","","","1766.4000000357628","","","12","1208","1070","u","elianto","#f73b6a7A","-1"," ","0","-10","[2623.899999976158]","1","2","","","1208","115","11","4","lose","no-go","0","0"
"pit-trial","219","1408688","0.0-120.0","battery-v0.2","","""event"",""trial"",""time""
""fullscreenenter"",""1"",""6325""
","
","
","""event"",""trial"",""time""
""fullscreenenter"",""1"",""6325""
","
","","","1409.800000011921","","","12","1208","1070","g","elianto","#3366ff99"," "," ","1","+10","[2261.899999976158]","1","2","","","1208","116","8","1","win","go","0","0"
"pit-trial","220","1413560","0.0-121.0","battery-v0.2","","""event"",""trial"",""time""
""fullscreenenter"",""1"",""6325""
","
","
","""event"",""trial"",""time""
""fullscreenenter"",""1"",""6325""
","
","","","-1","","","12","1208","1070","a","elianto","#3366ff99","-1","-1","1","+10","[]","0","2","","","1208","117","9","2","win","no-go","0","0"
"pit-trial","221","1418425","0.0-122.0","battery-v0.2","","""event"",""trial"",""time""
""fullscreenenter"",""1"",""6325""
","
","
","""event"",""trial"",""time""
""fullscreenenter"",""1"",""6325""
","
","","","-1","","","12","1208","1070","u","elianto","#f73b6a7A","-1","-1","1","0","[]","0","2","","","1208","118","11","4","lose","no-go","0","0"
"pit-trial","222","1422379","0.0-123.0","battery-v0.2","","""event"",""trial"",""time""
""fullscreenenter"",""1"",""6325""
","
","
","""event"",""trial"",""time""
""fullscreenenter"",""1"",""6325""
","
","","","1099.2999999523163","","","12","1208","1070","g","elianto","#3366ff99"," "," ","1","+10","[1949.199999988079]","1","2","","","1208","119","8","1","win","go","0","0"
"pit-trial","223","1427241","0.0-124.0","battery-v0.2","","""event"",""trial"",""time""
""fullscreenenter"",""1"",""6325""
","
","
","""event"",""trial"",""time""
""fullscreenenter"",""1"",""6325""
","
","","","-1","","","12","1208","1070","l","elianto","#f73b6a7A"," ","-1","0","0","[]","0","2","","","1208","120","10","3","lose","go","1","0"
"pit-trial","224","1431332","0.0-125.0","battery-v0.2","","""event"",""trial"",""time""
""fullscreenenter"",""1"",""6325""
","
","
","""event"",""trial"",""time""
""fullscreenenter"",""1"",""6325""
","
","","","1236.0999999642372","","","12","1208","1070","g","elianto","#3366ff99"," "," ","1","+10","[2086.400000035763]","1","2","","","1208","121","8","1","win","go","0","0"
"pit-trial","225","1436058","0.0-126.0","battery-v0.2","","""event"",""trial"",""time""
""fullscreenenter"",""1"",""6325""
","
","
","""event"",""trial"",""time""
""fullscreenenter"",""1"",""6325""
","
","","","1859.3999999761581","","","12","1208","1070","u","elianto","#f73b6a7A","-1"," ","0","-10","[2716.2000000476837]","1","2","","","1208","122","11","4","lose","no-go","0","0"
"pit-trial","226","1440917","0.0-127.0","battery-v0.2","","""event"",""trial"",""time""
""fullscreenenter"",""1"",""6325""
","
","
","""event"",""trial"",""time""
""fullscreenenter"",""1"",""6325""
","
","","","-1","","","12","1208","1070","a","elianto","#3366ff99","-1","-1","1","+10","[]","0","2","","","1208","123","9","2","win","no-go","0","0"
"pit-trial","227","1445444","0.0-128.0","battery-v0.2","","""event"",""trial"",""time""
""fullscreenenter"",""1"",""6325""
","
","
","""event"",""trial"",""time""
""fullscreenenter"",""1"",""6325""
","
","","","1665.5","","","12","1208","1070","l","elianto","#f73b6a7A"," "," ","1","-10","[2521.400000035763]","1","2","","","1208","124","10","3","lose","go","1","0"
"pit-trial","228","1450308","0.0-129.0","battery-v0.2","","""event"",""trial"",""time""
""fullscreenenter"",""1"",""6325""
","
","
","""event"",""trial"",""time""
""fullscreenenter"",""1"",""6325""
","
","","","-1","","","12","1208","1070","l","elianto","#f73b6a7A"," ","-1","0","-10","[]","0","2","","","1208","125","10","3","lose","go","0","0"
"pit-trial","229","1455173","0.0-130.0","battery-v0.2","","""event"",""trial"",""time""
""fullscreenenter"",""1"",""6325""
","
","
","""event"",""trial"",""time""
""fullscreenenter"",""1"",""6325""
","
","","","-1","","","12","1208","1070","a","elianto","#3366ff99","-1","-1","1","+10","[]","0","2","","","1208","126","9","2","win","no-go","0","0"
"pit-trial","230","1460030","0.0-131.0","battery-v0.2","","""event"",""trial"",""time""
""fullscreenenter"",""1"",""6325""
","
","
","""event"",""trial"",""time""
""fullscreenenter"",""1"",""6325""
","
","","","-1","","","12","1208","1070","u","elianto","#f73b6a7A","-1","-1","1","0","[]","0","2","","","1208","127","11","4","lose","no-go","0","0"
"pit-trial","231","1463929","0.0-132.0","battery-v0.2","","""event"",""trial"",""time""
""fullscreenenter"",""1"",""6325""
","
","
","""event"",""trial"",""time""
""fullscreenenter"",""1"",""6325""
","
","","","1039.800000011921","","","12","1208","1070","g","elianto","#3366ff99"," "," ","1","+10","[1891.300000011921]","1","2","","","1208","128","8","1","win","go","0","0"
"pit-trial","232","1468792","0.0-133.0","battery-v0.2","","""event"",""trial"",""time""
""fullscreenenter"",""1"",""6325""
","
","
","""event"",""trial"",""time""
""fullscreenenter"",""1"",""6325""
","
","","","-1","","","12","1208","1070","l","elianto","#f73b6a7A"," ","-1","0","-10","[]","0","2","","","1208","129","10","3","lose","go","0","0"
"pit-trial","233","1473665","0.0-134.0","battery-v0.2","","""event"",""trial"",""time""
""fullscreenenter"",""1"",""6325""
","
","
","""event"",""trial"",""time""
""fullscreenenter"",""1"",""6325""
","
","","","-1","","","12","1208","1070","u","elianto","#f73b6a7A","-1","-1","1","-10","[]","0","2","","","1208","130","11","4","lose","no-go","1","0"
"pit-trial","234","1478536","0.0-135.0","battery-v0.2","","""event"",""trial"",""time""
""fullscreenenter"",""1"",""6325""
","
","
","""event"",""trial"",""time""
""fullscreenenter"",""1"",""6325""
","
","","","-1","","","12","1208","1070","a","elianto","#3366ff99","-1","-1","1","+10","[]","0","2","","","1208","131","9","2","win","no-go","0","0"
"pit-trial","235","1482868","0.0-136.0","battery-v0.2","","""event"",""trial"",""time""
""fullscreenenter"",""1"",""6325""
","
","
","""event"",""trial"",""time""
""fullscreenenter"",""1"",""6325""
","
","","","1470.6000000238419","","","12","1208","1070","g","elianto","#3366ff99"," "," ","1","+10","[2322.7999999523163]","1","2","","","1208","132","8","1","win","go","0","0"
"pit-trial","236","1487597","0.0-137.0","battery-v0.2","","""event"",""trial"",""time""
""fullscreenenter"",""1"",""6325""
","
","
","""event"",""trial"",""time""
""fullscreenenter"",""1"",""6325""
","
","","","1869.800000011921","","","12","1208","1070","l","elianto","#f73b6a7A"," "," ","1","-10","[2721.800000011921]","1","2","","","1208","133","10","3","lose","go","1","0"
"pit-trial","237","1491537","0.0-138.0","battery-v0.2","","""event"",""trial"",""time""
""fullscreenenter"",""1"",""6325""
","
","
","""event"",""trial"",""time""
""fullscreenenter"",""1"",""6325""
","
","","","1076.8999999761581","","","12","1208","1070","g","elianto","#3366ff99"," "," ","1","+10","[1929.699999988079]","1","2","","","1208","134","8","1","win","go","0","0"
"pit-trial","238","1496395","0.0-139.0","battery-v0.2","","""event"",""trial"",""time""
""fullscreenenter"",""1"",""6325""
","
","
","""event"",""trial"",""time""
""fullscreenenter"",""1"",""6325""
","
","","","-1","","","12","1208","1070","a","elianto","#3366ff99","-1","-1","1","+10","[]","0","2","","","1208","135","9","2","win","no-go","0","0"
"pit-trial","239","1501258","0.0-140.0","battery-v0.2","","""event"",""trial"",""time""
""fullscreenenter"",""1"",""6325""
","
","
","""event"",""trial"",""time""
""fullscreenenter"",""1"",""6325""
","
","","","-1","","","12","1208","1070","u","elianto","#f73b6a7A","-1","-1","1","0","[]","0","2","","","1208","136","11","4","lose","no-go","0","0"
"pit-trial","240","1506118","0.0-141.0","battery-v0.2","","""event"",""trial"",""time""
""fullscreenenter"",""1"",""6325""
","
","
","""event"",""trial"",""time""
""fullscreenenter"",""1"",""6325""
","
","","","-1","","","12","1208","1070","l","elianto","#f73b6a7A"," ","-1","0","-10","[]","0","2","","","1208","137","10","3","lose","go","0","0"
"pit-trial","241","1509947","0.0-142.0","battery-v0.2","","""event"",""trial"",""time""
""fullscreenenter"",""1"",""6325""
","
","
","""event"",""trial"",""time""
""fullscreenenter"",""1"",""6325""
","
","","","972.1999999880791","","","12","1208","1070","g","elianto","#3366ff99"," "," ","1","+10","[1823.9000000357628]","1","2","","","1208","138","8","1","win","go","0","0"
"pit-trial","242","1514816","0.0-143.0","battery-v0.2","","""event"",""trial"",""time""
""fullscreenenter"",""1"",""6325""
","
","
","""event"",""trial"",""time""
""fullscreenenter"",""1"",""6325""
","
","","","-1","","","12","1208","1070","u","elianto","#f73b6a7A","-1","-1","1","0","[]","0","2","","","1208","139","11","4","lose","no-go","0","0"
"pit-trial","243","1519686","0.0-144.0","battery-v0.2","","""event"",""trial"",""time""
""fullscreenenter"",""1"",""6325""
","
","
","""event"",""trial"",""time""
""fullscreenenter"",""1"",""6325""
","
","","","-1","","","12","1208","1070","a","elianto","#3366ff99","-1","-1","1","+10","[]","0","2","","","1208","140","9","2","win","no-go","0","0"
"pit-instructions","244","1545587","0.0-145.0","battery-v0.2","","""event"",""trial"",""time""
""fullscreenenter"",""1"",""6325""
","
","
","""event"",""trial"",""time""
""fullscreenenter"",""1"",""6325""
","
","","[{""page_index"":0,""viewing_time"":17504.5},{""page_index"":1,""viewing_time"":8393.700000047684}]","25898.900000035763","","","","","","","","","","","","","","","","","","","","","","","","",""
"pit-trial","245","1550455","0.0-146.0","battery-v0.2","","""event"",""trial"",""time""
""fullscreenenter"",""1"",""6325""
","
","
","""event"",""trial"",""time""
""fullscreenenter"",""1"",""6325""
","
","","","-1","","","12","1208","1070","q","elianto","#3366ff99","-1","-1","1","+10","[]","0","3","","","1208","141","0","2","win","no-go","0","0"
"pit-trial","246","1554965","0.0-147.0","battery-v0.2","","""event"",""trial"",""time""
""fullscreenenter"",""1"",""6325""
","
","
","""event"",""trial"",""time""
""fullscreenenter"",""1"",""6325""
","
","","","1637.6000000238419","","","12","1208","1070","x","elianto","#f73b6a7A"," "," ","1","0","[2488.600000023842]","1","3","","","1208","142","3","3","lose","go","0","0"
"pit-trial","247","1559605","0.0-148.0","battery-v0.2","","""event"",""trial"",""time""
""fullscreenenter"",""1"",""6325""
","
","
","""event"",""trial"",""time""
""fullscreenenter"",""1"",""6325""
","
","","","1771.699999988079","","","12","1208","1070","n","elianto","#3366ff99","-1"," ","0","0","[2622.5]","1","3","","","1208","143","1","2","win","no-go","0","0"
"pit-trial","248","1563525","0.0-149.0","battery-v0.2","","""event"",""trial"",""time""
""fullscreenenter"",""1"",""6325""
","
","
","""event"",""trial"",""time""
""fullscreenenter"",""1"",""6325""
","
","","","1039.6000000238419","","","12","1208","1070","f","elianto","#3366ff99"," "," ","1","0","[1897]","1","3","","","1208","144","2","1","win","go","1","0"
"pit-trial","249","1567325","0.0-150.0","battery-v0.2","","""event"",""trial"",""time""
""fullscreenenter"",""1"",""6325""
","
","
","""event"",""trial"",""time""
""fullscreenenter"",""1"",""6325""
","
","","","933.5","","","12","1208","1070","q","elianto","#3366ff99","-1"," ","0","0","[1786.800000011921]","1","3","","","1208","145","0","2","win","no-go","0","0"
"pit-trial","250","1570695","0.0-151.0","battery-v0.2","","""event"",""trial"",""time""
""fullscreenenter"",""1"",""6325""
","
","
","""event"",""trial"",""time""
""fullscreenenter"",""1"",""6325""
","
","","","498.4000000357628","","","12","1208","1070","n","elianto","#3366ff99","-1"," ","0","0","[1356]","1","3","","","1208","146","1","2","win","no-go","0","0"
"pit-trial","251","1575564","0.0-152.0","battery-v0.2","","""event"",""trial"",""time""
""fullscreenenter"",""1"",""6325""
","
","
","""event"",""trial"",""time""
""fullscreenenter"",""1"",""6325""
","
","","","-1","","","12","1208","1070","f","elianto","#3366ff99"," ","-1","0","0","[]","0","3","","","1208","147","2","1","win","go","0","0"
"pit-trial","252","1579868","0.0-153.0","battery-v0.2","","""event"",""trial"",""time""
""fullscreenenter"",""1"",""6325""
","
","
","""event"",""trial"",""time""
""fullscreenenter"",""1"",""6325""
","
","","","1443","","","12","1208","1070","x","elianto","#f73b6a7A"," "," ","1","0","[2296.5]","1","3","","","1208","148","3","3","lose","go","0","0"
"pit-trial","253","1584729","0.0-154.0","battery-v0.2","","""event"",""trial"",""time""
""fullscreenenter"",""1"",""6325""
","
","
","""event"",""trial"",""time""
""fullscreenenter"",""1"",""6325""
","
","","","-1","","","12","1208","1070","n","elianto","#3366ff99","-1","-1","1","+10","[]","0","3","","","1208","149","1","2","win","no-go","0","0"
"pit-trial","254","1589589","0.0-155.0","battery-v0.2","","""event"",""trial"",""time""
""fullscreenenter"",""1"",""6325""
","
","
","""event"",""trial"",""time""
""fullscreenenter"",""1"",""6325""
","
","","","-1","","","12","1208","1070","f","elianto","#3366ff99"," ","-1","0","0","[]","0","3","","","1208","150","2","1","win","go","0","0"
"pit-trial","255","1593577","0.0-156.0","battery-v0.2","","""event"",""trial"",""time""
""fullscreenenter"",""1"",""6325""
","
","
","""event"",""trial"",""time""
""fullscreenenter"",""1"",""6325""
","
","","","1129.5","","","12","1208","1070","x","elianto","#f73b6a7A"," "," ","1","0","[1979.699999988079]","1","3","","","1208","151","3","3","lose","go","0","0"
"pit-trial","256","1597505","0.0-157.0","battery-v0.2","","""event"",""trial"",""time""
""fullscreenenter"",""1"",""6325""
","
","
","""event"",""trial"",""time""
""fullscreenenter"",""1"",""6325""
","
","","","1065.4000000357628","","","12","1208","1070","q","elianto","#3366ff99","-1"," ","0","0","[1919.300000011921]","1","3","","","1208","152","0","2","win","no-go","0","0"
"pit-trial","257","1601407","0.0-158.0","battery-v0.2","","""event"",""trial"",""time""
""fullscreenenter"",""1"",""6325""
","
","
","""event"",""trial"",""time""
""fullscreenenter"",""1"",""6325""
","
","","","1041.3999999761581","","","12","1208","1070","n","elianto","#3366ff99","-1"," ","0","0","[1892]","1","3","","","1208","153","1","2","win","no-go","0","0"
"pit-trial","258","1605070","0.0-159.0","battery-v0.2","","""event"",""trial"",""time""
""fullscreenenter"",""1"",""6325""
","
","
","""event"",""trial"",""time""
""fullscreenenter"",""1"",""6325""
","
","","","795.5999999642372","","","12","1208","1070","x","elianto","#f73b6a7A"," "," ","1","0","[1653.2000000476837]","1","3","","","1208","154","3","3","lose","go","0","0"
"pit-trial","259","1609937","0.0-160.0","battery-v0.2","","""event"",""trial"",""time""
""fullscreenenter"",""1"",""6325""
","
","
","""event"",""trial"",""time""
""fullscreenenter"",""1"",""6325""
","
","","","-1","","","12","1208","1070","q","elianto","#3366ff99","-1","-1","1","+10","[]","0","3","","","1208","155","0","2","win","no-go","0","0"
"pit-trial","260","1614794","0.0-161.0","battery-v0.2","","""event"",""trial"",""time""
""fullscreenenter"",""1"",""6325""
","
","
","""event"",""trial"",""time""
""fullscreenenter"",""1"",""6325""
","
","","","-1","","","12","1208","1070","f","elianto","#3366ff99"," ","-1","0","+10","[2900.699999988079]","1","3","","","1208","156","2","1","win","go","1","0"
"pit-trial","261","1618767","0.0-162.0","battery-v0.2","","""event"",""trial"",""time""
""fullscreenenter"",""1"",""6325""
","
","
","""event"",""trial"",""time""
""fullscreenenter"",""1"",""6325""
","
","","","1116.8999999761581","","","12","1208","1070","n","elianto","#3366ff99","-1"," ","0","0","[1969.800000011921]","1","3","","","1208","157","1","2","win","no-go","0","0"
"pit-trial","262","1622816","0.0-163.0","battery-v0.2","","""event"",""trial"",""time""
""fullscreenenter"",""1"",""6325""
","
","
","""event"",""trial"",""time""
""fullscreenenter"",""1"",""6325""
","
","","","1188.199999988079","","","12","1208","1070","x","elianto","#f73b6a7A"," "," ","1","-10","[2041.800000011921]","1","3","","","1208","158","3","3","lose","go","1","0"
"pit-trial","263","1626849","0.0-164.0","battery-v0.2","","""event"",""trial"",""time""
""fullscreenenter"",""1"",""6325""
","
","
","""event"",""trial"",""time""
""fullscreenenter"",""1"",""6325""
","
","","","1168.3999999761581","","","12","1208","1070","q","elianto","#3366ff99","-1"," ","0","+10","[2020.5999999642372]","1","3","","","1208","159","0","2","win","no-go","1","0"
"pit-trial","264","1630963","0.0-165.0","battery-v0.2","","""event"",""trial"",""time""
""fullscreenenter"",""1"",""6325""
","
","
","""event"",""trial"",""time""
""fullscreenenter"",""1"",""6325""
","
","","","1251.300000011921","","","12","1208","1070","f","elianto","#3366ff99"," "," ","1","+10","[2107.5]","1","3","","","1208","160","2","1","win","go","0","0"
"pit-trial","265","1634872","0.0-166.0","battery-v0.2","","""event"",""trial"",""time""
""fullscreenenter"",""1"",""6325""
","
","
","""event"",""trial"",""time""
""fullscreenenter"",""1"",""6325""
","
