"trial_type","trial_index","time_elapsed","internal_node_id","task_version","success","view_history","rt","responses","num_errors","age","subject","participantId","rune","rune_set","hex","correct","choice","accuracy","outcome","keys","total_keys","block","practice","value","sub","trial","stimulus","robot","valence","action","sham","browser_interactions"
"pavlovia","0","18","0.0-0.0","battery-v0.2","","","","","","","","","","","","","","","","","","","","","","","","","","","",""
"fullscreen","1","67028","0.0-1.0","battery-v0.2","true","","","","","","","","","","","","","","","","","","","","","","","","","","",""
"pit-instructions","2","75212","0.0-2.0-0.0","battery-v0.2","","[{""page_index"":0,""viewing_time"":8179.199999999953}]","8180.099999999977","","","","","","","","","","","","","","","","","","","","","","","","",""
"pit-comprehension","3","78909","0.0-2.0-1.0-0.0","battery-v0.2","","","3692.79999999993","[""shark""]","0","23","855","750","","","","","","","","","","","","","","","","","","","",""
"pit-instructions","4","82428","0.0-2.0-1.0-1.0","battery-v0.2","","[{""page_index"":0,""viewing_time"":3503.8000000000466}]","3504.3000000000466","","","","","","","","","","","","","","","","","","","","","","","","",""
"pit-comprehension","5","84485","0.0-2.0-2.0-0.0","battery-v0.2","","","2052.70000000007","[""tiger""]","0","23","855","750","","","","","","","","","","","","","","","","","","","",""
"pit-instructions","6","86069","0.0-2.0-2.0-1.0","battery-v0.2","","[{""page_index"":0,""viewing_time"":1579.0999999999767}]","1579.6999999999534","","","","","","","","","","","","","","","","","","","","","","","","",""
"pit-instructions","7","234748","0.0-2.0-3.0","battery-v0.2","","[{""page_index"":0,""viewing_time"":8173.300000000047},{""page_index"":1,""viewing_time"":6768.599999999977},{""page_index"":2,""viewing_time"":7584.5},{""page_index"":3,""viewing_time"":5489.099999999977},{""page_index"":4,""viewing_time"":11144.699999999953},{""page_index"":5,""viewing_time"":43037},{""page_index"":6,""viewing_time"":7000.300000000047},{""page_index"":7,""viewing_time"":8744.800000000047},{""page_index"":8,""viewing_time"":8784.79999999993},{""page_index"":9,""viewing_time"":8217.099999999977},{""page_index"":10,""viewing_time"":12216.90000000014},{""page_index"":11,""viewing_time"":9241.199999999953},{""page_index"":12,""viewing_time"":7506.399999999907},{""page_index"":13,""viewing_time"":4766.800000000047}]","148676.19999999995","","","","","","","","","","","","","","","","","","","","","","","","",""
"pit-trial","8","238384","0.0-2.0-4.0-0.0","battery-v0.2","","","771.6999999999534","","","23","855","750","&#9784;","elianto","#FFFFF080"," "," ","1","&#10004","[1622.3999999999069]","1","0","0","","","","","","","","",""
"pit-trial","9","241856","0.0-2.0-4.1-0.1","battery-v0.2","","","601.3000000000466","","","23","855","750","&#9784;","elianto","#FFFFF080"," "," ","1","&#10004","[1455.2000000001863]","1","0","0","","","","","","","","",""
"pit-trial","10","245695","0.0-2.0-4.2-0.2","battery-v0.2","","","982.4000000001397","","","23","855","750","&#9784;","elianto","#FFFFF080"," "," ","1","&#10004","[1833.3000000000466]","1","0","0","","","","","","","","",""
"pit-trial","11","249098","0.0-2.0-4.3-0.3","battery-v0.2","","","544.7000000001863","","","23","855","750","&#9784;","elianto","#FFFFF080"," "," ","1","&#10004","[1395.6000000000931]","1","0","0","","","","","","","","",""
"pit-trial","12","252499","0.0-2.0-4.4-0.4","battery-v0.2","","","544.5999999998603","","","23","855","750","&#9784;","elianto","#FFFFF080"," "," ","1","&#10004","[1394.5999999998603]","1","0","0","","","","","","","","",""
"pit-instructions","13","477413","0.0-2.0-5.0","battery-v0.2","","[{""page_index"":0,""viewing_time"":208333.19999999995},{""page_index"":1,""viewing_time"":5896.5},{""page_index"":2,""viewing_time"":5560.5},{""page_index"":3,""viewing_time"":5120.700000000186}]","224911.40000000014","","","","","","","","","","","","","","","","","","","","","","","","",""
"pit-trial","14","482280","0.0-2.0-6.0-0.0","battery-v0.2","","","-1","","","23","855","750","&#9854;","elianto","#FFFFF080","-1","-1","1","&#10004","[]","0","0","1","","","","","","","","",""
"pit-trial","15","487161","0.0-2.0-6.1-0.1","battery-v0.2","","","-1","","","23","855","750","&#9854;","elianto","#FFFFF080","-1","-1","1","&#10004","[]","0","0","1","","","","","","","","",""
"pit-trial","16","492024","0.0-2.0-6.2-0.2","battery-v0.2","","","-1","","","23","855","750","&#9854;","elianto","#FFFFF080","-1","-1","1","&#10004","[]","0","0","1","","","","","","","","",""
"pit-trial","17","496907","0.0-2.0-6.3-0.3","battery-v0.2","","","-1","","","23","855","750","&#9854;","elianto","#FFFFF080","-1","-1","1","&#10004","[]","0","0","1","","","","","","","","",""
"pit-trial","18","501774","0.0-2.0-6.4-0.4","battery-v0.2","","","-1","","","23","855","750","&#9854;","elianto","#FFFFF080","-1","-1","1","&#10004","[]","0","0","1","","","","","","","","",""
"pit-instructions","19","1328866","0.0-2.0-7.0","battery-v0.2","","[{""page_index"":0,""viewing_time"":6991.399999999907},{""page_index"":1,""viewing_time"":6408.700000000186},{""page_index"":2,""viewing_time"":7336.699999999953},{""page_index"":3,""viewing_time"":6704.699999999953},{""page_index"":4,""viewing_time"":445373.6000000001},{""page_index"":5,""viewing_time"":132213.69999999984},{""page_index"":6,""viewing_time"":4912.5},{""page_index"":7,""viewing_time"":8137},{""page_index"":8,""viewing_time"":15601.600000000093},{""page_index"":9,""viewing_time"":71231.20000000019},{""page_index"":10,""viewing_time"":9112.899999999907},{""page_index"":11,""viewing_time"":39612.200000000186},{""page_index"":12,""viewing_time"":6664.699999999721},{""page_index"":13,""viewing_time"":6696.700000000186},{""page_index"":14,""viewing_time"":6592.5},{""page_index"":15,""viewing_time"":6616.799999999814},{""page_index"":16,""viewing_time"":11969.399999999907},{""page_index"":17,""viewing_time"":37852}]","830028.9","","","","","","","","","","","","","","","","","","","","","","","","",""
"pit-trial","20","1332505","0.0-2.0-8.0-0.0","battery-v0.2","","","784.8000000002794","","","23","855","750","&#9776;","elianto","#3366ff99"," "," ","1","+10","[1635.2999999998137]","1","0","1","","","","","","","","",""
"pit-trial","21","1335959","0.0-2.0-8.0-1.0","battery-v0.2","","","600.6999999997206","","","23","855","750","&#9776;","elianto","#3366ff99"," "," ","1","+10","[1451.6999999997206]","1","0","1","","","","","","","","",""
"pit-trial","22","1339333","0.0-2.0-8.0-2.0","battery-v0.2","","","519.6000000000931","","","23","855","750","&#9776;","elianto","#3366ff99"," "," ","1","+10","[1370.3999999999069]","1","0","1","","","","","","","","",""
"pit-trial","23","1342664","0.0-2.0-8.0-3.0","battery-v0.2","","","476.89999999990687","","","23","855","750","&#9776;","elianto","#3366ff99"," "," ","1","0","[1328.4000000003725]","1","0","1","","","","","","","","",""
"pit-trial","24","1345897","0.0-2.0-8.0-4.0","battery-v0.2","","","379.89999999990687","","","23","855","750","&#9776;","elianto","#3366ff99"," "," ","1","+10","[1230.1000000000931]","1","0","1","","","","","","","","",""
"call-function","25","1345899","0.0-2.0-9.0","battery-v0.2","","","","","","","","","","","","","","","","","","","","","","","","","","","",""
"pit-instructions","26","1493603","0.0-2.0-10.0","battery-v0.2","","[{""page_index"":0,""viewing_time"":9680.400000000373},{""page_index"":1,""viewing_time"":32651.5},{""page_index"":2,""viewing_time"":9912.899999999907},{""page_index"":3,""viewing_time"":87385.19999999972},{""page_index"":4,""viewing_time"":8072.700000000186}]","147703.1000000001","","","","","","","","","","","","","","","","","","","","","","","","",""
"pit-trial","27","1496975","0.0-2.0-11.0-0.0","battery-v0.2","","","517.3999999999069","","","23","855","750","&#9761;","elianto","#3366ff99","-1"," ","0","0","[1368.2999999998137]","1","0","2","","","","","","","","",""
"pit-trial","28","1500207","0.0-2.0-11.0-1.0","battery-v0.2","","","366.29999999981374","","","23","855","750","&#9761;","elianto","#3366ff99","-1"," ","0","0","[1219.6000000000931]","1","0","2","","","","","","","","",""
"pit-trial","29","1505073","0.0-2.0-11.0-2.0","battery-v0.2","","","-1","","","23","855","750","&#9761;","elianto","#3366ff99","-1","-1","1","+10","[]","0","0","2","","","","","","","","",""
"pit-trial","30","1509944","0.0-2.0-11.0-3.0","battery-v0.2","","","-1","","","23","855","750","&#9761;","elianto","#3366ff99","-1","-1","1","0","[]","0","0","2","","","","","","","","",""
"pit-trial","31","1514812","0.0-2.0-11.0-4.0","battery-v0.2","","","-1","","","23","855","750","&#9761;","elianto","#3366ff99","-1","-1","1","+10","[]","0","0","2","","","","","","","","",""
"pit-trial","32","1519674","0.0-2.0-11.1-0.1","battery-v0.2","","","-1","","","23","855","750","&#9761;","elianto","#3366ff99","-1","-1","1","+10","[]","0","0","2","","","","","","","","",""
"pit-trial","33","1524539","0.0-2.0-11.1-1.1","battery-v0.2","","","-1","","","23","855","750","&#9761;","elianto","#3366ff99","-1","-1","1","+10","[]","0","0","2","","","","","","","","",""
"pit-trial","34","1529391","0.0-2.0-11.1-2.1","battery-v0.2","","","-1","","","23","855","750","&#9761;","elianto","#3366ff99","-1","-1","1","+10","[]","0","0","2","","","","","","","","",""
"pit-trial","35","1534245","0.0-2.0-11.1-3.1","battery-v0.2","","","-1","","","23","855","750","&#9761;","elianto","#3366ff99","-1","-1","1","0","[]","0","0","2","","","","","","","","",""
"pit-trial","36","1539099","0.0-2.0-11.1-4.1","battery-v0.2","","","-1","","","23","855","750","&#9761;","elianto","#3366ff99","-1","-1","1","+10","[]","0","0","2","","","","","","","","",""
"call-function","37","1539100","0.0-2.0-12.0","battery-v0.2","","","","","","","","","","","","","","","","","","","","","","","","","","","",""
"pit-instructions","38","1577483","0.0-2.0-13.0","battery-v0.2","","[{""page_index"":0,""viewing_time"":7586.5},{""page_index"":1,""viewing_time"":11089.200000000186},{""page_index"":2,""viewing_time"":3368.2999999998137},{""page_index"":3,""viewing_time"":12033.200000000186},{""page_index"":4,""viewing_time"":4304.5}]","38382.10000000009","","","","","","","","","","","","","","","","","","","","","","","","",""
"pit-trial","39","1580879","0.0-2.0-14.0-0.0","battery-v0.2","","","529.1000000000931","","","23","855","750","&#9826;","elianto","#f73b6a7A","-1"," ","0","-10","[1379.2000000001863]","1","0","3","","","","","","","","",""
"pit-trial","40","1583992","0.0-2.0-14.0-1.0","battery-v0.2","","","244.39999999990687","","","23","855","750","&#9826;","elianto","#f73b6a7A","-1"," ","0","-10","[1097.1000000000931]","1","0","3","","","","","","","","",""
"pit-trial","41","1588853","0.0-2.0-14.0-2.0","battery-v0.2","","","-1","","","23","855","750","&#9826;","elianto","#f73b6a7A","-1","-1","1","0","[]","0","0","3","","","","","","","","",""
"pit-trial","42","1593723","0.0-2.0-14.0-3.0","battery-v0.2","","","-1","","","23","855","750","&#9826;","elianto","#f73b6a7A","-1","-1","1","-10","[]","0","0","3","","","","","","","","",""
"pit-trial","43","1598603","0.0-2.0-14.0-4.0","battery-v0.2","","","-1","","","23","855","750","&#9826;","elianto","#f73b6a7A","-1","-1","1","0","[]","0","0","3","","","","","","","","",""
"pit-trial","44","1603477","0.0-2.0-14.1-0.1","battery-v0.2","","","-1","","","23","855","750","&#9826;","elianto","#f73b6a7A","-1","-1","1","0","[]","0","0","3","","","","","","","","",""
"pit-trial","45","1608355","0.0-2.0-14.1-1.1","battery-v0.2","","","-1","","","23","855","750","&#9826;","elianto","#f73b6a7A","-1","-1","1","0","[]","0","0","3","","","","","","","","",""
"pit-trial","46","1613209","0.0-2.0-14.1-2.1","battery-v0.2","","","-1","","","23","855","750","&#9826;","elianto","#f73b6a7A","-1","-1","1","0","[]","0","0","3","","","","","","","","",""
"pit-trial","47","1618063","0.0-2.0-14.1-3.1","battery-v0.2","","","-1","","","23","855","750","&#9826;","elianto","#f73b6a7A","-1","-1","1","-10","[]","0","0","3","","","","","","","","",""
"pit-trial","48","1622915","0.0-2.0-14.1-4.1","battery-v0.2","","","-1","","","23","855","750","&#9826;","elianto","#f73b6a7A","-1","-1","1","0","[]","0","0","3","","","","","","","","",""
"call-function","49","1622917","0.0-2.0-15.0","battery-v0.2","","","","","","","","","","","","","","","","","","","","","","","","","","","",""
"pit-instructions","50","1863857","0.0-2.0-16.0","battery-v0.2","","[{""page_index"":0,""viewing_time"":100284.70000000019},{""page_index"":1,""viewing_time"":13720.899999999907},{""page_index"":2,""viewing_time"":21274.19999999972},{""page_index"":3,""viewing_time"":105658.80000000028}]","240939.1000000001","","","","","","","","","","","","","","","","","","","","","","","","",""
"pit-trial","51","1868710","0.0-2.0-17.0-0.0","battery-v0.2","","","-1","","","23","855","750","&#9789;","elianto","#f73b6a7A"," ","-1","0","-10","[]","0","0","4","","","","","","","","",""
"pit-trial","52","1871793","0.0-2.0-17.0-1.0","battery-v0.2","","","229.20000000018626","","","23","855","750","&#9789;","elianto","#f73b6a7A"," "," ","1","0","[1079.2000000001863]","1","0","4","","","","","","","","",""
"pit-trial","53","1874952","0.0-2.0-17.0-2.0","battery-v0.2","","","305.5","","","23","855","750","&#9789;","elianto","#f73b6a7A"," "," ","1","0","[1155.3999999999069]","1","0","4","","","","","","","","",""
"pit-trial","54","1878079","0.0-2.0-17.0-3.0","battery-v0.2","","","274.39999999990687","","","23","855","750","&#9789;","elianto","#f73b6a7A"," "," ","1","-10","[1124.8999999999069]","1","0","4","","","","","","","","",""
"pit-trial","55","1881123","0.0-2.0-17.0-4.0","battery-v0.2","","","190","","","23","855","750","&#9789;","elianto","#f73b6a7A"," "," ","1","0","[1040.1999999997206]","1","0","4","","","","","","","","",""
"call-function","56","1881125","0.0-2.0-18.0","battery-v0.2","","","","","","","","","","","","","","","","","","","","","","","","","","","",""
"pit-instructions","57","2568058","0.0-2.0-19.0","battery-v0.2","","[{""page_index"":0,""viewing_time"":541509.0999999996},{""page_index"":1,""viewing_time"":9577},{""page_index"":2,""viewing_time"":29907.100000000093},{""page_index"":3,""viewing_time"":6432.700000000186},{""page_index"":4,""viewing_time"":8232.799999999814},{""page_index"":5,""viewing_time"":78247.8999999999},{""page_index"":6,""viewing_time"":4816.800000000279},{""page_index"":7,""viewing_time"":4616.5},{""page_index"":8,""viewing_time"":3592.1999999997206}]","686932.6999999997","","","","","","","","","","","","","","","","","","","","","","","","",""
"pit-comprehension","58","2572507","0.0-2.0-20.0-0.0","battery-v0.2","","","4445.800000000279","[""SPACE""]","0","23","855","750","","","","","","","","","","","","","","","","","","","",""
"pit-instructions","59","2575266","0.0-2.0-20.0-1.0","battery-v0.2","","[{""page_index"":0,""viewing_time"":2736.8000000002794}]","2737.2000000001863","","","","","","","","","","","","","","","","","","","","","","","","",""
"pit-comprehension","60","2581275","0.0-2.0-21.0-0.0","battery-v0.2","","","6005.299999999814","[""10""]","0","23","855","750","","","","","","","","","","","","","","","","","","","",""
"pit-instructions","61","2582803","0.0-2.0-21.0-1.0","battery-v0.2","","[{""page_index"":0,""viewing_time"":1507.2000000001863}]","1507.7000000001863","","","","","","","","","","","","","","","","","","","","","","","","",""
"pit-comprehension","62","2589316","0.0-2.0-22.0-0.0","battery-v0.2","","","6509.5999999996275","[""0""]","0","23","855","750","","","","","","","","","","","","","","","","","","","",""
"pit-instructions","63","2593932","0.0-2.0-22.0-1.0","battery-v0.2","","[{""page_index"":0,""viewing_time"":4593.5}]","4593.899999999907","","","","","","","","","","","","","","","","","","","","","","","","",""
"pit-comprehension","64","2602373","0.0-2.0-23.0-0.0","battery-v0.2","","","8438","[""True""]","0","23","855","750","","","","","","","","","","","","","","","","","","","",""
"pit-instructions","65","2604341","0.0-2.0-23.0-1.0","battery-v0.2","","[{""page_index"":0,""viewing_time"":1945.3999999999069}]","1945.8000000002794","","","","","","","","","","","","","","","","","","","","","","","","",""
"pit-comprehension","66","2643538","0.0-2.0-24.0-0.0","battery-v0.2","","","39193.30000000028","[""True""]","0","23","855","750","","","","","","","","","","","","","","","","","","","",""
"pit-instructions","67","2645658","0.0-2.0-24.0-1.0","battery-v0.2","","[{""page_index"":0,""viewing_time"":2091.100000000093}]","2091.5","","","","","","","","","","","","","","","","","","","","","","","","",""
"pit-comprehension","68","2652883","0.0-2.0-25.0-0.0","battery-v0.2","","","7222.300000000279","[""True""]","0","23","855","750","","","","","","","","","","","","","","","","","","","",""
"pit-instructions","69","2655355","0.0-2.0-25.0-1.0","battery-v0.2","","[{""page_index"":0,""viewing_time"":2447.399999999907}]","2448","","","","","","","","","","","","","","","","","","","","","","","","",""
"pit-comprehension","70","2660564","0.0-2.0-26.0-0.0","battery-v0.2","","","5205.800000000279","[""False""]","0","23","855","750","","","","","","","","","","","","","","","","","","","",""
"pit-instructions","71","2662580","0.0-2.0-26.0-1.0","battery-v0.2","","[{""page_index"":0,""viewing_time"":1992.8999999999069}]","1993.3999999999069","","","","","","","","","","","","","","","","","","","","","","","","",""
"pit-instructions","72","2678549","0.0-3.0","battery-v0.2","","[{""page_index"":0,""viewing_time"":3669.600000000093},{""page_index"":1,""viewing_time"":5256.399999999907},{""page_index"":2,""viewing_time"":7040.800000000279}]","15967.200000000186","","","","","","","","","","","","","","","","","","","","","","","","",""
"pit-trial","73","2681952","0.0-4.0","battery-v0.2","","","531","","","23","855","750","&#9752;","elianto","#f73b6a7A"," "," ","1","-10","[1383.7000000001863]","1","1","","","855","1","3","3","lose","go","1","[]"
"pit-trial","74","2685488","0.0-5.0","battery-v0.2","","","671.2999999998137","","","23","855","750","&#9733;","elianto","#3366ff99","-1"," ","0","0","[1522.5]","1","1","","","855","2","2","2","win","no-go","0","0"
"pit-trial","75","2689183","0.0-6.0","battery-v0.2","","","827.5999999996275","","","23","855","750","&#9730;","elianto","#3366ff99"," "," ","1","+10","[1678.5]","1","1","","","855","3","1","1","win","go","0","0"
"pit-trial","76","2694043","0.0-7.0","battery-v0.2","","","-1","","","23","855","750","&#9728;","elianto","#f73b6a7A","-1","-1","1","0","[]","0","1","","","855","4","0","4","lose","no-go","0","0"
"pit-trial","77","2698918","0.0-8.0","battery-v0.2","","","-1","","","23","855","750","&#9728;","elianto","#f73b6a7A","-1","-1","1","0","[]","0","1","","","855","5","0","4","lose","no-go","0","0"
"pit-trial","78","2702610","0.0-9.0","battery-v0.2","","","827.2999999998137","","","23","855","750","&#9730;","elianto","#3366ff99"," "," ","1","+10","[1680.1999999997206]","1","1","","","855","6","1","1","win","go","0","0"
"pit-trial","79","2707482","0.0-10.0","battery-v0.2","","","-1","","","23","855","750","&#9733;","elianto","#3366ff99","-1","-1","1","+10","[]","0","1","","","855","7","2","2","win","no-go","0","0"
"pit-trial","80","2710900","0.0-11.0","battery-v0.2","","","563.6000000000931","","","23","855","750","&#9752;","elianto","#f73b6a7A"," "," ","1","0","[1414.7000000001863]","1","1","","","855","8","3","3","lose","go","0","0"
"pit-trial","81","2714332","0.0-12.0","battery-v0.2","","","578.5999999996275","","","23","855","750","&#9752;","elianto","#f73b6a7A"," "," ","1","0","[1428.7999999998137]","1","1","","","855","9","3","3","lose","go","0","0"
"pit-trial","82","2718159","0.0-13.0","battery-v0.2","","","973.8999999999069","","","23","855","750","&#9733;","elianto","#3366ff99","-1"," ","0","+10","[1824.7000000001863]","1","1","","","855","10","2","2","win","no-go","1","0"
"pit-trial","83","2723012","0.0-14.0","battery-v0.2","","","-1","","","23","855","750","&#9728;","elianto","#f73b6a7A","-1","-1","1","0","[]","0","1","","","855","11","0","4","lose","no-go","0","0"
"pit-trial","84","2726767","0.0-15.0","battery-v0.2","","","901.5","","","23","855","750","&#9730;","elianto","#3366ff99"," "," ","1","0","[1752.3000000002794]","1","1","","","855","12","1","1","win","go","1","0"
"pit-trial","85","2731620","0.0-16.0","battery-v0.2","","","-1","","","23","855","750","&#9728;","elianto","#f73b6a7A","-1","-1","1","0","[]","0","1","","","855","13","0","4","lose","no-go","0","0"
"pit-trial","86","2735508","0.0-17.0","battery-v0.2","","","1035.3999999999069","","","23","855","750","&#9752;","elianto","#f73b6a7A"," "," ","1","0","[1885.6000000000931]","1","1","","","855","14","3","3","lose","go","0","0"
"pit-trial","87","2739125","0.0-18.0","battery-v0.2","","","763.6000000000931","","","23","855","750","&#9730;","elianto","#3366ff99"," "," ","1","+10","[1613.7999999998137]","1","1","","","855","15","1","1","win","go","0","0"
"pit-trial","88","2742778","0.0-19.0","battery-v0.2","","","799.3999999999069","","","23","855","750","&#9733;","elianto","#3366ff99","-1"," ","0","0","[1649.8999999999069]","1","1","","","855","16","2","2","win","no-go","0","0"
"pit-trial","89","2746416","0.0-20.0","battery-v0.2","","","785","","","23","855","750","&#9733;","elianto","#3366ff99","-1"," ","0","0","[1635.4000000003725]","1","1","","","855","17","2","2","win","no-go","0","0"
"pit-trial","90","2750113","0.0-21.0","battery-v0.2","","","844.5999999996275","","","23","855","750","&#9752;","elianto","#f73b6a7A"," "," ","1","0","[1694.7999999998137]","1","1","","","855","18","3","3","lose","go","0","0"
"pit-trial","91","2754089","0.0-22.0","battery-v0.2","","","1122.5","","","23","855","750","&#9728;","elianto","#f73b6a7A","-1"," ","0","-10","[1973.3000000002794]","1","1","","","855","19","0","4","lose","no-go","0","0"
"pit-trial","92","2758329","0.0-23.0","battery-v0.2","","","1386.1000000000931","","","23","855","750","&#9730;","elianto","#3366ff99"," "," ","1","+10","[2237]","1","1","","","855","20","1","1","win","go","0","0"
"pit-instructions","93","3688069","0.0-24.0","battery-v0.2","","[{""page_index"":0,""viewing_time"":748879.3999999994},{""page_index"":1,""viewing_time"":180858.90000000037}]","929738.7000000002","","","","","","","","","","","","","","","","","","","","","","","","",""
"pit-trial","94","3692051","0.0-25.0","battery-v0.2","","","1127.2000000001863","","","23","855","750","k","elianto","#3366ff99"," "," ","1","+10","[1978.300000000745]","1","2","","","855","21","3","1","win","go","0","0"
"pit-trial","95","3695571","0.0-26.0","battery-v0.2","","","666.3000000007451","","","23","855","750","d","elianto","#f73b6a7A","-1"," ","0","-10","[1517.300000000745]","1","2","","","855","22","2","4","lose","no-go","0","0"
"pit-trial","96","3698999","0.0-27.0","battery-v0.2","","","560.8999999994412","","","23","855","750","v","elianto","#3366ff99","-1"," ","0","0","[1412.2999999998137]","1","2","","","855","23","0","2","win","no-go","0","0"
"pit-trial","97","3703853","0.0-28.0","battery-v0.2","","","-1","","","23","855","750","j","elianto","#f73b6a7A"," ","-1","0","-10","[]","0","2","","","855","24","1","3","lose","go","0","0"
"pit-trial","98","3707796","0.0-29.0","battery-v0.2","","","1077.5999999996275","","","23","855","750","k","elianto","#3366ff99"," "," ","1","0","[1928.699999999255]","1","2","","","855","25","3","1","win","go","1","0"
"pit-trial","99","3711181","0.0-30.0","battery-v0.2","","","531.3000000007451","","","23","855","750","v","elianto","#3366ff99","-1"," ","0","+10","[1382.4000000003725]","1","2","","","855","26","0","2","win","no-go","1","0"
"pit-trial","100","3716035","0.0-31.0","battery-v0.2","","","-1","","","23","855","750","d","elianto","#f73b6a7A","-1","-1","1","0","[]","0","2","","","855","27","2","4","lose","no-go","0","0"
"pit-trial","101","3719278","0.0-32.0","battery-v0.2","","","389","","","23","855","750","j","elianto","#f73b6a7A"," "," ","1","0","[1239.199999999255]","1","2","","","855","28","1","3","lose","go","0","0"
"pit-trial","102","3724131","0.0-33.0","battery-v0.2","","","-1","","","23","855","750","d","elianto","#f73b6a7A","-1","-1","1","0","[]","0","2","","","855","29","2","4","lose","no-go","0","0"
"pit-trial","103","3727744","0.0-34.0","battery-v0.2","","","759.8000000007451","","","23","855","750","j","elianto","#f73b6a7A"," "," ","1","0","[1610.300000000745]","1","2","","","855","30","1","3","lose","go","0","0"
"pit-trial","104","3731076","0.0-35.0","battery-v0.2","","","478.79999999981374","","","23","855","750","v","elianto","#3366ff99","-1"," ","0","0","[1329.2999999998137]","1","2","","","855","31","0","2","win","no-go","0","0"
"pit-trial","105","3735647","0.0-36.0","battery-v0.2","","","1717","","","23","855","750","k","elianto","#3366ff99"," "," ","1","+10","[2567.2000000001863]","1","2","","","855","32","3","1","win","go","0","0"
"pit-trial","106","3739811","0.0-37.0","battery-v0.2","","","1311.5","","","23","855","750","k","elianto","#3366ff99"," "," ","1","+10","[2162.0999999996275]","1","2","","","855","33","3","1","win","go","0","0"
"pit-trial","107","3743239","0.0-38.0","battery-v0.2","","","573.2999999998137","","","23","855","750","v","elianto","#3366ff99","-1"," ","0","0","[1423.7999999998137]","1","2","","","855","34","0","2","win","no-go","0","0"
"pit-trial","108","3746704","0.0-39.0","battery-v0.2","","","611.9000000003725","","","23","855","750","j","elianto","#f73b6a7A"," "," ","1","-10","[1462.300000000745]","1","2","","","855","35","1","3","lose","go","1","0"
"pit-trial","109","3751558","0.0-40.0","battery-v0.2","","","-1","","","23","855","750","d","elianto","#f73b6a7A","-1","-1","1","0","[]","0","2","","","855","36","2","4","lose","no-go","0","0"
"pit-trial","110","3755314","0.0-41.0","battery-v0.2","","","903.5999999996275","","","23","855","750","j","elianto","#f73b6a7A"," "," ","1","0","[1753.8999999994412]","1","2","","","855","37","1","3","lose","go","0","0"
"pit-trial","111","3760168","0.0-42.0","battery-v0.2","","","-1","","","23","855","750","d","elianto","#f73b6a7A","-1","-1","1","0","[]","0","2","","","855","38","2","4","lose","no-go","0","0"
"pit-trial","112","3765021","0.0-43.0","battery-v0.2","","","-1","","","23","855","750","v","elianto","#3366ff99","-1","-1","1","+10","[]","0","2","","","855","39","0","2","win","no-go","0","0"
"pit-trial","113","3768413","0.0-44.0","battery-v0.2","","","539.5","","","23","855","750","k","elianto","#3366ff99"," "," ","1","+10","[1389.9000000003725]","1","2","","","855","40","3","1","win","go","0","0"
"pit-trial","114","3771904","0.0-45.0","battery-v0.2","","","636.2000000001863","","","23","855","750","j","elianto","#f73b6a7A"," "," ","1","0","[1486.5]","1","2","","","855","41","1","3","lose","go","0","0"
"pit-trial","115","3776766","0.0-46.0","battery-v0.2","","","-1","","","23","855","750","d","elianto","#f73b6a7A","-1","-1","1","0","[]","0","2","","","855","42","2","4","lose","no-go","0","0"
"pit-trial","116","3780213","0.0-47.0","battery-v0.2","","","593.7000000001863","","","23","855","750","k","elianto","#3366ff99"," "," ","1","0","[1444]","1","2","","","855","43","3","1","win","go","1","0"
"pit-trial","117","3785066","0.0-48.0","battery-v0.2","","","-1","","","23","855","750","v","elianto","#3366ff99","-1","-1","1","+10","[]","0","2","","","855","44","0","2","win","no-go","0","0"
"pit-trial","118","3788681","0.0-49.0","battery-v0.2","","","761.3000000007451","","","23","855","750","k","elianto","#3366ff99"," "," ","1","+10","[1611.4000000003725]","1","2","","","855","45","3","1","win","go","0","0"
"pit-trial","119","3793534","0.0-50.0","battery-v0.2","","","-1","","","23","855","750","d","elianto","#f73b6a7A","-1","-1","1","-10","[]","0","2","","","855","46","2","4","lose","no-go","1","0"
"pit-trial","120","3798389","0.0-51.0","battery-v0.2","","","-1","","","23","855","750","v","elianto","#3366ff99","-1","-1","1","+10","[]","0","2","","","855","47","0","2","win","no-go","0","0"
"pit-trial","121","3802184","0.0-52.0","battery-v0.2","","","941.7000000001863","","","23","855","750","j","elianto","#f73b6a7A"," "," ","1","-10","[1792.6000000005588]","1","2","","","855","48","1","3","lose","go","1","0"
"pit-trial","122","3805758","0.0-53.0","battery-v0.2","","","721.7000000001863","","","23","855","750","j","elianto","#f73b6a7A"," "," ","1","0","[1572.1000000005588]","1","2","","","855","49","1","3","lose","go","0","0"
"pit-trial","123","3809375","0.0-54.0","battery-v0.2","","","763.2999999998137","","","23","855","750","k","elianto","#3366ff99"," "," ","1","+10","[1613.7000000001863]","1","2","","","855","50","3","1","win","go","0","0"
"pit-trial","124","3814228","0.0-55.0","battery-v0.2","","","-1","","","23","855","750","d","elianto","#f73b6a7A","-1","-1","1","-10","[]","0","2","","","855","51","2","4","lose","no-go","1","0"
"pit-trial","125","3819081","0.0-56.0","battery-v0.2","","","-1","","","23","855","750","v","elianto","#3366ff99","-1","-1","1","+10","[]","0","2","","","855","52","0","2","win","no-go","0","0"
"pit-trial","126","3822657","0.0-57.0","battery-v0.2","","","722.1999999992549","","","23","855","750","j","elianto","#f73b6a7A"," "," ","1","0","[1573.3999999994412]","1","2","","","855","53","1","3","lose","go","0","0"
"pit-trial","127","3826322","0.0-58.0","battery-v0.2","","","811.4000000003725","","","23","855","750","e","elianto","#f73b6a7A"," "," ","1","0","[1661.7999999998137]","1","2","","","855","54","4","3","lose","go","0","0"
"pit-trial","128","3830058","0.0-59.0","battery-v0.2","","","881.7000000001863","","","23","855","750","w","elianto","#f73b6a7A","-1"," ","0","-10","[1732.2000000001863]","1","2","","","855","55","5","4","lose","no-go","0","0"
"pit-trial","129","3834910","0.0-60.0","battery-v0.2","","","-1","","","23","855","750","d","elianto","#f73b6a7A","-1","-1","1","0","[]","0","2","","","855","56","2","4","lose","no-go","0","0"
"pit-trial","130","3839763","0.0-61.0","battery-v0.2","","","-1","","","23","855","750","d","elianto","#f73b6a7A","-1","-1","1","0","[]","0","2","","","855","57","2","4","lose","no-go","0","0"
"pit-trial","131","3844642","0.0-62.0","battery-v0.2","","","-1","","","23","855","750","e","elianto","#f73b6a7A"," ","-1","0","-10","[3456.2000000001863,3964.899999999441]","2","2","","","855","58","4","3","lose","go","0","0"
"pit-trial","132","3849495","0.0-63.0","battery-v0.2","","","-1","","","23","855","750","w","elianto","#f73b6a7A","-1","-1","1","-10","[]","0","2","","","855","59","5","4","lose","no-go","1","0"
"pit-trial","133","3853081","0.0-64.0","battery-v0.2","","","731.7000000001863","","","23","855","750","j","elianto","#f73b6a7A"," "," ","1","-10","[1582.4000000003725]","1","2","","","855","60","1","3","lose","go","1","0"
"pit-trial","134","3857204","0.0-65.0","battery-v0.2","","","1269.2000000001863","","","23","855","750","e","elianto","#f73b6a7A"," "," ","1","0","[2119.5999999996275]","1","2","","","855","61","4","3","lose","go","0","0"
"pit-trial","135","3860925","0.0-66.0","battery-v0.2","","","867.7000000001863","","","23","855","750","s","elianto","#3366ff99","-1"," ","0","0","[1718.7000000001863]","1","2","","","855","62","6","2","win","no-go","0","0"
"pit-trial","136","3865183","0.0-67.0","battery-v0.2","","","1404.2999999998137","","","23","855","750","w","elianto","#f73b6a7A","-1"," ","0","-10","[2255.100000000559]","1","2","","","855","63","5","4","lose","no-go","0","0"
"pit-trial","137","3870036","0.0-68.0","battery-v0.2","","","-1","","","23","855","750","d","elianto","#f73b6a7A","-1","-1","1","0","[]","0","2","","","855","64","2","4","lose","no-go","0","0"
"pit-trial","138","3874889","0.0-69.0","battery-v0.2","","","-1","","","23","855","750","w","elianto","#f73b6a7A","-1","-1","1","0","[]","0","2","","","855","65","5","4","lose","no-go","0","0"
"pit-trial","139","3879743","0.0-70.0","battery-v0.2","","","-1","","","23","855","750","e","elianto","#f73b6a7A"," ","-1","0","-10","[]","0","2","","","855","66","4","3","lose","go","0","0"
"pit-trial","140","3884603","0.0-71.0","battery-v0.2","","","-1","","","23","855","750","s","elianto","#3366ff99","-1","-1","1","+10","[]","0","2","","","855","67","6","2","win","no-go","0","0"
"pit-trial","141","3889456","0.0-72.0","battery-v0.2","","","-1","","","23","855","750","d","elianto","#f73b6a7A","-1","-1","1","0","[]","0","2","","","855","68","2","4","lose","no-go","0","0"
"pit-trial","142","3894310","0.0-73.0","battery-v0.2","","","-1","","","23","855","750","s","elianto","#3366ff99","-1","-1","1","0","[]","0","2","","","855","69","6","2","win","no-go","1","0"
"pit-trial","143","3898184","0.0-74.0","battery-v0.2","","","1019.7999999998137","","","23","855","750","p","elianto","#3366ff99"," "," ","1","+10","[1870.2999999998137]","1","2","","","855","70","7","1","win","go","0","0"
"pit-trial","144","3903039","0.0-75.0","battery-v0.2","","","-1","","","23","855","750","w","elianto","#f73b6a7A","-1","-1","1","0","[]","0","2","","","855","71","5","4","lose","no-go","0","0"
"pit-trial","145","3907892","0.0-76.0","battery-v0.2","","","-1","","","23","855","750","e","elianto","#f73b6a7A"," ","-1","0","0","[]","0","2","","","855","72","4","3","lose","go","1","0"
"pit-trial","146","3912746","0.0-77.0","battery-v0.2","","","-1","","","23","855","750","e","elianto","#f73b6a7A"," ","-1","0","-10","[]","0","2","","","855","73","4","3","lose","go","0","0"
"pit-trial","147","3917599","0.0-78.0","battery-v0.2","","","-1","","","23","855","750","w","elianto","#f73b6a7A","-1","-1","1","0","[]","0","2","","","855","74","5","4","lose","no-go","0","0"
"pit-trial","148","3921494","0.0-79.0","battery-v0.2","","","1041","","","23","855","750","p","elianto","#3366ff99"," "," ","1","0","[1891.3999999994412]","1","2","","","855","75","7","1","win","go","1","0"
"pit-trial","149","3926347","0.0-80.0","battery-v0.2","","","-1","","","23","855","750","s","elianto","#3366ff99","-1","-1","1","+10","[]","0","2","","","855","76","6","2","win","no-go","0","0"
"pit-trial","150","3931202","0.0-81.0","battery-v0.2","","","-1","","","23","855","750","w","elianto","#f73b6a7A","-1","-1","1","0","[]","0","2","","","855","77","5","4","lose","no-go","0","0"
"pit-trial","151","3936055","0.0-82.0","battery-v0.2","","","-1","","","23","855","750","s","elianto","#3366ff99","-1","-1","1","0","[3494.899999999441]","1","2","","","855","78","6","2","win","no-go","1","0"
"pit-trial","152","3940910","0.0-83.0","battery-v0.2","","","-1","","","23","855","750","e","elianto","#f73b6a7A"," ","-1","0","-10","[]","0","2","","","855","79","4","3","lose","go","0","0"
"pit-trial","153","3944838","0.0-84.0","battery-v0.2","","","1075.3999999994412","","","23","855","750","p","elianto","#3366ff99"," "," ","1","+10","[1926.199999999255]","1","2","","","855","80","7","1","win","go","0","0"
"pit-trial","154","3948998","0.0-85.0","battery-v0.2","","","1306.9000000003725","","","23","855","750","e","elianto","#f73b6a7A"," "," ","1","-10","[2157]","1","2","","","855","81","4","3","lose","go","1","0"
"pit-trial","155","3952672","0.0-86.0","battery-v0.2","","","819.6000000005588","","","23","855","750","p","elianto","#3366ff99"," "," ","1","+10","[1670]","1","2","","","855","82","7","1","win","go","0","0"
"pit-trial","156","3957524","0.0-87.0","battery-v0.2","","","-1","","","23","855","750","w","elianto","#f73b6a7A","-1","-1","1","-10","[]","0","2","","","855","83","5","4","lose","no-go","1","0"
"pit-trial","157","3962377","0.0-88.0","battery-v0.2","","","-1","","","23","855","750","s","elianto","#3366ff99","-1","-1","1","+10","[]","0","2","","","855","84","6","2","win","no-go","0","0"
"pit-trial","158","3967230","0.0-89.0","battery-v0.2","","","-1","","","23","855","750","w","elianto","#f73b6a7A","-1","-1","1","0","[]","0","2","","","855","85","5","4","lose","no-go","0","0"
"pit-trial","159","3970977","0.0-90.0","battery-v0.2","","","892.2000000001863","","","23","855","750","p","elianto","#3366ff99"," "," ","1","+10","[1743.5999999996275]","1","2","","","855","86","7","1","win","go","0","0"
"pit-trial","160","3975832","0.0-91.0","battery-v0.2","","","-1","","","23","855","750","s","elianto","#3366ff99","-1","-1","1","0","[]","0","2","","","855","87","6","2","win","no-go","1","0"
"pit-trial","161","3980306","0.0-92.0","battery-v0.2","","","1621.4000000003725","","","23","855","750","e","elianto","#f73b6a7A"," "," ","1","0","[2471.7000000001863]","1","2","","","855","88","4","3","lose","go","0","0"
"pit-trial","162","3983986","0.0-93.0","battery-v0.2","","","826.7000000001863","","","23","855","750","p","elianto","#3366ff99"," "," ","1","0","[1677]","1","2","","","855","89","7","1","win","go","1","0"
"pit-trial","163","3988399","0.0-94.0","battery-v0.2","","","1559.1000000005588","","","23","855","750","e","elianto","#f73b6a7A"," "," ","1","0","[2410.300000000745]","1","2","","","855","90","4","3","lose","go","0","0"
"pit-trial","164","3992329","0.0-95.0","battery-v0.2","","","1076.8999999994412","","","23","855","750","s","elianto","#3366ff99","-1"," ","0","0","[1927]","1","2","","","855","91","6","2","win","no-go","0","0"
"pit-trial","165","3997184","0.0-96.0","battery-v0.2","","","-1","","","23","855","750","w","elianto","#f73b6a7A","-1","-1","1","0","[]","0","2","","","855","92","5","4","lose","no-go","0","0"
"pit-trial","166","4001410","0.0-97.0","battery-v0.2","","","1372.5","","","23","855","750","e","elianto","#f73b6a7A"," "," ","1","0","[2222.5999999996275]","1","2","","","855","93","4","3","lose","go","0","0"
"pit-trial","167","4005279","0.0-98.0","battery-v0.2","","","1015.5999999996275","","","23","855","750","g","elianto","#3366ff99"," "," ","1","+10","[1866.0999999996275]","1","2","","","855","94","8","1","win","go","0","0"
"pit-trial","168","4009004","0.0-99.0","battery-v0.2","","","871.4000000003725","","","23","855","750","p","elianto","#3366ff99"," "," ","1","+10","[1722]","1","2","","","855","95","7","1","win","go","0","0"
"pit-trial","169","4013857","0.0-100.0","battery-v0.2","","","-1","","","23","855","750","s","elianto","#3366ff99","-1","-1","1","+10","[]","0","2","","","855","96","6","2","win","no-go","0","0"
"pit-trial","170","4017859","0.0-101.0","battery-v0.2","","","1148.2000000001863","","","23","855","750","p","elianto","#3366ff99"," "," ","1","+10","[1999.0999999996275]","1","2","","","855","97","7","1","win","go","0","0"
"pit-trial","171","4022081","0.0-102.0","battery-v0.2","","","1368.5","","","23","855","750","e","elianto","#f73b6a7A"," "," ","1","0","[2219.4000000003725]","1","2","","","855","98","4","3","lose","go","0","0"
"pit-trial","172","4026934","0.0-103.0","battery-v0.2","","","-1","","","23","855","750","s","elianto","#3366ff99","-1","-1","1","+10","[]","0","2","","","855","99","6","2","win","no-go","0","0"
"pit-trial","173","4030554","0.0-104.0","battery-v0.2","","","765.6000000005588","","","23","855","750","g","elianto","#3366ff99"," "," ","1","+10","[1616.1000000005588]","1","2","","","855","100","8","1","win","go","0","0"
"pit-trial","174","4035407","0.0-105.0","battery-v0.2","","","-1","","","23","855","750","s","elianto","#3366ff99","-1","-1","1","0","[]","0","2","","","855","101","6","2","win","no-go","1","0"
"pit-trial","175","4039022","0.0-106.0","battery-v0.2","","","761.5","","","23","855","750","a","elianto","#3366ff99","-1"," ","0","+10","[1612.3999999994412]","1","2","","","855","102","9","2","win","no-go","1","0"
"pit-trial","176","4042635","0.0-107.0","battery-v0.2","","","760.7000000001863","","","23","855","750","p","elianto","#3366ff99"," "," ","1","+10","[1610.5999999996275]","1","2","","","855","103","7","1","win","go","0","0"
"pit-trial","177","4046367","0.0-108.0","battery-v0.2","","","877.8999999994412","","","23","855","750","g","elianto","#3366ff99"," "," ","1","+10","[1728.2000000001863]","1","2","","","855","104","8","1","win","go","0","0"
"pit-trial","178","4050263","0.0-109.0","battery-v0.2","","","1041.5","","","23","855","750","a","elianto","#3366ff99","-1"," ","0","0","[1892.2000000001863]","1","2","","","855","105","9","2","win","no-go","0","0"
"pit-trial","179","4055116","0.0-110.0","battery-v0.2","","","-1","","","23","855","750","s","elianto","#3366ff99","-1","-1","1","+10","[]","0","2","","","855","106","6","2","win","no-go","0","0"
"pit-trial","180","4058822","0.0-111.0","battery-v0.2","","","851.3000000007451","","","23","855","750","p","elianto","#3366ff99"," "," ","1","0","[1702.800000000745]","1","2","","","855","107","7","1","win","go","1","0"
"pit-trial","181","4062449","0.0-112.0","battery-v0.2","","","773.7000000001863","","","23","855","750","g","elianto","#3366ff99"," "," ","1","+10","[1624]","1","2","","","855","108","8","1","win","go","0","0"
"pit-trial","182","4067302","0.0-113.0","battery-v0.2","","","-1","","","23","855","750","l","elianto","#f73b6a7A"," ","-1","0","-10","[]","0","2","","","855","109","10","3","lose","go","0","0"
"pit-trial","183","4070932","0.0-114.0","battery-v0.2","","","776.5","","","23","855","750","a","elianto","#3366ff99","-1"," ","0","0","[1626.4000000003725]","1","2","","","855","110","9","2","win","no-go","0","0"
"pit-trial","184","4074534","0.0-115.0","battery-v0.2","","","748.8000000007451","","","23","855","750","g","elianto","#3366ff99"," "," ","1","+10","[1599.6000000005588]","1","2","","","855","111","8","1","win","go","0","0"
"pit-trial","185","4078359","0.0-116.0","battery-v0.2","","","970.5","","","23","855","750","u","elianto","#f73b6a7A","-1"," ","0","-10","[1821.9000000003725]","1","2","","","855","112","11","4","lose","no-go","0","0"
"pit-trial","186","4082102","0.0-117.0","battery-v0.2","","","888.4000000003725","","","23","855","750","g","elianto","#3366ff99"," "," ","1","+10","[1740.5]","1","2","","","855","113","8","1","win","go","0","0"
"pit-trial","187","4085879","0.0-118.0","battery-v0.2","","","924.3999999994412","","","23","855","750","l","elianto","#f73b6a7A"," "," ","1","0","[1774.5999999996275]","1","2","","","855","114","10","3","lose","go","0","0"
"pit-trial","188","4090738","0.0-119.0","battery-v0.2","","","-1","","","23","855","750","u","elianto","#f73b6a7A","-1","-1","1","0","[]","0","2","","","855","115","11","4","lose","no-go","0","0"
"pit-trial","189","4094450","0.0-120.0","battery-v0.2","","","857.6000000005588","","","23","855","750","a","elianto","#3366ff99","-1"," ","0","0","[1708.5]","1","2","","","855","116","9","2","win","no-go","0","0"
"pit-trial","190","4097963","0.0-121.0","battery-v0.2","","","658.6999999992549","","","23","855","750","a","elianto","#3366ff99","-1"," ","0","0","[1509.5]","1","2","","","855","117","9","2","win","no-go","0","0"
"pit-trial","191","4102817","0.0-122.0","battery-v0.2","","","-1","","","23","855","750","u","elianto","#f73b6a7A","-1","-1","1","0","[]","0","2","","","855","118","11","4","lose","no-go","0","0"
"pit-trial","192","4106697","0.0-123.0","battery-v0.2","","","1026.5","","","23","855","750","g","elianto","#3366ff99"," "," ","1","+10","[1877.5]","1","2","","","855","119","8","1","win","go","0","0"
"pit-trial","193","4111564","0.0-124.0","battery-v0.2","","","-1","","","23","855","750","l","elianto","#f73b6a7A"," ","-1","0","-10","[3494.7999999998137,3886,4148.699999999255,4370.799999999814,4576.0999999996275,4797]","6","2","","","855","120","10","3","lose","go","0","0"
"pit-trial","194","4116417","0.0-125.0","battery-v0.2","","","-1","","","23","855","750","u","elianto","#f73b6a7A","-1","-1","1","0","[]","0","2","","","855","121","11","4","lose","no-go","0","0"
"pit-trial","195","4120003","0.0-126.0","battery-v0.2","","","731.5","","","23","855","750","g","elianto","#3366ff99"," "," ","1","0","[1582.2999999998137]","1","2","","","855","122","8","1","win","go","1","0"
"pit-trial","196","4124205","0.0-127.0","battery-v0.2","","","1349","","","23","855","750","a","elianto","#3366ff99","-1"," ","0","0","[2199.7999999998137]","1","2","","","855","123","9","2","win","no-go","0","0"
"pit-trial","197","4127958","0.0-128.0","battery-v0.2","","","900.7000000001863","","","23","855","750","l","elianto","#f73b6a7A"," "," ","1","0","[1750.7999999998137]","1","2","","","855","124","10","3","lose","go","0","0"
"pit-trial","198","4131695","0.0-129.0","battery-v0.2","","","883.5","","","23","855","750","l","elianto","#f73b6a7A"," "," ","1","-10","[1734.2999999998137]","1","2","","","855","125","10","3","lose","go","1","0"
"pit-trial","199","4136548","0.0-130.0","battery-v0.2","","","-1","","","23","855","750","u","elianto","#f73b6a7A","-1","-1","1","-10","[]","0","2","","","855","126","11","4","lose","no-go","1","0"
"pit-trial","200","4141401","0.0-131.0","battery-v0.2","","","-1","","","23","855","750","a","elianto","#3366ff99","-1","-1","1","+10","[]","0","2","","","855","127","9","2","win","no-go","0","0"
"pit-trial","201","4145083","0.0-132.0","battery-v0.2","","","828.5","","","23","855","750","g","elianto","#3366ff99"," "," ","1","0","[1679.2999999998137]","1","2","","","855","128","8","1","win","go","1","0"
"pit-trial","202","4149940","0.0-133.0","battery-v0.2","","","-1","","","23","855","750","u","elianto","#f73b6a7A","-1","-1","1","-10","[]","0","2","","","855","129","11","4","lose","no-go","1","0"
"pit-trial","203","4154794","0.0-134.0","battery-v0.2","","","-1","","","23","855","750","a","elianto","#3366ff99","-1","-1","1","+10","[]","0","2","","","855","130","9","2","win","no-go","0","0"
"pit-trial","204","4158513","0.0-135.0","battery-v0.2","","","864.5999999996275","","","23","855","750","g","elianto","#3366ff99"," "," ","1","+10","[1714.800000000745]","1","2","","","855","131","8","1","win","go","0","0"
"pit-trial","205","4162757","0.0-136.0","battery-v0.2","","","1390.9000000003725","","","23","855","750","l","elianto","#f73b6a7A"," "," ","1","-10","[2241.9000000003725]","1","2","","","855","132","10","3","lose","go","1","0"
"pit-trial","206","4167611","0.0-137.0","battery-v0.2","","","-1","","","23","855","750","l","elianto","#f73b6a7A"," ","-1","0","-10","[]","0","2","","","855","133","10","3","lose","go","0","0"
"pit-trial","207","4171196","0.0-138.0","battery-v0.2","","","731.0999999996275","","","23","855","750","g","elianto","#3366ff99"," "," ","1","+10","[1582.5]","1","2","","","855","134","8","1","win","go","0","0"
"pit-trial","208","4176052","0.0-139.0","battery-v0.2","","","-1","","","23","855","750","u","elianto","#f73b6a7A","-1","-1","1","0","[]","0","2","","","855","135","11","4","lose","no-go","0","0"
"pit-trial","209","4180905","0.0-140.0","battery-v0.2","","","-1","","","23","855","750","a","elianto","#3366ff99","-1","-1","1","+10","[]","0","2","","","855","136","9","2","win","no-go","0","0"
"pit-trial","210","4185760","0.0-141.0","battery-v0.2","","","-1","","","23","855","750","u","elianto","#f73b6a7A","-1","-1","1","0","[]","0","2","","","855","137","11","4","lose","no-go","0","0"
"pit-trial","211","4190614","0.0-142.0","battery-v0.2","","","-1","","","23","855","750","a","elianto","#3366ff99","-1","-1","1","+10","[]","0","2","","","855","138","9","2","win","no-go","0","0"
"pit-trial","212","4194609","0.0-143.0","battery-v0.2","","","1141.5","","","23","855","750","g","elianto","#3366ff99"," "," ","1","+10","[1991.9000000003725]","1","2","","","855","139","8","1","win","go","0","0"
"pit-trial","213","4199463","0.0-144.0","battery-v0.2","","","-1","","","23","855","750","l","elianto","#f73b6a7A"," ","-1","0","0","[]","0","2","","","855","140","10","3","lose","go","1","0"
"pit-instructions","214","4594442","0.0-145.0","battery-v0.2","","[{""page_index"":0,""viewing_time"":385992.7999999998},{""page_index"":1,""viewing_time"":8984.600000000559}]","394978","","","","","","","","","","","","","","","","","","","","","","","","",""
"pit-trial","215","4598973","0.0-146.0","battery-v0.2","","","1667.7000000001863","","","23","855","750","x","elianto","#f73b6a7A"," "," ","1","0","[2517.7999999998137]","1","3","","","855","141","3","3","lose","go","0","0"
"pit-trial","216","4602701","0.0-147.0","battery-v0.2","","","874.7999999998137","","","23","855","750","q","elianto","#3366ff99","-1"," ","0","0","[1725.7000000001863]","1","3","","","855","142","0","2","win","no-go","0","0"
"pit-trial","217","4606652","0.0-148.0","battery-v0.2","","","1094.199999999255","","","23","855","750","n","elianto","#3366ff99","-1"," ","0","0","[1946]","1","3","","","855","143","1","2","win","no-go","0","0"
"pit-trial","218","4610232","0.0-149.0","battery-v0.2","","","718.2000000001863","","","23","855","750","f","elianto","#3366ff99"," "," ","1","+10","[1572.1000000005588]","1","3","","","855","144","2","1","win","go","0","0"
"pit-trial","219","4613846","0.0-150.0","battery-v0.2","","","749.3999999994412","","","23","855","750","x","elianto","#f73b6a7A"," "," ","1","-10","[1600.8999999994412]","1","3","","","855","145","3","3","lose","go","1","0"
"pit-trial","220","4618716","0.0-151.0","battery-v0.2","","","-1","","","23","855","750","q","elianto","#3366ff99","-1","-1","1","+10","[]","0","3","","","855","146","0","2","win","no-go","0","0"
"pit-trial","221","4623594","0.0-152.0","battery-v0.2","","","-1","","","23","855","750","n","elianto","#3366ff99","-1","-1","1","0","[]","0","3","","","855","147","1","2","win","no-go","1","0"
"pit-trial","222","4627339","0.0-153.0","battery-v0.2","","","891","","","23","855","750","f","elianto","#3366ff99"," "," ","1","+10","[1741.5999999996275]","1","3","","","855","148","2","1","win","go","0","0"
"pit-trial","223","4630916","0.0-154.0","battery-v0.2","","","724.5","","","23","855","750","q","elianto","#3366ff99","-1"," ","0","+10","[1575]","1","3","","","855","149","0","2","win","no-go","1","0"
"pit-trial","224","4635771","0.0-155.0","battery-v0.2","","","-1","","","23","855","750","n","elianto","#3366ff99","-1","-1","1","+10","[]","0","3","","","855","150","1","2","win","no-go","0","0"
"pit-trial","225","4640625","0.0-156.0","battery-v0.2","","","-1","","","23","855","750","x","elianto","#f73b6a7A"," ","-1","0","0","[]","0","3","","","855","151","3","3","lose","go","1","0"
"pit-trial","226","4644557","0.0-157.0","battery-v0.2","","","1077.7000000001863","","","23","855","750","f","elianto","#3366ff99"," "," ","1","+10","[1928.6000000005588]","1","3","","","855","152","2","1","win","go","0","0"
"pit-trial","227","4648215","0.0-158.0","battery-v0.2","","","805.1000000005588","","","23","855","750","f","elianto","#3366ff99"," "," ","1","+10","[1656]","1","3","","","855","153","2","1","win","go","0","0"
"pit-trial","228","4653076","0.0-159.0","battery-v0.2","","","-1","","","23","855","750","n","elianto","#3366ff99","-1","-1","1","+10","[]","0","3","","","855","154","1","2","win","no-go","0","0"
"pit-trial","229","4657929","0.0-160.0","battery-v0.2","","","-1","","","23","855","750","x","elianto","#f73b6a7A"," ","-1","0","-10","[]","0","3","","","855","155","3","3","lose","go","0","0"
"pit-trial","230","4662784","0.0-161.0","battery-v0.2","","","-1","","","23","855","750","q","elianto","#3366ff99","-1","-1","1","+10","[]","0","3","","","855","156","0","2","win","no-go","0","0"
"pit-trial","231","4667637","0.0-162.0","battery-v0.2","","","-1","","","23","855","750","q","elianto","#3366ff99","-1","-1","1","+10","[]","0","3","","","855","157","0","2","win","no-go","0","0"
"pit-trial","232","4672492","0.0-163.0","battery-v0.2","","","-1","","","23","855","750","n","elianto","#3366ff99","-1","-1","1","0","[]","0","3","","","855","158","1","2","win","no-go","1","0"
"pit-trial","233","4676267","0.0-164.0","battery-v0.2","","","921.6999999992549","","","23","855","750","f","elianto","#3366ff99"," "," ","1","0","[1772.2999999998137]","1","3","","","855","159","2","1","win","go","1","0"
"pit-trial","234","4681122","0.0-165.0","battery-v0.2","","","-1","","","23","855","750","x","elianto","#f73b6a7A"," ","-1","0","-10","[]","0","3","","","855","160","3","3","lose","go","0","0"
"pit-trial","235","4685976","0.0-166.0","battery-v0.2","","","-1","","","23","855","750","q","elianto","#3366ff99","-1","-1","1","+10","[]","0","3","","","855","161","0","2","win","no-go","0","0"
"pit-trial","236","4690845","0.0-167.0","battery-v0.2","","","-1","","","23","855","750","n","elianto","#3366ff99","-1","-1","1","+10","[]","0","3","","","855","162","1","2","win","no-go","0","0"
"pit-trial","237","4694478","0.0-168.0","battery-v0.2","","","778.9000000003725","","","23","855","750","f","elianto","#3366ff99"," "," ","1","0","[1629.7999999998137]","1","3","","","855","163","2","1","win","go","1","0"
"pit-trial","238","4699332","0.0-169.0","battery-v0.2","","","-1","","","23","855","750","x","elianto","#f73b6a7A"," ","-1","0","0","[]","0","3","","","855","164","3","3","lose","go","1","0"
"pit-trial","239","4704185","0.0-170.0","battery-v0.2","","","-1","","","23","855","750","x","elianto","#f73b6a7A"," ","-1","0","-10","[]","0","3","","","855","165","3","3","lose","go","0","0"
"pit-trial","240","4709037","0.0-171.0","battery-v0.2","","","-1","","","23","855","750","q","elianto","#3366ff99","-1","-1","1","+10","[]","0","3","","","855","166","0","2","win","no-go","0","0"
"pit-trial","241","4712769","0.0-172.0","battery-v0.2","","","878.5","","","23","855","750","f","elianto","#3366ff99"," "," ","1","0","[1729.5999999996275]","1","3","","","855","167","2","1","win","go","1","0"
"pit-trial","242","4717623","0.0-173.0","battery-v0.2","","","-1","","","23","855","750","n","elianto","#3366ff99","-1","-1","1","+10","[]","0","3","","","855","168","1","2","win","no-go","0","0"
"pit-trial","243","4721704","0.0-174.0","battery-v0.2","","","1227.2999999998137","","","23","855","750","f","elianto","#3366ff99"," "," ","1","+10","[2077.699999999255]","1","3","","","855","169","2","1","win","go","0","0"
"pit-trial","244","4726557","0.0-175.0","battery-v0.2","","","-1","","","23","855","750","q","elianto","#3366ff99","-1","-1","1","+10","[]","0","3","","","855","170","0","2","win","no-go","0","0"
"pit-trial","245","4731411","0.0-176.0","battery-v0.2","","","-1","","","23","855","750","x","elianto","#f73b6a7A"," ","-1","0","-10","[]","0","3","","","855","171","3","3","lose","go","0","0"
"pit-trial","246","4736265","0.0-177.0","battery-v0.2","","","-1","","","23","855","750","n","elianto","#3366ff99","-1","-1","1","+10","[]","0","3","","","855","172","1","2","win","no-go","0","0"
"pit-trial","247","4740278","0.0-178.0","battery-v0.2","","","1159.6000000005588","","","23","855","750","t","elianto","#f73b6a7A","-1"," ","0","-10","[2010.8999999994412]","1","3","","","855","173","4","4","lose","no-go","0","0"
"pit-trial","248","4745131","0.0-179.0","battery-v0.2","","","-1","","","23","855","750","q","elianto","#3366ff99","-1","-1","1","+10","[]","0","3","","","855","174","0","2","win","no-go","0","0"
"pit-trial","249","4749720","0.0-180.0","battery-v0.2","","","1735","","","23","855","750","b","elianto","#f73b6a7A"," "," ","1","0","[2585.9000000003725]","1","3","","","855","175","5","3","lose","go","0","0"
"pit-trial","250","4753508","0.0-181.0","battery-v0.2","","","934.7999999998137","","","23","855","750","f","elianto","#3366ff99"," "," ","1","0","[1785.1000000005588]","1","3","","","855","176","2","1","win","go","1","0"
"pit-trial","251","4757705","0.0-182.0","battery-v0.2","","","1343.5","","","23","855","750","b","elianto","#f73b6a7A"," "," ","1","-10","[2194.2999999998137]","1","3","","","855","177","5","3","lose","go","1","0"
"pit-trial","252","4762559","0.0-183.0","battery-v0.2","","","-1","","","23","855","750","q","elianto","#3366ff99","-1","-1","1","+10","[]","0","3","","","855","178","0","2","win","no-go","0","0"
"pit-trial","253","4766573","0.0-184.0","battery-v0.2","","","1160.4000000003725","","","23","855","750","t","elianto","#f73b6a7A","-1"," ","0","-10","[2011.0999999996275]","1","3","","","855","179","4","4","lose","no-go","0","0"
"pit-trial","254","4770840","0.0-185.0","battery-v0.2","","","1413.7999999998137","","","23","855","750","f","elianto","#3366ff99"," "," ","1","+10","[2263.9000000003725]","1","3","","","855","180","2","1","win","go","0","0"
"pit-trial","255","4774719","0.0-186.0","battery-v0.2","","","1025.4000000003725","","","23","855","750","f","elianto","#3366ff99"," "," ","1","+10","[1876.1000000005588]","1","3","","","855","181","2","1","win","go","0","0"
"pit-trial","256","4779572","0.0-187.0","battery-v0.2","","","-1","","","23","855","750","b","elianto","#f73b6a7A"," ","-1","0","-10","[4451.5999999996275]","1","3","","","855","182","5","3","lose","go","0","0"
"pit-trial","257","4784425","0.0-188.0","battery-v0.2","","","-1","","","23","855","750","t","elianto","#f73b6a7A","-1","-1","1","0","[]","0","3","","","855","183","4","4","lose","no-go","0","0"
"pit-trial","258","4788359","0.0-189.0","battery-v0.2","","","1079.0999999996275","","","23","855","750","c","elianto","#3366ff99","-1"," ","0","0","[1930]","1","3","","","855","184","6","2","win","no-go","0","0"
"pit-trial","259","4793215","0.0-190.0","battery-v0.2","","","-1","","","23","855","750","t","elianto","#f73b6a7A","-1","-1","1","0","[]","0","3","","","855","185","4","4","lose","no-go","0","0"
"pit-trial","260","4798069","0.0-191.0","battery-v0.2","","","-1","","","23","855","750","c","elianto","#3366ff99","-1","-1","1","+10","[]","0","3","","","855","186","6","2","win","no-go","0","0"
"pit-trial","261","4801949","0.0-192.0","battery-v0.2","","","1026.7999999998137","","","23","855","750","b","elianto","#f73b6a7A"," "," ","1","0","[1877.4000000003725]","1","3","","","855","187","5","3","lose","go","0","0"
"pit-trial","262","4805626","0.0-193.0","battery-v0.2","","","824","","","23","855","750","f","elianto","#3366ff99"," "," ","1","+10","[1674.1000000005588]","1","3","","","855","188","2","1","win","go","0","0"
"pit-trial","263","4809955","0.0-194.0","battery-v0.2","","","1475.7999999998137","","","23","855","750","z","elianto","#f73b6a7A","-1"," ","0","-10","[2326.2000000001863]","1","3","","","855","189","7","4","lose","no-go","0","0"
"pit-trial","264","4814810","0.0-195.0","battery-v0.2","","","-1","","","23","855","750","t","elianto","#f73b6a7A","-1","-1","1","0","[]","0","3","","","855","190","4","4","lose","no-go","0","0"
"pit-trial","265","4819664","0.0-196.0","battery-v0.2","","","-1","","","23","855","750","c","elianto","#3366ff99","-1","-1","1","+10","[]","0","3","","","855","191","6","2","win","no-go","0","0"
"pit-trial","266","4823850","0.0-197.0","battery-v0.2","","","1333.5999999996275","","","23","855","750","b","elianto","#f73b6a7A"," "," ","1","0","[2183.600000000559]","1","3","","","855","192","5","3","lose","go","0","0"
"pit-trial","267","4828703","0.0-198.0","battery-v0.2","","","-1","","","23","855","750","c","elianto","#3366ff99","-1","-1","1","+10","[]","0","3","","","855","193","6","2","win","no-go","0","0"
"pit-trial","268","4832762","0.0-199.0","battery-v0.2","","","1204.7999999998137","","","23","855","750","z","elianto","#f73b6a7A","-1"," ","0","0","[2056.399999999441]","1","3","","","855","194","7","4","lose","no-go","1","0"
"pit-trial","269","4837616","0.0-200.0","battery-v0.2","","","-1","","","23","855","750","t","elianto","#f73b6a7A","-1","-1","1","0","[]","0","3","","","855","195","4","4","lose","no-go","0","0"
"pit-trial","270","4841362","0.0-201.0","battery-v0.2","","","893.5","","","23","855","750","b","elianto","#f73b6a7A"," "," ","1","0","[1743.7999999998137]","1","3","","","855","196","5","3","lose","go","0","0"
"pit-trial","271","4846052","0.0-202.0","battery-v0.2","","","1836.7999999998137","","","23","855","750","z","elianto","#f73b6a7A","-1"," ","0","0","[2687.0999999996275]","1","3","","","855","197","7","4","lose","no-go","1","0"
"pit-trial","272","4849824","0.0-203.0","battery-v0.2","","","919.2000000001863","","","23","855","750","b","elianto","#f73b6a7A"," "," ","1","0","[1769.5]","1","3","","","855","198","5","3","lose","go","0","0"
"pit-trial","273","4853857","0.0-204.0","battery-v0.2","","","1179","","","23","855","750","c","elianto","#3366ff99","-1"," ","0","0","[2029.2000000001863]","1","3","","","855","199","6","2","win","no-go","0","0"
"pit-trial","274","4858710","0.0-205.0","battery-v0.2","","","-1","","","23","855","750","t","elianto","#f73b6a7A","-1","-1","1","0","[]","0","3","","","855","200","4","4","lose","no-go","0","0"
"pit-trial","275","4862679","0.0-206.0","battery-v0.2","","","1116.7000000001863","","","23","855","750","b","elianto","#f73b6a7A"," "," ","1","0","[1966.7999999998137]","1","3","","","855","201","5","3","lose","go","0","0"
"pit-trial","276","4867448","0.0-207.0","battery-v0.2","","","1916.2999999998137","","","23","855","750","z","elianto","#f73b6a7A","-1"," ","0","-10","[2766.5]","1","3","","","855","202","7","4","lose","no-go","0","0"
"pit-trial","277","4872302","0.0-208.0","battery-v0.2","","","-1","","","23","855","750","c","elianto","#3366ff99","-1","-1","1","0","[]","0","3","","","855","203","6","2","win","no-go","1","0"
"pit-trial","278","4877155","0.0-209.0","battery-v0.2","","","-1","","","23","855","750","t","elianto","#f73b6a7A","-1","-1","1","-10","[]","0","3","","","855","204","4","4","lose","no-go","1","0"
"pit-trial","279","4882011","0.0-210.0","battery-v0.2","","","-1","","","23","855","750","z","elianto","#f73b6a7A","-1","-1","1","0","[]","0","3","","","855","205","7","4","lose","no-go","0","0"
"pit-trial","280","4886865","0.0-211.0","battery-v0.2","","","-1","","","23","855","750","c","elianto","#3366ff99","-1","-1","1","+10","[4620.4000000003725]","1","3","","","855","206","6","2","win","no-go","0","0"
"pit-trial","281","4891719","0.0-212.0","battery-v0.2","","","-1","","","23","855","750","t","elianto","#f73b6a7A","-1","-1","1","0","[]","0","3","","","855","207","4","4","lose","no-go","0","0"
"pit-trial","282","4895419","0.0-213.0","battery-v0.2","","","846.9000000003725","","","23","855","750","b","elianto","#f73b6a7A"," "," ","1","0","[1697]","1","3","","","855","208","5","3","lose","go","0","0"
"pit-trial","283","4900282","0.0-214.0","battery-v0.2","","","-1","","","23","855","750","t","elianto","#f73b6a7A","-1","-1","1","0","[]","0","3","","","855","209","4","4","lose","no-go","0","0"
"pit-trial","284","4904491","0.0-215.0","battery-v0.2","","","1355.7000000001863","","","23","855","750","z","elianto","#f73b6a7A","-1"," ","0","-10","[2206.2000000001863]","1","3","","","855","210","7","4","lose","no-go","0","0"
"pit-trial","285","4909345","0.0-216.0","battery-v0.2","","","-1","","","23","855","750","b","elianto","#f73b6a7A"," ","-1","0","0","[]","0","3","","","855","211","5","3","lose","go","1","0"
"pit-trial","286","4914198","0.0-217.0","battery-v0.2","","","-1","","","23","855","750","c","elianto","#3366ff99","-1","-1","1","0","[]","0","3","","","855","212","6","2","win","no-go","1","0"
"pit-trial","287","4918262","0.0-218.0","battery-v0.2","","","1211","","","23","855","750","h","elianto","#f73b6a7A","-1"," ","0","-10","[2061.5999999996275]","1","3","","","855","213","8","4","lose","no-go","0","0"
"pit-trial","288","4923102","0.0-219.0","battery-v0.2","","","1986.699999999255","","","23","855","750","b","elianto","#f73b6a7A"," "," ","1","0","[2837.7000000001863]","1","3","","","855","214","5","3","lose","go","0","0"
"pit-trial","289","4927956","0.0-220.0","battery-v0.2","","","-1","","","23","855","750","z","elianto","#f73b6a7A","-1","-1","1","0","[]","0","3","","","855","215","7","4","lose","no-go","0","0"
"pit-trial","290","4932810","0.0-221.0","battery-v0.2","","","-1","","","23","855","750","c","elianto","#3366ff99","-1","-1","1","+10","[]","0","3","","","855","216","6","2","win","no-go","0","0"
"pit-trial","291","4937663","0.0-222.0","battery-v0.2","","","-1","","","23","855","750","c","elianto","#3366ff99","-1","-1","1","0","[]","0","3","","","855","217","6","2","win","no-go","1","0"
"pit-trial","292","4942518","0.0-223.0","battery-v0.2","","","-1","","","23","855","750","z","elianto","#f73b6a7A","-1","-1","1","0","[]","0","3","","","855","218","7","4","lose","no-go","0","0"
"pit-trial","293","4947162","0.0-224.0","battery-v0.2","","","1780.9000000003725","","","23","855","750","h","elianto","#f73b6a7A","-1"," ","0","-10","[2631.2000000001863]","1","3","","","855","219","8","4","lose","no-go","0","0"
"pit-trial","294","4952030","0.0-225.0","battery-v0.2","","","-1","","","23","855","750","b","elianto","#f73b6a7A"," ","-1","0","-10","[4239.299999999814]","1","3","","","855","220","5","3","lose","go","0","0"
"pit-trial","295","4956430","0.0-226.0","battery-v0.2","","","1545.2999999998137","","","23","855","750","h","elianto","#f73b6a7A","-1"," ","0","-10","[2396.7000000001863]","1","3","","","855","221","8","4","lose","no-go","0","0"
"pit-trial","296","4960464","0.0-227.0","battery-v0.2","","","1180.0999999996275","","","23","855","750","y","elianto","#3366ff99"," "," ","1","+10","[2030.7999999998137]","1","3","","","855","222","9","1","win","go","0","0"
"pit-trial","297","4964812","0.0-228.0","battery-v0.2","","","1495.4000000003725","","","23","855","750","r","elianto","#f73b6a7A"," "," ","1","0","[2345.5]","1","3","","","855","223","10","3","lose","go","0","0"
"pit-trial","298","4969666","0.0-229.0","battery-v0.2","","","-1","","","23","855","750","c","elianto","#3366ff99","-1","-1","1","+10","[]","0","3","","","855","224","6","2","win","no-go","0","0"
"pit-trial","299","4974520","0.0-230.0","battery-v0.2","","","-1","","","23","855","750","c","elianto","#3366ff99","-1","-1","1","+10","[3193.7000000001863]","1","3","","","855","225","6","2","win","no-go","0","0"
"pit-trial","300","4978364","0.0-231.0","battery-v0.2","","","990.5","","","23","855","750","r","elianto","#f73b6a7A"," "," ","1","0","[1840.7000000001863]","1","3","","","855","226","10","3","lose","go","0","0"
"pit-trial","301","4983219","0.0-232.0","battery-v0.2","","","-1","","","23","855","750","y","elianto","#3366ff99"," ","-1","0","0","[4388.0999999996275]","1","3","","","855","227","9","1","win","go","0","0"
"pit-trial","302","4987308","0.0-233.0","battery-v0.2","","","1235.5","","","23","855","750","h","elianto","#f73b6a7A","-1"," ","0","0","[2086.600000000559]","1","3","","","855","228","8","4","lose","no-go","1","0"
"pit-trial","303","4991380","0.0-234.0","battery-v0.2","","","1218.8999999994412","","","23","855","750","y","elianto","#3366ff99"," "," ","1","+10","[2069.2999999998137]","1","3","","","855","229","9","1","win","go","0","0"
"pit-trial","304","4995274","0.0-235.0","battery-v0.2","","","1040","","","23","855","750","m","elianto","#3366ff99"," "," ","1","+10","[1890.7000000001863]","1","3","","","855","230","11","1","win","go","0","0"
"pit-trial","305","4999755","0.0-236.0","battery-v0.2","","","1626.7999999998137","","","23","855","750","r","elianto","#f73b6a7A"," "," ","1","0","[2478]","1","3","","","855","231","10","3","lose","go","0","0"
"pit-trial","306","5004227","0.0-237.0","battery-v0.2","","","1619.4000000003725","","","23","855","750","h","elianto","#f73b6a7A","-1"," ","0","-10","[2470.0999999996275]","1","3","","","855","232","8","4","lose","no-go","0","0"
"pit-trial","307","5009080","0.0-238.0","battery-v0.2","","","-1","","","23","855","750","r","elianto","#f73b6a7A"," ","-1","0","-10","[3530.9000000003725,4092.4000000003725,4422.200000000186,4727.299999999814]","4","3","","","855","233","10","3","lose","go","0","0"
"pit-trial","308","5013387","0.0-239.0","battery-v0.2","","","1453.5","","","23","855","750","y","elianto","#3366ff99"," "," ","1","+10","[155.8999999994412,452,739.8999999994412,2305.2999999998137]","4","3","","","855","234","9","1","win","go","0","0"
"pit-trial","309","5018241","0.0-240.0","battery-v0.2","","","-1","","","23","855","750","m","elianto","#3366ff99"," ","-1","0","0","[4154.200000000186,4671.4000000003725]","2","3","","","855","235","11","1","win","go","0","0"
"pit-trial","310","5023086","0.0-241.0","battery-v0.2","","","1992.7999999998137","","","23","855","750","h","elianto","#f73b6a7A","-1"," ","0","-10","[129.6000000005588,451.40000000037253,2843.9000000003725]","3","3","","","855","236","8","4","lose","no-go","0","0"
"pit-trial","311","5027939","0.0-242.0","battery-v0.2","","","-1","","","23","855","750","h","elianto","#f73b6a7A","-1","-1","1","0","[]","0","3","","","855","237","8","4","lose","no-go","0","0"
"pit-trial","312","5031698","0.0-243.0","battery-v0.2","","","905.7000000001863","","","23","855","750","y","elianto","#3366ff99"," "," ","1","+10","[1755.8999999994412]","1","3","","","855","238","9","1","win","go","0","0"
"pit-trial","313","5035935","0.0-244.0","battery-v0.2","","","1383.9000000003725","","","23","855","750","m","elianto","#3366ff99"," "," ","1","+10","[2234.600000000559]","1","3","","","855","239","11","1","win","go","0","0"
"pit-trial","314","5040014","0.0-245.0","battery-v0.2","","","1226.300000000745","","","23","855","750","r","elianto","#f73b6a7A"," "," ","1","0","[2076.800000000745]","1","3","","","855","240","10","3","lose","go","0","0"
"pit-trial","315","5043797","0.0-246.0","battery-v0.2","","","917.7999999998137","","","23","855","750","y","elianto","#3366ff99"," "," ","1","0","[1768.0999999996275]","1","3","","","855","241","9","1","win","go","1","0"
"pit-trial","316","5047615","0.0-247.0","battery-v0.2","","","965.1999999992549","","","23","855","750","h","elianto","#f73b6a7A","-1"," ","0","0","[1816]","1","3","","","855","242","8","4","lose","no-go","1","0"
"pit-trial","317","5051311","0.0-248.0","battery-v0.2","","","840.5","","","23","855","750","r","elianto","#f73b6a7A"," "," ","1","-10","[1691.2000000001863]","1","3","","","855","243","10","3","lose","go","1","0"
"pit-trial","318","5056165","0.0-249.0","battery-v0.2","","","-1","","","23","855","750","m","elianto","#3366ff99"," ","-1","0","0","[2951.899999999441,3304.7999999998137,3504.899999999441,3683.7999999998137,3872.899999999441,4015.699999999255]","6","3","","","855","244","11","1","win","go","0","0"
"pit-trial","319","5059883","0.0-250.0","battery-v0.2","","","864.9000000003725","","","23","855","750","h","elianto","#f73b6a7A","-1"," ","0","-10","[1716.1000000005588]","1","3","","","855","245","8","4","lose","no-go","0","0"
"pit-trial","320","5063533","0.0-251.0","battery-v0.2","","","796.5999999996275","","","23","855","750","m","elianto","#3366ff99"," "," ","1","0","[1647]","1","3","","","855","246","11","1","win","go","1","0"
"pit-trial","321","5067118","0.0-252.0","battery-v0.2","","","730.6000000005588","","","23","855","750","y","elianto","#3366ff99"," "," ","1","0","[1581.5]","1","3","","","855","247","9","1","win","go","1","0"
"pit-trial","322","5071973","0.0-253.0","battery-v0.2","","","-1","","","23","855","750","r","elianto","#f73b6a7A"," ","-1","0","0","[4440]","1","3","","","855","248","10","3","lose","go","1","0"
"pit-trial","323","5075765","0.0-254.0","battery-v0.2","","","939.5999999996275","","","23","855","750","y","elianto","#3366ff99"," "," ","1","+10","[1790.0999999996275]","1","3","","","855","249","9","1","win","go","0","0"
"pit-trial","324","5079977","0.0-255.0","battery-v0.2","","","1349.6000000005588","","","23","855","750","h","elianto","#f73b6a7A","-1"," ","0","-10","[2200.2999999998137]","1","3","","","855","250","8","4","lose","no-go","0","0"
"pit-trial","325","5084566","0.0-256.0","battery-v0.2","","","1733.699999999255","","","23","855","750","m","elianto","#3366ff99"," "," ","1","0","[2585.2999999998137]","1","3","","","855","251","11","1","win","go","1","0"
"pit-trial","326","5088548","0.0-257.0","battery-v0.2","","","1128.5","","","23","855","750","r","elianto","#f73b6a7A"," "," ","1","0","[1979.300000000745]","1","3","","","855","252","10","3","lose","go","0","0"
"pit-trial","327","5092309","0.0-258.0","battery-v0.2","","","906.6000000005588","","","23","855","750","y","elianto","#3366ff99"," "," ","1","+10","[1757.5]","1","3","","","855","253","9","1","win","go","0","0"
"pit-trial","328","5095971","0.0-259.0","battery-v0.2","","","808.5","","","23","855","750","r","elianto","#f73b6a7A"," "," ","1","0","[1658.7999999998137]","1","3","","","855","254","10","3","lose","go","0","0"
"pit-trial","329","5100113","0.0-260.0","battery-v0.2","","","1288.5999999996275","","","23","855","750","h","elianto","#f73b6a7A","-1"," ","0","-10","[2139]","1","3","","","855","255","8","4","lose","no-go","0","0"
"pit-trial","330","5103964","0.0-261.0","battery-v0.2","","","997.8000000007451","","","23","855","750","m","elianto","#3366ff99"," "," ","1","+10","[1848.5]","1","3","","","855","256","11","1","win","go","0","0"
"pit-trial","331","5107617","0.0-262.0","battery-v0.2","","","799.7999999998137","","","23","855","750","m","elianto","#3366ff99"," "," ","1","+10","[1650.2999999998137]","1","3","","","855","257","11","1","win","go","0","0"
"pit-trial","332","5111328","0.0-263.0","battery-v0.2","","","858.6999999992549","","","23","855","750","y","elianto","#3366ff99"," "," ","1","+10","[1708.9000000003725]","1","3","","","855","258","9","1","win","go","0","0"
"pit-trial","333","5116182","0.0-264.0","battery-v0.2","","","-1","","","23","855","750","r","elianto","#f73b6a7A"," ","-1","0","0","[]","0","3","","","855","259","10","3","lose","go","1","0"
"pit-trial","334","5121035","0.0-265.0","battery-v0.2","","","-1","","","23","855","750","h","elianto","#f73b6a7A","-1","-1","1","0","[]","0","3","","","855","260","8","4","lose","no-go","0","0"
"pit-instructions","335","5130473","0.0-266.0","battery-v0.2","","[{""page_index"":0,""viewing_time"":9436.899999999441}]","9437.299999999814","","","","","","","","","","","","","","","","","","","","","","","","",""
