"trial_type","trial_index","time_elapsed","internal_node_id","task_version","view_history","rt","rune","rune_set","hex","correct","choice","accuracy","outcome","keys","total_keys","block","practice","age","subject","participantId","value","responses","num_errors","sub","trial","stimulus","robot","valence","action","sham"
"pavlovia","0","19","0.0-0.0","battery-v0.2","","","","","","","","","","","","","","","","","","","","","","","","","",""
"pit-instructions","1","269946","0.0-1.0-0.0","battery-v0.2","[{""page_index"":0,""viewing_time"":1268.1000000014901},{""page_index"":1,""viewing_time"":2136.199999999255},{""page_index"":2,""viewing_time"":3766},{""page_index"":3,""viewing_time"":728},{""page_index"":2,""viewing_time"":4427.199999999255},{""page_index"":3,""viewing_time"":7529.60000000149},{""page_index"":4,""viewing_time"":13495.5},{""page_index"":5,""viewing_time"":23296.699999999255},{""page_index"":6,""viewing_time"":42650.5},{""page_index"":7,""viewing_time"":2233.699999999255},{""page_index"":8,""viewing_time"":3755.5},{""page_index"":9,""viewing_time"":33290.70000000298},{""page_index"":8,""viewing_time"":57994.099999997765},{""page_index"":9,""viewing_time"":68814.80000000075},{""page_index"":10,""viewing_time"":870.3000000007451},{""page_index"":11,""viewing_time"":3666.199999999255}]","269924.700000003","","","","","","","","","","","","","","","","","","","","","","","",""
"pit-trial","2","273673","0.0-1.0-1.0-0.0","battery-v0.2","","1214.9000000022352","&#9776;","elianto","#3366ff99","32","32","1","+10","1717","1","0","1","998","3&age=998&participant_ID=5&order=1","5","","","","","","","","","",""
"pit-trial","3","278187","0.0-1.0-1.0-1.0","battery-v0.2","","-1","&#9776;","elianto","#3366ff99","32","-1","0","0","","0","0","1","998","3&age=998&participant_ID=5&order=1","5","","","","","","","","","",""
"pit-trial","4","282703","0.0-1.0-1.0-2.0","battery-v0.2","","-1","&#9776;","elianto","#3366ff99","32","-1","0","0","","0","0","1","998","3&age=998&participant_ID=5&order=1","5","","","","","","","","","",""
"pit-trial","5","285936","0.0-1.0-1.0-3.0","battery-v0.2","","720.3999999985099","&#9776;","elianto","#3366ff99","32","32","1","0","1221.699999999255","1","0","1","998","3&age=998&participant_ID=5&order=1","5","","","","","","","","","",""
"pit-trial","6","288841","0.0-1.0-1.0-4.0","battery-v0.2","","400.4000000022352","&#9776;","elianto","#3366ff99","32","32","1","+10","900.8000000007451","1","0","1","998","3&age=998&participant_ID=5&order=1","5","","","","","","","","","",""
"pit-trial","7","292065","0.0-1.0-1.1-0.1","battery-v0.2","","710.8999999985099","&#9776;","elianto","#3366ff99","32","32","1","+10","1212.699999999255","1","0","1","998","3&age=998&participant_ID=5&order=1","5","","","","","","","","","",""
"pit-trial","8","296064","0.0-1.0-1.1-1.1","battery-v0.2","","1490.5","&#9776;","elianto","#3366ff99","32","32","1","+10","1990.699999999255","1","0","1","998","3&age=998&participant_ID=5&order=1","5","","","","","","","","","",""
"pit-trial","9","300579","0.0-1.0-1.1-2.1","battery-v0.2","","-1","&#9776;","elianto","#3366ff99","32","-1","0","0","","0","0","1","998","3&age=998&participant_ID=5&order=1","5","","","","","","","","","",""
"pit-trial","10","303944","0.0-1.0-1.1-3.1","battery-v0.2","","853.5999999977648","&#9776;","elianto","#3366ff99","32","32","1","0","1354.5","1","0","1","998","3&age=998&participant_ID=5&order=1","5","","","","","","","","","",""
"pit-trial","11","307129","0.0-1.0-1.1-4.1","battery-v0.2","","673.6000000014901","&#9776;","elianto","#3366ff99","32","32","1","+10","1175.3999999985099","1","0","1","998","3&age=998&participant_ID=5&order=1","5","","","","","","","","","",""
"pit-trial","12","310368","0.0-1.0-1.2-0.2","battery-v0.2","","728.0999999977648","&#9776;","elianto","#3366ff99","32","32","1","+10","1228.699999999255","1","0","1","998","3&age=998&participant_ID=5&order=1","5","","","","","","","","","",""
"pit-trial","13","313726","0.0-1.0-1.2-1.2","battery-v0.2","","847.1999999992549","&#9776;","elianto","#3366ff99","32","32","1","+10","1348","1","0","1","998","3&age=998&participant_ID=5&order=1","5","","","","","","","","","",""
"pit-trial","14","316545","0.0-1.0-1.2-2.2","battery-v0.2","","307.3999999985099","&#9776;","elianto","#3366ff99","32","32","1","+10","809.7999999970198","1","0","1","998","3&age=998&participant_ID=5&order=1","5","","","","","","","","","",""
"pit-trial","15","319598","0.0-1.0-1.2-3.2","battery-v0.2","","542.5","&#9776;","elianto","#3366ff99","32","32","1","0","1043.0999999977648","1","0","1","998","3&age=998&participant_ID=5&order=1","5","","","","","","","","","",""
"pit-trial","16","322661","0.0-1.0-1.2-4.2","battery-v0.2","","557.7000000029802","&#9776;","elianto","#3366ff99","32","32","1","+10","1058.5","1","0","1","998","3&age=998&participant_ID=5&order=1","5","","","","","","","","","",""
"call-function","17","322665","0.0-1.0-2.0","battery-v0.2","","","","","","","","","","","","","","","","","","","","","","","","","",""
"pit-instructions","18","752550","0.0-1.0-3.0","battery-v0.2","[{""page_index"":0,""viewing_time"":4130.699999999255},{""page_index"":1,""viewing_time"":4713.39999999851},{""page_index"":2,""viewing_time"":178710.40000000224},{""page_index"":3,""viewing_time"":803.3000000007451},{""page_index"":2,""viewing_time"":1763.8999999985099},{""page_index"":3,""viewing_time"":199227.3999999985},{""page_index"":4,""viewing_time"":30847.900000002235},{""page_index"":5,""viewing_time"":9686.099999997765}]","429883.80000000075","","","","","","","","","","","","","","","","","","","","","","","",""
"pit-trial","19","756181","0.0-1.0-4.0-0.0","battery-v0.2","","1121.5","&#9761;","elianto","#3366ff99","-1","32","0","0","1622.199999999255","1","0","2","998","3&age=998&participant_ID=5&order=1","5","","","","","","","","","",""
"pit-trial","20","760696","0.0-1.0-4.0-1.0","battery-v0.2","","-1","&#9761;","elianto","#3366ff99","-1","-1","1","+10","","0","0","2","998","3&age=998&participant_ID=5&order=1","5","","","","","","","","","",""
"pit-trial","21","765211","0.0-1.0-4.0-2.0","battery-v0.2","","-1","&#9761;","elianto","#3366ff99","-1","-1","1","+10","","0","0","2","998","3&age=998&participant_ID=5&order=1","5","","","","","","","","","",""
"pit-trial","22","769724","0.0-1.0-4.0-3.0","battery-v0.2","","-1","&#9761;","elianto","#3366ff99","-1","-1","1","+10","","0","0","2","998","3&age=998&participant_ID=5&order=1","5","","","","","","","","","",""
"pit-trial","23","774239","0.0-1.0-4.0-4.0","battery-v0.2","","-1","&#9761;","elianto","#3366ff99","-1","-1","1","0","","0","0","2","998","3&age=998&participant_ID=5&order=1","5","","","","","","","","","",""
"call-function","24","774243","0.0-1.0-5.0","battery-v0.2","","","","","","","","","","","","","","","","","","","","","","","","","",""
"pit-instructions","25","849994","0.0-1.0-6.0","battery-v0.2","[{""page_index"":0,""viewing_time"":6243.10000000149},{""page_index"":1,""viewing_time"":44744.5},{""page_index"":2,""viewing_time"":5565.300000000745},{""page_index"":3,""viewing_time"":4789.89999999851},{""page_index"":4,""viewing_time"":14406.300000000745}]","75750.20000000298","","","","","","","","","","","","","","","","","","","","","","","",""
"pit-trial","26","854505","0.0-1.0-7.0-0.0","battery-v0.2","","-1","&#9826;","elianto","#f73b6a7A","-1","-1","1","0","","0","0","3","998","3&age=998&participant_ID=5&order=1","5","","","","","","","","","",""
"pit-trial","27","859020","0.0-1.0-7.0-1.0","battery-v0.2","","-1","&#9826;","elianto","#f73b6a7A","-1","-1","1","0","","0","0","3","998","3&age=998&participant_ID=5&order=1","5","","","","","","","","","",""
"pit-trial","28","863530","0.0-1.0-7.0-2.0","battery-v0.2","","-1","&#9826;","elianto","#f73b6a7A","-1","-1","1","-10","","0","0","3","998","3&age=998&participant_ID=5&order=1","5","","","","","","","","","",""
"pit-trial","29","868044","0.0-1.0-7.0-3.0","battery-v0.2","","-1","&#9826;","elianto","#f73b6a7A","-1","-1","1","0","","0","0","3","998","3&age=998&participant_ID=5&order=1","5","","","","","","","","","",""
"pit-trial","30","872558","0.0-1.0-7.0-4.0","battery-v0.2","","-1","&#9826;","elianto","#f73b6a7A","-1","-1","1","0","","0","0","3","998","3&age=998&participant_ID=5&order=1","5","","","","","","","","","",""
"call-function","31","872561","0.0-1.0-8.0","battery-v0.2","","","","","","","","","","","","","","","","","","","","","","","","","",""
"pit-instructions","32","1856612","0.0-1.0-9.0","battery-v0.2","[{""page_index"":0,""viewing_time"":176034.19999999925},{""page_index"":1,""viewing_time"":35778.5},{""page_index"":2,""viewing_time"":16844.10000000149}]","228657.6000000015","","","","","","","","","","","","","","","","","","","","","","","",""
"pit-trial","33","1859904","0.0-1.0-10.0-0.0","battery-v0.2","","785.8000000007451","&#9789;","elianto","#f73b6a7A","32","32","1","0","1286.1000000014901","1","0","4","998","3&age=998&participant_ID=5&order=1","5","","","","","","","","","",""
"pit-trial","34","1864416","0.0-1.0-10.0-1.0","battery-v0.2","","-1","&#9789;","elianto","#f73b6a7A","32","-1","0","-10","","0","0","4","998","3&age=998&participant_ID=5&order=1","5","","","","","","","","","",""
"pit-trial","35","1867612","0.0-1.0-10.0-2.0","battery-v0.2","","685.6000000014901","&#9789;","elianto","#f73b6a7A","32","32","1","0","1186","1","0","4","998","3&age=998&participant_ID=5&order=1","5","","","","","","","","","",""
"pit-trial","36","1872122","0.0-1.0-10.0-3.0","battery-v0.2","","-1","&#9789;","elianto","#f73b6a7A","32","-1","0","-10","","0","0","4","998","3&age=998&participant_ID=5&order=1","5","","","","","","","","","",""
"pit-trial","37","1876633","0.0-1.0-10.0-4.0","battery-v0.2","","-1","&#9789;","elianto","#f73b6a7A","32","-1","0","0","","0","0","4","998","3&age=998&participant_ID=5&order=1","5","","","","","","","","","",""
"pit-trial","38","1880222","0.0-1.0-10.1-0.1","battery-v0.2","","1084.0999999977648","&#9789;","elianto","#f73b6a7A","32","32","1","0","1584.0999999977648","1","0","4","998","3&age=998&participant_ID=5&order=1","5","","","","","","","","","",""
"pit-trial","39","1883638","0.0-1.0-10.1-1.1","battery-v0.2","","908.1000000014901","&#9789;","elianto","#f73b6a7A","32","32","1","0","1410.0999999977648","1","0","4","998","3&age=998&participant_ID=5&order=1","5","","","","","","","","","",""
"pit-trial","40","1888152","0.0-1.0-10.1-2.1","battery-v0.2","","-1","&#9789;","elianto","#f73b6a7A","32","-1","0","-10","3628.699999999255","1","0","4","998","3&age=998&participant_ID=5&order=1","5","","","","","","","","","",""
"pit-trial","41","1891157","0.0-1.0-10.1-3.1","battery-v0.2","","498.5","&#9789;","elianto","#f73b6a7A","32","32","1","0","999.8000000007451,1438.6000000014901","2","0","4","998","3&age=998&participant_ID=5&order=1","5","","","","","","","","","",""
"pit-trial","42","1894710","0.0-1.0-10.1-4.1","battery-v0.2","","1043.800000000745","&#9789;","elianto","#f73b6a7A","32","32","1","-10","1546.6000000014901","1","0","4","998","3&age=998&participant_ID=5&order=1","5","","","","","","","","","",""
"pit-trial","43","1898000","0.0-1.0-10.2-0.2","battery-v0.2","","779","&#9789;","elianto","#f73b6a7A","32","32","1","0","1279.699999999255","1","0","4","998","3&age=998&participant_ID=5&order=1","5","","","","","","","","","",""
"pit-trial","44","1902506","0.0-1.0-10.2-1.2","battery-v0.2","","-1","&#9789;","elianto","#f73b6a7A","32","-1","0","-10","3280.300000000745","1","0","4","998","3&age=998&participant_ID=5&order=1","5","","","","","","","","","",""
"pit-trial","45","1905764","0.0-1.0-10.2-2.2","battery-v0.2","","746.2999999970198","&#9789;","elianto","#f73b6a7A","32","32","1","0","1248.8999999985099","1","0","4","998","3&age=998&participant_ID=5&order=1","5","","","","","","","","","",""
"pit-trial","46","1908913","0.0-1.0-10.2-3.2","battery-v0.2","","643","&#9789;","elianto","#f73b6a7A","32","32","1","0","1143.5999999977648","1","0","4","998","3&age=998&participant_ID=5&order=1","5","","","","","","","","","",""
"pit-trial","47","1911894","0.0-1.0-10.2-4.2","battery-v0.2","","472","&#9789;","elianto","#f73b6a7A","32","32","1","-10","194.29999999701977,972.3999999985099","2","0","4","998","3&age=998&participant_ID=5&order=1","5","","","","","","","","","",""
"call-function","48","1911897","0.0-1.0-11.0","battery-v0.2","","","","","","","","","","","","","","","","","","","","","","","","","",""
"pit-instructions","49","2762410","0.0-1.0-12.0","battery-v0.2","[{""page_index"":0,""viewing_time"":31016.10000000149},{""page_index"":1,""viewing_time"":157719},{""page_index"":2,""viewing_time"":160168.80000000075},{""page_index"":3,""viewing_time"":6606.699999999255},{""page_index"":4,""viewing_time"":211769},{""page_index"":5,""viewing_time"":1983.199999999255}]","569263.6000000015","","","","","","","","","","","","","","","","","","","","","","","",""
"pit-comprehension","50","2785719","0.0-1.0-13.0-0.0","battery-v0.2","","23304","","","","","","","","","","","","","","","","ENTER","1","","","","","","",""
"pit-instructions","51","2864101","0.0-1.0-13.0-1.0","battery-v0.2","[{""page_index"":0,""viewing_time"":78347.39999999851}]","78348.5","","","","","","","","","","","","","","","","","","","","","","","",""
"pit-instructions","52","2898025","0.0-1.0-13.0-2.0-0.0","battery-v0.2","[{""page_index"":0,""viewing_time"":33919.89999999851}]","33921","","","","","","","","","","","","","","","","","","","","","","","",""
"pit-comprehension","53","2944532","0.0-1.0-13.1-0.1","battery-v0.2","","46502.39999999851","","","","","","","","","","","","","","","","SPACE","0","","","","","","",""
"pit-instructions","54","2946454","0.0-1.0-13.1-1.1","battery-v0.2","[{""page_index"":0,""viewing_time"":1910.8999999985099}]","1912","","","","","","","","","","","","","","","","","","","","","","","",""
"pit-comprehension","55","2953238","0.0-1.0-14.0-0.0","battery-v0.2","","6780.199999999255","","","","","","","","","","","","","","","","0","1","","","","","","",""
"pit-instructions","56","2971800","0.0-1.0-14.0-1.0","battery-v0.2","[{""page_index"":0,""viewing_time"":18544.400000002235}]","18545","","","","","","","","","","","","","","","","","","","","","","","",""
"pit-instructions","57","2972885","0.0-1.0-14.0-2.0-0.0","battery-v0.2","[{""page_index"":0,""viewing_time"":1081.699999999255}]","1082.6000000014901","","","","","","","","","","","","","","","","","","","","","","","",""
"pit-comprehension","58","2974826","0.0-1.0-14.1-0.1","battery-v0.2","","1937","","","","","","","","","","","","","","","","10","0","","","","","","",""
"pit-instructions","59","2975920","0.0-1.0-14.1-1.1","battery-v0.2","[{""page_index"":0,""viewing_time"":1077.5999999977648}]","1078.3999999985099","","","","","","","","","","","","","","","","","","","","","","","",""
"pit-comprehension","60","2982398","0.0-1.0-15.0-0.0","battery-v0.2","","6473.89999999851","","","","","","","","","","","","","","","","0","1","","","","","","",""
"pit-instructions","61","3004806","0.0-1.0-15.0-1.0","battery-v0.2","[{""page_index"":0,""viewing_time"":22390.199999999255}]","22391","","","","","","","","","","","","","","","","","","","","","","","",""
"pit-instructions","62","3005983","0.0-1.0-15.0-2.0-0.0","battery-v0.2","[{""page_index"":0,""viewing_time"":1172.699999999255}]","1173.4000000022352","","","","","","","","","","","","","","","","","","","","","","","",""
"pit-comprehension","63","3009498","0.0-1.0-15.1-0.1","battery-v0.2","","3511.199999999255","","","","","","","","","","","","","","","","10","0","","","","","","",""
"pit-instructions","64","3010601","0.0-1.0-15.1-1.1","battery-v0.2","[{""page_index"":0,""viewing_time"":1082.300000000745}]","1083.5","","","","","","","","","","","","","","","","","","","","","","","",""
"pit-comprehension","65","3061886","0.0-1.0-16.0-0.0","battery-v0.2","","51280.5","","","","","","","","","","","","","","","","False","1","","","","","","",""
"pit-instructions","66","3098411","0.0-1.0-16.0-1.0","battery-v0.2","[{""page_index"":0,""viewing_time"":36505.400000002235}]","36506.300000000745","","","","","","","","","","","","","","","","","","","","","","","",""
"pit-instructions","67","3099280","0.0-1.0-16.0-2.0-0.0","battery-v0.2","[{""page_index"":0,""viewing_time"":864.1000000014901}]","864.8999999985099","","","","","","","","","","","","","","","","","","","","","","","",""
"pit-comprehension","68","3114818","0.0-1.0-16.1-0.1","battery-v0.2","","15534.89999999851","","","","","","","","","","","","","","","","True","0","","","","","","",""
"pit-instructions","69","3115970","0.0-1.0-16.1-1.1","battery-v0.2","[{""page_index"":0,""viewing_time"":1133.6000000014901}]","1134.5","","","","","","","","","","","","","","","","","","","","","","","",""
"pit-comprehension","70","3240050","0.0-1.0-17.0-0.0","battery-v0.2","","124075.70000000298","","","","","","","","","","","","","","","","True","0","","","","","","",""
"pit-instructions","71","3241454","0.0-1.0-17.0-1.0","battery-v0.2","[{""page_index"":0,""viewing_time"":1384.8999999985099}]","1386.0999999977648","","","","","","","","","","","","","","","","","","","","","","","",""
"pit-comprehension","72","3246203","0.0-1.0-18.0-0.0","battery-v0.2","","4743.79999999702","","","","","","","","","","","","","","","","True","0","","","","","","",""
"pit-instructions","73","3247386","0.0-1.0-18.0-1.0","battery-v0.2","[{""page_index"":0,""viewing_time"":1163.0999999977648}]","1163.699999999255","","","","","","","","","","","","","","","","","","","","","","","",""
"pit-instructions","74","3258161","0.0-2.0","battery-v0.2","[{""page_index"":0,""viewing_time"":924.1999999992549},{""page_index"":1,""viewing_time"":2622.10000000149},{""page_index"":2,""viewing_time"":850.3999999985099},{""page_index"":1,""viewing_time"":1598.300000000745},{""page_index"":2,""viewing_time"":4777}]","10772.5","","","","","","","","","","","","","","","","","","","","","","","",""
"pit-trial","75","3262465","0.0-3.0","battery-v0.2","","1790.5","&#9752;","elianto","#f73b6a7A","32","32","1","0","2291.900000002235","1","1","","","","","","","","3&age=998&participant_ID=5&order=1","1","3","3","lose","go","0"
"pit-trial","76","3265915","0.0-4.0","battery-v0.2","","937.3999999985099","&#9730;","elianto","#3366ff99","32","32","1","+10","1439.5999999977648","1","1","","","","","","","","3&age=998&participant_ID=5&order=1","2","1","1","win","go","0"
"pit-trial","77","3270429","0.0-5.0","battery-v0.2","","-1","&#9728;","elianto","#f73b6a7A","-1","-1","1","0","","0","1","","","","","","","","3&age=998&participant_ID=5&order=1","3","0","4","lose","no-go","0"
"pit-trial","78","3274106","0.0-6.0","battery-v0.2","","1164.5","&#9733;","elianto","#3366ff99","-1","32","0","0","1666.300000000745","1","1","","","","","","","","3&age=998&participant_ID=5&order=1","4","2","2","win","no-go","0"
"pit-trial","79","3277831","0.0-7.0","battery-v0.2","","1218.1000000014901","&#9752;","elianto","#f73b6a7A","32","32","1","0","1718.300000000745","1","1","","","","","","","","3&age=998&participant_ID=5&order=1","5","3","3","lose","go","0"
"pit-trial","80","3282345","0.0-8.0","battery-v0.2","","-1","&#9728;","elianto","#f73b6a7A","-1","-1","1","0","","0","1","","","","","","","","3&age=998&participant_ID=5&order=1","6","0","4","lose","no-go","0"
"pit-trial","81","3286103","0.0-9.0","battery-v0.2","","1246.800000000745","&#9730;","elianto","#3366ff99","32","32","1","+10","1747.300000000745","1","1","","","","","","","","3&age=998&participant_ID=5&order=1","7","1","1","win","go","0"
"pit-trial","82","3290616","0.0-10.0","battery-v0.2","","-1","&#9733;","elianto","#3366ff99","-1","-1","1","0","","0","1","","","","","","","","3&age=998&participant_ID=5&order=1","8","2","2","win","no-go","1"
"pit-trial","83","3294235","0.0-11.0","battery-v0.2","","1107.3999999985099","&#9730;","elianto","#3366ff99","32","32","1","0","1609.199999999255","1","1","","","","","","","","3&age=998&participant_ID=5&order=1","9","1","1","win","go","1"
"pit-trial","84","3297651","0.0-12.0","battery-v0.2","","904.4000000022352","&#9733;","elianto","#3366ff99","-1","32","0","+10","1406","1","1","","","","","","","","3&age=998&participant_ID=5&order=1","10","2","2","win","no-go","1"
"pit-trial","85","3301900","0.0-13.0","battery-v0.2","","1737","&#9752;","elianto","#f73b6a7A","32","32","1","0","2239.7999999970198,2525.199999999255","2","1","","","","","","","","3&age=998&participant_ID=5&order=1","11","3","3","lose","go","0"
"pit-trial","86","3305769","0.0-14.0","battery-v0.2","","1355.8999999985099","&#9728;","elianto","#f73b6a7A","-1","32","0","-10","1858.0999999977648","1","1","","","","","","","","3&age=998&participant_ID=5&order=1","12","0","4","lose","no-go","0"
"pit-trial","87","3310280","0.0-15.0","battery-v0.2","","-1","&#9728;","elianto","#f73b6a7A","-1","-1","1","-10","","0","1","","","","","","","","3&age=998&participant_ID=5&order=1","13","0","4","lose","no-go","1"
"pit-trial","88","3313712","0.0-16.0","battery-v0.2","","920.1000000014901","&#9733;","elianto","#3366ff99","-1","32","0","0","1421.1000000014901","1","1","","","","","","","","3&age=998&participant_ID=5&order=1","14","2","2","win","no-go","0"
"pit-trial","89","3318223","0.0-17.0","battery-v0.2","","-1","&#9752;","elianto","#f73b6a7A","32","-1","0","-10","2815.599999997765","1","1","","","","","","","","3&age=998&participant_ID=5&order=1","15","3","3","lose","go","0"
"pit-trial","90","3321738","0.0-18.0","battery-v0.2","","1008.5999999977648","&#9730;","elianto","#3366ff99","32","32","1","+10","1509.5","1","1","","","","","","","","3&age=998&participant_ID=5&order=1","16","1","1","win","go","0"
"pit-trial","91","3325372","0.0-19.0","battery-v0.2","","1123.1000000014901","&#9752;","elianto","#f73b6a7A","32","32","1","-10","1624","1","1","","","","","","","","3&age=998&participant_ID=5&order=1","17","3","3","lose","go","1"
"pit-trial","92","3329080","0.0-20.0","battery-v0.2","","1197.5","&#9733;","elianto","#3366ff99","-1","32","0","0","1697.699999999255","1","1","","","","","","","","3&age=998&participant_ID=5&order=1","18","2","2","win","no-go","0"
"pit-trial","93","3332555","0.0-21.0","battery-v0.2","","964.4000000022352","&#9730;","elianto","#3366ff99","32","32","1","+10","1464.6000000014901","1","1","","","","","","","","3&age=998&participant_ID=5&order=1","19","1","1","win","go","0"
"pit-trial","94","3336972","0.0-22.0","battery-v0.2","","1905.699999999255","&#9728;","elianto","#f73b6a7A","-1","32","0","-10","2406.5","1","1","","","","","","","","3&age=998&participant_ID=5&order=1","20","0","4","lose","no-go","0"
"pit-instructions","95","3342965","0.0-23.0","battery-v0.2","[{""page_index"":0,""viewing_time"":3026.800000000745},{""page_index"":1,""viewing_time"":2962.699999999255}]","5989.900000002235","","","","","","","","","","","","","","","","","","","","","","","",""
