"trial_type","trial_index","time_elapsed","internal_node_id","task_version","view_history","rt","rune","rune_set","hex","correct","choice","accuracy","outcome","keys","total_keys","block","practice","age","subject","participantId"
"pavlovia","0","8","0.0-0.0","battery-v0.2","","","","","","","","","","","","","","","",""
"pit-instructions","1","4779","0.0-1.0-0.0","battery-v0.2","[{""page_index"":0,""viewing_time"":1234.1000000238419},{""page_index"":1,""viewing_time"":166.5},{""page_index"":2,""viewing_time"":166.89999997615814},{""page_index"":3,""viewing_time"":150.10000002384186},{""page_index"":4,""viewing_time"":166.80000007152557},{""page_index"":5,""viewing_time"":183.19999992847443},{""page_index"":6,""viewing_time"":149.89999997615814},{""page_index"":7,""viewing_time"":499.8000000715256},{""page_index"":8,""viewing_time"":466.39999997615814},{""page_index"":9,""viewing_time"":467},{""page_index"":10,""viewing_time"":623.5},{""page_index"":11,""viewing_time"":493.89999997615814}]","4768.5","","","","","","","","","","","","","",""
"pit-trial","2","8482","0.0-1.0-1.0-0.0","battery-v0.2","","1198.4000000953674","&#9776;","elianto","#3366ff99","32","32","1","+10","1698.7000000476837","1","0","1","9999","3&age=9999&participant_ID=5&order=1","5"
"pit-trial","3","12397","0.0-1.0-1.0-1.0","battery-v0.2","","1408.5","&#9776;","elianto","#3366ff99","32","32","1","+10","1909.7000000476837","1","0","1","9999","3&age=9999&participant_ID=5&order=1","5"
"pit-trial","4","16084","0.0-1.0-1.0-2.0","battery-v0.2","","1182.2000000476837","&#9776;","elianto","#3366ff99","32","32","1","+10","1684.9000000953674","1","0","1","9999","3&age=9999&participant_ID=5&order=1","5"
"pit-trial","5","19977","0.0-1.0-1.0-3.0","battery-v0.2","","1389.6000000238419","&#9776;","elianto","#3366ff99","32","32","1","0","1889.9000000953674","1","0","1","9999","3&age=9999&participant_ID=5&order=1","5"
"pit-trial","6","24486","0.0-1.0-1.0-4.0","battery-v0.2","","-1","&#9776;","elianto","#3366ff99","32","-1","0","0","","0","0","1","9999","3&age=9999&participant_ID=5&order=1","5"
"pit-trial","7","28992","0.0-1.0-1.1-0.1","battery-v0.2","","-1","&#9776;","elianto","#3366ff99","32","-1","0","0","","0","0","1","9999","3&age=9999&participant_ID=5&order=1","5"
"pit-trial","8","33495","0.0-1.0-1.1-1.1","battery-v0.2","","-1","&#9776;","elianto","#3366ff99","32","-1","0","0","","0","0","1","9999","3&age=9999&participant_ID=5&order=1","5"
"pit-trial","9","38001","0.0-1.0-1.1-2.1","battery-v0.2","","-1","&#9776;","elianto","#3366ff99","32","-1","0","0","","0","0","1","9999","3&age=9999&participant_ID=5&order=1","5"
"pit-trial","10","42506","0.0-1.0-1.1-3.1","battery-v0.2","","-1","&#9776;","elianto","#3366ff99","32","-1","0","+10","","0","0","1","9999","3&age=9999&participant_ID=5&order=1","5"
"pit-trial","11","47010","0.0-1.0-1.1-4.1","battery-v0.2","","-1","&#9776;","elianto","#3366ff99","32","-1","0","0","","0","0","1","9999","3&age=9999&participant_ID=5&order=1","5"
"pit-trial","12","51514","0.0-1.0-1.2-0.2","battery-v0.2","","-1","&#9776;","elianto","#3366ff99","32","-1","0","0","","0","0","1","9999","3&age=9999&participant_ID=5&order=1","5"
"pit-trial","13","56024","0.0-1.0-1.2-1.2","battery-v0.2","","-1","&#9776;","elianto","#3366ff99","32","-1","0","0","","0","0","1","9999","3&age=9999&participant_ID=5&order=1","5"
"pit-trial","14","60533","0.0-1.0-1.2-2.2","battery-v0.2","","-1","&#9776;","elianto","#3366ff99","32","-1","0","0","","0","0","1","9999","3&age=9999&participant_ID=5&order=1","5"
"pit-trial","15","65039","0.0-1.0-1.2-3.2","battery-v0.2","","-1","&#9776;","elianto","#3366ff99","32","-1","0","+10","","0","0","1","9999","3&age=9999&participant_ID=5&order=1","5"
"pit-trial","16","69542","0.0-1.0-1.2-4.2","battery-v0.2","","-1","&#9776;","elianto","#3366ff99","32","-1","0","0","","0","0","1","9999","3&age=9999&participant_ID=5&order=1","5"
"pit-trial","17","74053","0.0-1.0-1.3-0.3","battery-v0.2","","-1","&#9776;","elianto","#3366ff99","32","-1","0","0","","0","0","1","9999","3&age=9999&participant_ID=5&order=1","5"
"pit-trial","18","78554","0.0-1.0-1.3-1.3","battery-v0.2","","-1","&#9776;","elianto","#3366ff99","32","-1","0","0","","0","0","1","9999","3&age=9999&participant_ID=5&order=1","5"
"pit-trial","19","83062","0.0-1.0-1.3-2.3","battery-v0.2","","-1","&#9776;","elianto","#3366ff99","32","-1","0","0","","0","0","1","9999","3&age=9999&participant_ID=5&order=1","5"
"pit-trial","20","87567","0.0-1.0-1.3-3.3","battery-v0.2","","-1","&#9776;","elianto","#3366ff99","32","-1","0","+10","","0","0","1","9999","3&age=9999&participant_ID=5&order=1","5"
"pit-trial","21","92074","0.0-1.0-1.3-4.3","battery-v0.2","","-1","&#9776;","elianto","#3366ff99","32","-1","0","0","","0","0","1","9999","3&age=9999&participant_ID=5&order=1","5"
"pit-trial","22","96584","0.0-1.0-1.4-0.4","battery-v0.2","","-1","&#9776;","elianto","#3366ff99","32","-1","0","0","","0","0","1","9999","3&age=9999&participant_ID=5&order=1","5"
"pit-trial","23","101088","0.0-1.0-1.4-1.4","battery-v0.2","","-1","&#9776;","elianto","#3366ff99","32","-1","0","0","","0","0","1","9999","3&age=9999&participant_ID=5&order=1","5"
"pit-trial","24","105594","0.0-1.0-1.4-2.4","battery-v0.2","","-1","&#9776;","elianto","#3366ff99","32","-1","0","0","","0","0","1","9999","3&age=9999&participant_ID=5&order=1","5"
"pit-trial","25","110100","0.0-1.0-1.4-3.4","battery-v0.2","","-1","&#9776;","elianto","#3366ff99","32","-1","0","+10","","0","0","1","9999","3&age=9999&participant_ID=5&order=1","5"
"pit-trial","26","114610","0.0-1.0-1.4-4.4","battery-v0.2","","-1","&#9776;","elianto","#3366ff99","32","-1","0","0","","0","0","1","9999","3&age=9999&participant_ID=5&order=1","5"
"pit-trial","27","119119","0.0-1.0-1.5-0.5","battery-v0.2","","-1","&#9776;","elianto","#3366ff99","32","-1","0","0","","0","0","1","9999","3&age=9999&participant_ID=5&order=1","5"
"pit-trial","28","123621","0.0-1.0-1.5-1.5","battery-v0.2","","-1","&#9776;","elianto","#3366ff99","32","-1","0","0","","0","0","1","9999","3&age=9999&participant_ID=5&order=1","5"
"pit-trial","29","128130","0.0-1.0-1.5-2.5","battery-v0.2","","-1","&#9776;","elianto","#3366ff99","32","-1","0","0","","0","0","1","9999","3&age=9999&participant_ID=5&order=1","5"
"pit-trial","30","132641","0.0-1.0-1.5-3.5","battery-v0.2","","-1","&#9776;","elianto","#3366ff99","32","-1","0","+10","","0","0","1","9999","3&age=9999&participant_ID=5&order=1","5"
"pit-trial","31","137151","0.0-1.0-1.5-4.5","battery-v0.2","","-1","&#9776;","elianto","#3366ff99","32","-1","0","0","","0","0","1","9999","3&age=9999&participant_ID=5&order=1","5"
"pit-trial","32","141658","0.0-1.0-1.6-0.6","battery-v0.2","","-1","&#9776;","elianto","#3366ff99","32","-1","0","0","","0","0","1","9999","3&age=9999&participant_ID=5&order=1","5"
"pit-trial","33","146165","0.0-1.0-1.6-1.6","battery-v0.2","","-1","&#9776;","elianto","#3366ff99","32","-1","0","0","","0","0","1","9999","3&age=9999&participant_ID=5&order=1","5"
"pit-trial","34","150668","0.0-1.0-1.6-2.6","battery-v0.2","","-1","&#9776;","elianto","#3366ff99","32","-1","0","0","","0","0","1","9999","3&age=9999&participant_ID=5&order=1","5"
"pit-trial","35","155175","0.0-1.0-1.6-3.6","battery-v0.2","","-1","&#9776;","elianto","#3366ff99","32","-1","0","+10","","0","0","1","9999","3&age=9999&participant_ID=5&order=1","5"
"pit-trial","36","159682","0.0-1.0-1.6-4.6","battery-v0.2","","-1","&#9776;","elianto","#3366ff99","32","-1","0","0","","0","0","1","9999","3&age=9999&participant_ID=5&order=1","5"
"pit-trial","37","164188","0.0-1.0-1.7-0.7","battery-v0.2","","-1","&#9776;","elianto","#3366ff99","32","-1","0","0","","0","0","1","9999","3&age=9999&participant_ID=5&order=1","5"
"pit-trial","38","168693","0.0-1.0-1.7-1.7","battery-v0.2","","-1","&#9776;","elianto","#3366ff99","32","-1","0","0","","0","0","1","9999","3&age=9999&participant_ID=5&order=1","5"
"pit-trial","39","173199","0.0-1.0-1.7-2.7","battery-v0.2","","-1","&#9776;","elianto","#3366ff99","32","-1","0","0","","0","0","1","9999","3&age=9999&participant_ID=5&order=1","5"
"pit-trial","40","177709","0.0-1.0-1.7-3.7","battery-v0.2","","-1","&#9776;","elianto","#3366ff99","32","-1","0","+10","","0","0","1","9999","3&age=9999&participant_ID=5&order=1","5"
"pit-trial","41","183037","0.0-1.0-1.7-4.7","battery-v0.2","","-1","&#9776;","elianto","#3366ff99","32","-1","0","0","","0","0","1","9999","3&age=9999&participant_ID=5&order=1","5"
