"trial_type","trial_index","time_elapsed","internal_node_id","task_version","view_history","rt","rune","rune_set","hex","correct","choice","accuracy","outcome","keys","total_keys","block","practice","value"
"pavlovia","0","10","0.0-0.0","battery-v0.2","","","","","","","","","","","","","",""
"pit-instructions","1","26046","0.0-1.0-0.0","battery-v0.2","[{""page_index"":0,""viewing_time"":8699},{""page_index"":1,""viewing_time"":308},{""page_index"":2,""viewing_time"":2739},{""page_index"":3,""viewing_time"":1773},{""page_index"":4,""viewing_time"":876},{""page_index"":5,""viewing_time"":3783},{""page_index"":6,""viewing_time"":1428},{""page_index"":7,""viewing_time"":2785},{""page_index"":8,""viewing_time"":2672},{""page_index"":9,""viewing_time"":966}]","26030","","","","","","","","","","","",""
"pit-trial","2","30053","0.0-1.0-1.0-0.0","battery-v0.2","","-1","1","elianto","#3366ff99","32","-1","0","+1","","0","0","1",""
"pit-trial","3","34058","0.0-1.0-1.1-0.1","battery-v0.2","","-1","1","elianto","#3366ff99","32","-1","0","+1","","0","0","1",""
"pit-trial","4","38061","0.0-1.0-1.2-0.2","battery-v0.2","","-1","1","elianto","#3366ff99","32","-1","0","+1","","0","0","1",""
"pit-trial","5","42064","0.0-1.0-1.3-0.3","battery-v0.2","","-1","1","elianto","#3366ff99","32","-1","0","+1","","0","0","1",""
"pit-trial","6","46067","0.0-1.0-1.4-0.4","battery-v0.2","","-1","1","elianto","#3366ff99","32","-1","0","+1","","0","0","1",""
"pit-trial","7","50069","0.0-1.0-1.5-0.5","battery-v0.2","","-1","1","elianto","#3366ff99","32","-1","0","+1","","0","0","1",""
"pit-trial","8","54075","0.0-1.0-1.6-0.6","battery-v0.2","","-1","1","elianto","#3366ff99","32","-1","0","+1","","0","0","1",""
"pit-trial","9","58077","0.0-1.0-1.7-0.7","battery-v0.2","","-1","1","elianto","#3366ff99","32","-1","0","+1","","0","0","1",""
"pit-trial","10","62080","0.0-1.0-1.8-0.8","battery-v0.2","","-1","1","elianto","#3366ff99","32","-1","0","+1","","0","0","1",""
"pit-trial","11","66083","0.0-1.0-1.9-0.9","battery-v0.2","","-1","1","elianto","#3366ff99","32","-1","0","+1","","0","0","1",""
"pit-trial","12","70088","0.0-1.0-1.10-0.10","battery-v0.2","","-1","1","elianto","#3366ff99","32","-1","0","+1","","0","0","1",""
"pit-trial","13","74091","0.0-1.0-1.11-0.11","battery-v0.2","","-1","1","elianto","#3366ff99","32","-1","0","+1","","0","0","1",""
"pit-trial","14","78095","0.0-1.0-1.12-0.12","battery-v0.2","","-1","1","elianto","#3366ff99","32","-1","0","+1","","0","0","1",""
"pit-trial","15","82100","0.0-1.0-1.13-0.13","battery-v0.2","","-1","1","elianto","#3366ff99","32","-1","0","+1","","0","0","1",""
"pit-trial","16","86103","0.0-1.0-1.14-0.14","battery-v0.2","","-1","1","elianto","#3366ff99","32","-1","0","+1","","0","0","1",""
"pit-trial","17","90107","0.0-1.0-1.15-0.15","battery-v0.2","","-1","1","elianto","#3366ff99","32","-1","0","+1","","0","0","1",""
"pit-trial","18","94111","0.0-1.0-1.16-0.16","battery-v0.2","","-1","1","elianto","#3366ff99","32","-1","0","+1","","0","0","1",""
"pit-trial","19","98114","0.0-1.0-1.17-0.17","battery-v0.2","","-1","1","elianto","#3366ff99","32","-1","0","+1","","0","0","1",""
"pit-trial","20","102117","0.0-1.0-1.18-0.18","battery-v0.2","","-1","1","elianto","#3366ff99","32","-1","0","+1","","0","0","1",""
"pit-trial","21","106119","0.0-1.0-1.19-0.19","battery-v0.2","","-1","1","elianto","#3366ff99","32","-1","0","+1","","0","0","1",""
"pit-trial","22","110122","0.0-1.0-1.20-0.20","battery-v0.2","","-1","1","elianto","#3366ff99","32","-1","0","+1","","0","0","1",""
"pit-trial","23","114126","0.0-1.0-1.21-0.21","battery-v0.2","","-1","1","elianto","#3366ff99","32","-1","0","+1","","0","0","1",""
"pit-trial","24","118128","0.0-1.0-1.22-0.22","battery-v0.2","","-1","1","elianto","#3366ff99","32","-1","0","+1","","0","0","1",""
"pit-trial","25","122129","0.0-1.0-1.23-0.23","battery-v0.2","","-1","1","elianto","#3366ff99","32","-1","0","+1","","0","0","1",""
"pit-trial","26","126131","0.0-1.0-1.24-0.24","battery-v0.2","","-1","1","elianto","#3366ff99","32","-1","0","+1","","0","0","1",""
"pit-trial","27","130134","0.0-1.0-1.25-0.25","battery-v0.2","","-1","1","elianto","#3366ff99","32","-1","0","+1","","0","0","1",""
"pit-trial","28","134137","0.0-1.0-1.26-0.26","battery-v0.2","","-1","1","elianto","#3366ff99","32","-1","0","+1","","0","0","1",""
"pit-trial","29","138142","0.0-1.0-1.27-0.27","battery-v0.2","","-1","1","elianto","#3366ff99","32","-1","0","+1","","0","0","1",""
"pit-trial","30","142144","0.0-1.0-1.28-0.28","battery-v0.2","","-1","1","elianto","#3366ff99","32","-1","0","+1","","0","0","1",""
"pit-trial","31","146149","0.0-1.0-1.29-0.29","battery-v0.2","","-1","1","elianto","#3366ff99","32","-1","0","+1","","0","0","1",""
"pit-trial","32","150155","0.0-1.0-1.30-0.30","battery-v0.2","","-1","1","elianto","#3366ff99","32","-1","0","+1","","0","0","1",""
"pit-trial","33","154159","0.0-1.0-1.31-0.31","battery-v0.2","","-1","1","elianto","#3366ff99","32","-1","0","+1","","0","0","1",""
"pit-trial","34","158164","0.0-1.0-1.32-0.32","battery-v0.2","","-1","1","elianto","#3366ff99","32","-1","0","+1","","0","0","1",""
"pit-trial","35","162168","0.0-1.0-1.33-0.33","battery-v0.2","","-1","1","elianto","#3366ff99","32","-1","0","+1","","0","0","1",""
"pit-trial","36","166170","0.0-1.0-1.34-0.34","battery-v0.2","","-1","1","elianto","#3366ff99","32","-1","0","+1","","0","0","1",""
"pit-trial","37","170173","0.0-1.0-1.35-0.35","battery-v0.2","","-1","1","elianto","#3366ff99","32","-1","0","+1","","0","0","1",""
"pit-trial","38","174179","0.0-1.0-1.36-0.36","battery-v0.2","","-1","1","elianto","#3366ff99","32","-1","0","+1","","0","0","1",""
"pit-trial","39","178181","0.0-1.0-1.37-0.37","battery-v0.2","","-1","1","elianto","#3366ff99","32","-1","0","+1","","0","0","1",""
"pit-trial","40","182183","0.0-1.0-1.38-0.38","battery-v0.2","","-1","1","elianto","#3366ff99","32","-1","0","+1","","0","0","1",""
"pit-trial","41","186185","0.0-1.0-1.39-0.39","battery-v0.2","","-1","1","elianto","#3366ff99","32","-1","0","+1","","0","0","1",""
"pit-trial","42","190187","0.0-1.0-1.40-0.40","battery-v0.2","","-1","1","elianto","#3366ff99","32","-1","0","+1","","0","0","1",""
"pit-trial","43","194188","0.0-1.0-1.41-0.41","battery-v0.2","","-1","1","elianto","#3366ff99","32","-1","0","+1","","0","0","1",""
"pit-trial","44","198191","0.0-1.0-1.42-0.42","battery-v0.2","","-1","1","elianto","#3366ff99","32","-1","0","+1","","0","0","1",""
"pit-trial","45","202194","0.0-1.0-1.43-0.43","battery-v0.2","","-1","1","elianto","#3366ff99","32","-1","0","+1","","0","0","1",""
"pit-trial","46","206196","0.0-1.0-1.44-0.44","battery-v0.2","","-1","1","elianto","#3366ff99","32","-1","0","+1","","0","0","1",""
"pit-trial","47","210202","0.0-1.0-1.45-0.45","battery-v0.2","","-1","1","elianto","#3366ff99","32","-1","0","+1","","0","0","1",""
"pit-trial","48","214207","0.0-1.0-1.46-0.46","battery-v0.2","","-1","1","elianto","#3366ff99","32","-1","0","+1","","0","0","1",""
"pit-trial","49","218211","0.0-1.0-1.47-0.47","battery-v0.2","","-1","1","elianto","#3366ff99","32","-1","0","+1","","0","0","1",""
"pit-trial","50","222214","0.0-1.0-1.48-0.48","battery-v0.2","","-1","1","elianto","#3366ff99","32","-1","0","+1","","0","0","1",""
"pit-trial","51","226218","0.0-1.0-1.49-0.49","battery-v0.2","","-1","1","elianto","#3366ff99","32","-1","0","+1","","0","0","1",""
"pit-trial","52","230220","0.0-1.0-1.50-0.50","battery-v0.2","","-1","1","elianto","#3366ff99","32","-1","0","+1","","0","0","1",""
"pit-trial","53","234222","0.0-1.0-1.51-0.51","battery-v0.2","","-1","1","elianto","#3366ff99","32","-1","0","+1","","0","0","1",""
"pit-trial","54","238224","0.0-1.0-1.52-0.52","battery-v0.2","","-1","1","elianto","#3366ff99","32","-1","0","+1","","0","0","1",""
"pit-trial","55","242229","0.0-1.0-1.53-0.53","battery-v0.2","","-1","1","elianto","#3366ff99","32","-1","0","+1","","0","0","1",""
"pit-trial","56","246230","0.0-1.0-1.54-0.54","battery-v0.2","","-1","1","elianto","#3366ff99","32","-1","0","+1","","0","0","1",""
"pit-trial","57","250233","0.0-1.0-1.55-0.55","battery-v0.2","","-1","1","elianto","#3366ff99","32","-1","0","+1","","0","0","1",""
"pit-trial","58","254237","0.0-1.0-1.56-0.56","battery-v0.2","","-1","1","elianto","#3366ff99","32","-1","0","+1","","0","0","1",""
"pit-trial","59","258238","0.0-1.0-1.57-0.57","battery-v0.2","","-1","1","elianto","#3366ff99","32","-1","0","+1","","0","0","1",""
"pit-trial","60","262240","0.0-1.0-1.58-0.58","battery-v0.2","","-1","1","elianto","#3366ff99","32","-1","0","+1","","0","0","1",""
"pit-trial","61","266242","0.0-1.0-1.59-0.59","battery-v0.2","","-1","1","elianto","#3366ff99","32","-1","0","+1","","0","0","1",""
"pit-trial","62","270246","0.0-1.0-1.60-0.60","battery-v0.2","","-1","1","elianto","#3366ff99","32","-1","0","+1","","0","0","1",""
"call-function","63","270247","0.0-1.0-2.0","battery-v0.2","","","","","","","","","","","","","",""
