"trial_type","trial_index","time_elapsed","internal_node_id","task_version","subject_id","interactions","blur_events","focus_events","fullscreenenter_events","fullscreenexit_events","success","view_history","rt","responses","num_errors","age","subject","participantId","rune","rune_set","hex","correct","choice","accuracy","outcome","keys","total_keys","block","practice","value"
"pavlovia","0","24","0.0-0.0","battery-v0.2","","""event"",""trial"",""time""
""fullscreenenter"",""1"",""2449""
","
","
","""event"",""trial"",""time""
""fullscreenenter"",""1"",""2449""
","
","","","","","","","","","","","","","","","","","","","",""
"fullscreen","1","3427","0.0-1.0","battery-v0.2","","""event"",""trial"",""time""
""fullscreenenter"",""1"",""2449""
","
","
","""event"",""trial"",""time""
""fullscreenenter"",""1"",""2449""
","
","true","","","","","","","","","","","","","","","","","","",""
"pit-instructions","2","8660","0.0-2.0-0.0","battery-v0.2","","""event"",""trial"",""time""
""fullscreenenter"",""1"",""2449""
","
","
","""event"",""trial"",""time""
""fullscreenenter"",""1"",""2449""
","
","","[{""page_index"":0,""viewing_time"":5222.9000000059605}]","5224.799999982119","","","","","","","","","","","","","","","","",""
"pit-comprehension","3","12285","0.0-2.0-1.0-0.0","battery-v0.2","","""event"",""trial"",""time""
""fullscreenenter"",""1"",""2449""
","
","
","""event"",""trial"",""time""
""fullscreenenter"",""1"",""2449""
","
","","","3617.2999999821186","[""shark""]","0","16","1286","965","","","","","","","","","","","",""
"pit-instructions","4","14842","0.0-2.0-1.0-1.0","battery-v0.2","","""event"",""trial"",""time""
""fullscreenenter"",""1"",""2449""
","
","
","""event"",""trial"",""time""
""fullscreenenter"",""1"",""2449""
","
","","[{""page_index"":0,""viewing_time"":2537}]","2537.800000011921","","","","","","","","","","","","","","","","",""
"pit-comprehension","5","19334","0.0-2.0-2.0-0.0","battery-v0.2","","""event"",""trial"",""time""
""fullscreenenter"",""1"",""2449""
","
","
","""event"",""trial"",""time""
""fullscreenenter"",""1"",""2449""
","
","","","4484.300000011921","[""tiger""]","0","16","1286","965","","","","","","","","","","","",""
"pit-instructions","6","21427","0.0-2.0-2.0-1.0","battery-v0.2","","""event"",""trial"",""time""
""fullscreenenter"",""1"",""2449""
","
","
","""event"",""trial"",""time""
""fullscreenenter"",""1"",""2449""
","
","","[{""page_index"":0,""viewing_time"":2086.699999988079}]","2088","","","","","","","","","","","","","","","","",""
"pit-instructions","7","132807","0.0-2.0-3.0","battery-v0.2","","""event"",""trial"",""time""
""fullscreenenter"",""1"",""2449""
","
","
","""event"",""trial"",""time""
""fullscreenenter"",""1"",""2449""
","
","","[{""page_index"":0,""viewing_time"":10802.5},{""page_index"":1,""viewing_time"":7382.9000000059605},{""page_index"":2,""viewing_time"":7178.5},{""page_index"":3,""viewing_time"":6281.199999988079},{""page_index"":4,""viewing_time"":8191.5999999940395},{""page_index"":5,""viewing_time"":6742.100000023842},{""page_index"":6,""viewing_time"":9926.299999982119},{""page_index"":7,""viewing_time"":7861.300000011921},{""page_index"":8,""viewing_time"":7297.299999982119},{""page_index"":9,""viewing_time"":9022},{""page_index"":10,""viewing_time"":8933.5},{""page_index"":11,""viewing_time"":9040.100000023842},{""page_index"":12,""viewing_time"":7188.5999999940395},{""page_index"":13,""viewing_time"":5523.5}]","111372.69999998808","","","","","","","","","","","","","","","","",""
"pit-trial","8","135840","0.0-2.0-4.0-0.0","battery-v0.2","","""event"",""trial"",""time""
""fullscreenenter"",""1"",""2449""
","
","
","""event"",""trial"",""time""
""fullscreenenter"",""1"",""2449""
","
","","","175.59999999403954","","","16","1286","965","&#9784;","elianto","#FFFFF080"," "," ","1","&#10004","[1025.7000000178814]","1","0","0",""
"pit-trial","9","138976","0.0-2.0-4.1-0.1","battery-v0.2","","""event"",""trial"",""time""
""fullscreenenter"",""1"",""2449""
","
","
","""event"",""trial"",""time""
""fullscreenenter"",""1"",""2449""
","
","","","278.2999999821186","","","16","1286","965","&#9784;","elianto","#FFFFF080"," "," ","1","&#10004","[1128.300000011921]","1","0","0",""
"pit-trial","10","142044","0.0-2.0-4.2-0.2","battery-v0.2","","""event"",""trial"",""time""
""fullscreenenter"",""1"",""2449""
","
","
","""event"",""trial"",""time""
""fullscreenenter"",""1"",""2449""
","
","","","212.2000000178814","","","16","1286","965","&#9784;","elianto","#FFFFF080"," "," ","1","&#10004","[1062.300000011921]","1","0","0",""
"pit-trial","11","145433","0.0-2.0-4.3-0.3","battery-v0.2","","""event"",""trial"",""time""
""fullscreenenter"",""1"",""2449""
","
","
","""event"",""trial"",""time""
""fullscreenenter"",""1"",""2449""
","
","","","532.9000000059605","","","16","1286","965","&#9784;","elianto","#FFFFF080"," "," ","1","&#10004","[1383.1000000238419]","1","0","0",""
"pit-trial","12","149169","0.0-2.0-4.4-0.4","battery-v0.2","","""event"",""trial"",""time""
""fullscreenenter"",""1"",""2449""
","
","
","""event"",""trial"",""time""
""fullscreenenter"",""1"",""2449""
","
","","","878.9000000059605","","","16","1286","965","&#9784;","elianto","#FFFFF080"," "," ","1","&#10004","[1730.4000000059605]","1","0","0",""
"pit-instructions","13","174179","0.0-2.0-5.0","battery-v0.2","","""event"",""trial"",""time""
""fullscreenenter"",""1"",""2449""
","
","
","""event"",""trial"",""time""
""fullscreenenter"",""1"",""2449""
","
","","[{""page_index"":0,""viewing_time"":6184.299999982119},{""page_index"":1,""viewing_time"":6741.700000017881},{""page_index"":2,""viewing_time"":6370.0999999940395},{""page_index"":3,""viewing_time"":5708}]","25004.90000000596","","","","","","","","","","","","","","","","",""
"pit-trial","14","179034","0.0-2.0-6.0-0.0","battery-v0.2","","""event"",""trial"",""time""
""fullscreenenter"",""1"",""2449""
","
","
","""event"",""trial"",""time""
""fullscreenenter"",""1"",""2449""
","
","","","-1","","","16","1286","965","&#9854;","elianto","#FFFFF080","-1","-1","1","&#10004","[]","0","0","1",""
"pit-trial","15","183890","0.0-2.0-6.1-0.1","battery-v0.2","","""event"",""trial"",""time""
""fullscreenenter"",""1"",""2449""
","
","
","""event"",""trial"",""time""
""fullscreenenter"",""1"",""2449""
","
","","","-1","","","16","1286","965","&#9854;","elianto","#FFFFF080","-1","-1","1","&#10004","[]","0","0","1",""
"pit-trial","16","188746","0.0-2.0-6.2-0.2","battery-v0.2","","""event"",""trial"",""time""
""fullscreenenter"",""1"",""2449""
","
","
","""event"",""trial"",""time""
""fullscreenenter"",""1"",""2449""
","
","","","-1","","","16","1286","965","&#9854;","elianto","#FFFFF080","-1","-1","1","&#10004","[]","0","0","1",""
"pit-trial","17","193602","0.0-2.0-6.3-0.3","battery-v0.2","","""event"",""trial"",""time""
""fullscreenenter"",""1"",""2449""
","
","
","""event"",""trial"",""time""
""fullscreenenter"",""1"",""2449""
","
","","","-1","","","16","1286","965","&#9854;","elianto","#FFFFF080","-1","-1","1","&#10004","[]","0","0","1",""
"pit-trial","18","198457","0.0-2.0-6.4-0.4","battery-v0.2","","""event"",""trial"",""time""
""fullscreenenter"",""1"",""2449""
","
","
","""event"",""trial"",""time""
""fullscreenenter"",""1"",""2449""
","
","","","-1","","","16","1286","965","&#9854;","elianto","#FFFFF080","-1","-1","1","&#10004","[]","0","0","1",""
"pit-instructions","19","339685","0.0-2.0-7.0","battery-v0.2","","""event"",""trial"",""time""
""fullscreenenter"",""1"",""2449""
","
","
","""event"",""trial"",""time""
""fullscreenenter"",""1"",""2449""
","
","","[{""page_index"":0,""viewing_time"":8417.90000000596},{""page_index"":1,""viewing_time"":8895.299999982119},{""page_index"":2,""viewing_time"":7520.200000017881},{""page_index"":3,""viewing_time"":7033.9000000059605},{""page_index"":4,""viewing_time"":5776.799999982119},{""page_index"":5,""viewing_time"":6769.300000011921},{""page_index"":6,""viewing_time"":6829.5},{""page_index"":7,""viewing_time"":9780.699999988079},{""page_index"":8,""viewing_time"":6732.300000011921},{""page_index"":9,""viewing_time"":5835.299999982119},{""page_index"":10,""viewing_time"":10878.100000023842},{""page_index"":11,""viewing_time"":5553.5},{""page_index"":12,""viewing_time"":8178.399999976158},{""page_index"":13,""viewing_time"":8152.200000017881},{""page_index"":14,""viewing_time"":8400.59999999404},{""page_index"":15,""viewing_time"":6703.199999988079},{""page_index"":16,""viewing_time"":10861.800000011921},{""page_index"":17,""viewing_time"":8900.90000000596}]","141220.90000000596","","","","","","","","","","","","","","","","",""
"pit-trial","20","343275","0.0-2.0-8.0-0.0","battery-v0.2","","""event"",""trial"",""time""
""fullscreenenter"",""1"",""2449""
","
","
","""event"",""trial"",""time""
""fullscreenenter"",""1"",""2449""
","
","","","736.3000000119209","","","16","1286","965","&#9776;","elianto","#3366ff99"," "," ","1","+10","[1586.4000000059605]","1","0","1",""
"pit-trial","21","346771","0.0-2.0-8.0-1.0","battery-v0.2","","""event"",""trial"",""time""
""fullscreenenter"",""1"",""2449""
","
","
","""event"",""trial"",""time""
""fullscreenenter"",""1"",""2449""
","
","","","640.3999999761581","","","16","1286","965","&#9776;","elianto","#3366ff99"," "," ","1","+10","[1490.5]","1","0","1",""
"pit-trial","22","350124","0.0-2.0-8.0-2.0","battery-v0.2","","""event"",""trial"",""time""
""fullscreenenter"",""1"",""2449""
","
","
","""event"",""trial"",""time""
""fullscreenenter"",""1"",""2449""
","
","","","497.60000002384186","","","16","1286","965","&#9776;","elianto","#3366ff99"," "," ","1","+10","[1347.699999988079]","1","0","1",""
"pit-trial","23","353484","0.0-2.0-8.0-3.0","battery-v0.2","","""event"",""trial"",""time""
""fullscreenenter"",""1"",""2449""
","
","
","""event"",""trial"",""time""
""fullscreenenter"",""1"",""2449""
","
","","","505.40000000596046","","","16","1286","965","&#9776;","elianto","#3366ff99"," "," ","1","0","[1355.5]","1","0","1",""
"pit-trial","24","356826","0.0-2.0-8.0-4.0","battery-v0.2","","""event"",""trial"",""time""
""fullscreenenter"",""1"",""2449""
","
","
","""event"",""trial"",""time""
""fullscreenenter"",""1"",""2449""
","
","","","487.69999998807907","","","16","1286","965","&#9776;","elianto","#3366ff99"," "," ","1","+10","[1337.8999999761581]","1","0","1",""
"call-function","25","356830","0.0-2.0-9.0","battery-v0.2","","""event"",""trial"",""time""
""fullscreenenter"",""1"",""2449""
","
","
","""event"",""trial"",""time""
""fullscreenenter"",""1"",""2449""
","
","","","","","","","","","","","","","","","","","","","",""
"pit-instructions","26","402302","0.0-2.0-10.0","battery-v0.2","","""event"",""trial"",""time""
""fullscreenenter"",""1"",""2449""
","
","
","""event"",""trial"",""time""
""fullscreenenter"",""1"",""2449""
","
","","[{""page_index"":0,""viewing_time"":6858.700000017881},{""page_index"":1,""viewing_time"":8141.899999976158},{""page_index"":2,""viewing_time"":10901.100000023842},{""page_index"":3,""viewing_time"":11201.09999999404},{""page_index"":4,""viewing_time"":8366.90000000596}]","45471","","","","","","","","","","","","","","","","",""
"pit-trial","27","405992","0.0-2.0-11.0-0.0","battery-v0.2","","""event"",""trial"",""time""
""fullscreenenter"",""1"",""2449""
","
","
","""event"",""trial"",""time""
""fullscreenenter"",""1"",""2449""
","
","","","835.4000000059605","","","16","1286","965","&#9761;","elianto","#3366ff99","-1"," ","0","0","[1685.7000000178814]","1","0","2",""
"pit-trial","28","409446","0.0-2.0-11.0-1.0","battery-v0.2","","""event"",""trial"",""time""
""fullscreenenter"",""1"",""2449""
","
","
","""event"",""trial"",""time""
""fullscreenenter"",""1"",""2449""
","
","","","599.3000000119209","","","16","1286","965","&#9761;","elianto","#3366ff99","-1"," ","0","0","[1450]","1","0","2",""
"pit-trial","29","412865","0.0-2.0-11.0-2.0","battery-v0.2","","""event"",""trial"",""time""
""fullscreenenter"",""1"",""2449""
","
","
","""event"",""trial"",""time""
""fullscreenenter"",""1"",""2449""
","
","","","564.2999999821186","","","16","1286","965","&#9761;","elianto","#3366ff99","-1"," ","0","0","[1414.300000011921]","1","0","2",""
"pit-trial","30","416239","0.0-2.0-11.0-3.0","battery-v0.2","","""event"",""trial"",""time""
""fullscreenenter"",""1"",""2449""
","
","
","""event"",""trial"",""time""
""fullscreenenter"",""1"",""2449""
","
","","","519.1000000238419","","","16","1286","965","&#9761;","elianto","#3366ff99","-1"," ","0","+10","[1369.5]","1","0","2",""
"pit-trial","31","419607","0.0-2.0-11.0-4.0","battery-v0.2","","""event"",""trial"",""time""
""fullscreenenter"",""1"",""2449""
","
","
","""event"",""trial"",""time""
""fullscreenenter"",""1"",""2449""
","
","","","513.6999999880791","","","16","1286","965","&#9761;","elianto","#3366ff99","-1"," ","0","0","[1363.9000000059605]","1","0","2",""
"pit-trial","32","422966","0.0-2.0-11.1-0.1","battery-v0.2","","""event"",""trial"",""time""
""fullscreenenter"",""1"",""2449""
","
","
","""event"",""trial"",""time""
""fullscreenenter"",""1"",""2449""
","
","","","503.69999998807907","","","16","1286","965","&#9761;","elianto","#3366ff99","-1"," ","0","0","[1353.699999988079]","1","0","2",""
"pit-trial","33","426321","0.0-2.0-11.1-1.1","battery-v0.2","","""event"",""trial"",""time""
""fullscreenenter"",""1"",""2449""
","
","
","""event"",""trial"",""time""
""fullscreenenter"",""1"",""2449""
","
","","","497","","","16","1286","965","&#9761;","elianto","#3366ff99","-1"," ","0","0","[1350.4000000059605]","1","0","2",""
"pit-trial","34","429655","0.0-2.0-11.1-2.1","battery-v0.2","","""event"",""trial"",""time""
""fullscreenenter"",""1"",""2449""
","
","
","""event"",""trial"",""time""
""fullscreenenter"",""1"",""2449""
","
","","","480.59999999403954","","","16","1286","965","&#9761;","elianto","#3366ff99","-1"," ","0","0","[1330.800000011921]","1","0","2",""
"pit-trial","35","432925","0.0-2.0-11.1-3.1","battery-v0.2","","""event"",""trial"",""time""
""fullscreenenter"",""1"",""2449""
","
","
","""event"",""trial"",""time""
""fullscreenenter"",""1"",""2449""
","
","","","416","","","16","1286","965","&#9761;","elianto","#3366ff99","-1"," ","0","+10","[1266.2999999821186]","1","0","2",""
"pit-trial","36","436199","0.0-2.0-11.1-4.1","battery-v0.2","","""event"",""trial"",""time""
""fullscreenenter"",""1"",""2449""
","
","
","""event"",""trial"",""time""
""fullscreenenter"",""1"",""2449""
","
","","","419.7000000178814","","","16","1286","965","&#9761;","elianto","#3366ff99","-1"," ","0","0","[1269.7999999821186]","1","0","2",""
"pit-trial","37","439363","0.0-2.0-11.2-0.2","battery-v0.2","","""event"",""trial"",""time""
""fullscreenenter"",""1"",""2449""
","
","
","""event"",""trial"",""time""
""fullscreenenter"",""1"",""2449""
","
","","","309.69999998807907","","","16","1286","965","&#9761;","elianto","#3366ff99","-1"," ","0","0","[1159.699999988079]","1","0","2",""
"pit-trial","38","444218","0.0-2.0-11.2-1.2","battery-v0.2","","""event"",""trial"",""time""
""fullscreenenter"",""1"",""2449""
","
","
","""event"",""trial"",""time""
""fullscreenenter"",""1"",""2449""
","
","","","-1","","","16","1286","965","&#9761;","elianto","#3366ff99","-1","-1","1","+10","[]","0","0","2",""
"pit-trial","39","447663","0.0-2.0-11.2-2.2","battery-v0.2","","""event"",""trial"",""time""
""fullscreenenter"",""1"",""2449""
","
","
","""event"",""trial"",""time""
""fullscreenenter"",""1"",""2449""
","
","","","590.3000000119209","","","16","1286","965","&#9761;","elianto","#3366ff99","-1"," ","0","0","[1440.4000000059605]","1","0","2",""
"pit-trial","40","452517","0.0-2.0-11.2-3.2","battery-v0.2","","""event"",""trial"",""time""
""fullscreenenter"",""1"",""2449""
","
","
","""event"",""trial"",""time""
""fullscreenenter"",""1"",""2449""
","
","","","-1","","","16","1286","965","&#9761;","elianto","#3366ff99","-1","-1","1","0","[]","0","0","2",""
"pit-trial","41","455833","0.0-2.0-11.2-4.2","battery-v0.2","","""event"",""trial"",""time""
""fullscreenenter"",""1"",""2449""
","
","
","""event"",""trial"",""time""
""fullscreenenter"",""1"",""2449""
","
","","","461.59999999403954","","","16","1286","965","&#9761;","elianto","#3366ff99","-1"," ","0","0","[1312]","1","0","2",""
"pit-trial","42","458905","0.0-2.0-11.3-0.3","battery-v0.2","","""event"",""trial"",""time""
""fullscreenenter"",""1"",""2449""
","
","
","""event"",""trial"",""time""
""fullscreenenter"",""1"",""2449""
","
","","","215.80000001192093","","","16","1286","965","&#9761;","elianto","#3366ff99","-1"," ","0","0","[1066.2000000178814]","1","0","2",""
"pit-trial","43","462170","0.0-2.0-11.3-1.3","battery-v0.2","","""event"",""trial"",""time""
""fullscreenenter"",""1"",""2449""
","
","
","""event"",""trial"",""time""
""fullscreenenter"",""1"",""2449""
","
","","","408.5","","","16","1286","965","&#9761;","elianto","#3366ff99","-1"," ","0","0","[1260.2000000178814]","1","0","2",""
"pit-trial","44","465416","0.0-2.0-11.3-2.3","battery-v0.2","","""event"",""trial"",""time""
""fullscreenenter"",""1"",""2449""
","
","
","""event"",""trial"",""time""
""fullscreenenter"",""1"",""2449""
","
","","","389.80000001192093","","","16","1286","965","&#9761;","elianto","#3366ff99","-1"," ","0","0","[1241.8999999761581]","1","0","2",""
"pit-trial","45","468458","0.0-2.0-11.3-3.3","battery-v0.2","","""event"",""trial"",""time""
""fullscreenenter"",""1"",""2449""
","
","
","""event"",""trial"",""time""
""fullscreenenter"",""1"",""2449""
","
","","","186.40000000596046","","","16","1286","965","&#9761;","elianto","#3366ff99","-1"," ","0","+10","[1037.5999999940395]","1","0","2",""
"pit-trial","46","471687","0.0-2.0-11.3-4.3","battery-v0.2","","""event"",""trial"",""time""
""fullscreenenter"",""1"",""2449""
","
","
","""event"",""trial"",""time""
""fullscreenenter"",""1"",""2449""
","
","","","375","","","16","1286","965","&#9761;","elianto","#3366ff99","-1"," ","0","0","[1225.5]","1","0","2",""
"pit-trial","47","474933","0.0-2.0-11.4-0.4","battery-v0.2","","""event"",""trial"",""time""
""fullscreenenter"",""1"",""2449""
","
","
","""event"",""trial"",""time""
""fullscreenenter"",""1"",""2449""
","
","","","389.90000000596046","","","16","1286","965","&#9761;","elianto","#3366ff99","-1"," ","0","0","[1240.0999999940395]","1","0","2",""
"pit-trial","48","478146","0.0-2.0-11.4-1.4","battery-v0.2","","""event"",""trial"",""time""
""fullscreenenter"",""1"",""2449""
","
","
","""event"",""trial"",""time""
""fullscreenenter"",""1"",""2449""
","
","","","358.19999998807907","","","16","1286","965","&#9761;","elianto","#3366ff99","-1"," ","0","0","[1208.2999999821186]","1","0","2",""
"pit-trial","49","481469","0.0-2.0-11.4-2.4","battery-v0.2","","""event"",""trial"",""time""
""fullscreenenter"",""1"",""2449""
","
","
","""event"",""trial"",""time""
""fullscreenenter"",""1"",""2449""
","
","","","464.90000000596046","","","16","1286","965","&#9761;","elianto","#3366ff99","-1"," ","0","0","[1319]","1","0","2",""
"pit-trial","50","484807","0.0-2.0-11.4-3.4","battery-v0.2","","""event"",""trial"",""time""
""fullscreenenter"",""1"",""2449""
","
","
","""event"",""trial"",""time""
""fullscreenenter"",""1"",""2449""
","
","","","483.7000000178814","","","16","1286","965","&#9761;","elianto","#3366ff99","-1"," ","0","+10","[1333.800000011921]","1","0","2",""
"pit-trial","51","488022","0.0-2.0-11.4-4.4","battery-v0.2","","""event"",""trial"",""time""
""fullscreenenter"",""1"",""2449""
","
","
","""event"",""trial"",""time""
""fullscreenenter"",""1"",""2449""
","
","","","359.89999997615814","","","16","1286","965","&#9761;","elianto","#3366ff99","-1"," ","0","0","[1209.9000000059605]","1","0","2",""
"pit-instructions","52","533698","0.0-2.0-11.4-5.4-0.4","battery-v0.2","","""event"",""trial"",""time""
""fullscreenenter"",""1"",""2449""
","
","
","""event"",""trial"",""time""
""fullscreenenter"",""1"",""2449""
","
","","[{""page_index"":0,""viewing_time"":9350},{""page_index"":1,""viewing_time"":6943.5},{""page_index"":2,""viewing_time"":11037.799999982119},{""page_index"":1,""viewing_time"":633.2000000178814},{""page_index"":0,""viewing_time"":3586.5},{""page_index"":1,""viewing_time"":1763.699999988079},{""page_index"":2,""viewing_time"":12357}]","45673","","","","","","","","","","","","","","","","",""
"pit-trial","53","536979","0.0-2.0-11.5-0.5","battery-v0.2","","""event"",""trial"",""time""
""fullscreenenter"",""1"",""2449""
","
","
","""event"",""trial"",""time""
""fullscreenenter"",""1"",""2449""
","
","","","425.19999998807907","","","16","1286","965","&#9761;","elianto","#3366ff99","-1"," ","0","0","[1275.5]","1","0","2",""
"pit-trial","54","541088","0.0-2.0-11.5-1.5","battery-v0.2","","""event"",""trial"",""time""
""fullscreenenter"",""1"",""2449""
""fullscreenexit"",""55"",""542868""
""blur"",""55"",""546454""
","""event"",""trial"",""time""
""blur"",""55"",""546454""
","
","""event"",""trial"",""time""
""fullscreenenter"",""1"",""2449""
","""event"",""trial"",""time""
""fullscreenexit"",""55"",""542868""
","","","1254.199999988079","","","16","1286","965","&#9761;","elianto","#3366ff99","-1"," ","0","0","[2104.2999999821186]","1","0","2",""
"pit-trial","55","546456","0.0-2.0-11.5-2.5","battery-v0.2","","""event"",""trial"",""time""
""fullscreenenter"",""1"",""2449""
""fullscreenexit"",""55"",""542868""
""blur"",""55"",""546454""
""focus"",""56"",""546465""
","""event"",""trial"",""time""
""blur"",""55"",""546454""
","""event"",""trial"",""time""
""focus"",""56"",""546465""
","""event"",""trial"",""time""
""fullscreenenter"",""1"",""2449""
","""event"",""trial"",""time""
""fullscreenexit"",""55"",""542868""
","","","-1","","","16","1286","965","&#9761;","elianto","#3366ff99","-1","-1","1","+10","[]","0","0","2",""
