"trial_type","trial_index","time_elapsed","internal_node_id","task_version","view_history","rt","rune","rune_set","hex","correct","choice","accuracy","outcome","keys","total_keys","block","practice","subject","participantId","value","responses","num_errors","sub","trial","stimulus","robot","valence","action","sham"
"pavlovia","0","11","0.0-0.0","battery-v0.2","","","","","","","","","","","","","","","","","","","","","","","","",""
"pit-instructions","1","63220","0.0-1.0-0.0","battery-v0.2","[{""page_index"":0,""viewing_time"":2567.2000000476837},{""page_index"":1,""viewing_time"":3321.5},{""page_index"":2,""viewing_time"":2248.0999999046326},{""page_index"":3,""viewing_time"":4649.299999952316},{""page_index"":4,""viewing_time"":1760.5},{""page_index"":5,""viewing_time"":2806.2000000476837},{""page_index"":6,""viewing_time"":3755.7999999523163},{""page_index"":7,""viewing_time"":1645},{""page_index"":8,""viewing_time"":3836.100000143051},{""page_index"":9,""viewing_time"":6365},{""page_index"":10,""viewing_time"":1071.0999999046326},{""page_index"":11,""viewing_time"":1280},{""page_index"":12,""viewing_time"":3798.7000000476837},{""page_index"":13,""viewing_time"":3106.9000000953674},{""page_index"":14,""viewing_time"":6492.099999904633},{""page_index"":15,""viewing_time"":2382.7999999523163},{""page_index"":16,""viewing_time"":7253.100000143051},{""page_index"":17,""viewing_time"":4867.199999809265}]","63206.799999952316","","","","","","","","","","","","","","","","","","","","","","",""
"pit-trial","2","66538","0.0-1.0-1.0-0.0","battery-v0.2","","460.39999985694885","&#9776;","elianto","#3366ff99","32","32","1","+10","1311.3999998569489","1","0","1","608841496e9715786abdcd13&order=2&STUDY_ID=61bb98616f28aedf5237274a","999","","","","","","","","","",""
"pit-trial","3","69911","0.0-1.0-1.0-1.0","battery-v0.2","","503.89999985694885","&#9776;","elianto","#3366ff99","32","32","1","+10","1357.5999999046326","1","0","1","608841496e9715786abdcd13&order=2&STUDY_ID=61bb98616f28aedf5237274a","999","","","","","","","","","",""
"pit-trial","4","73243","0.0-1.0-1.0-2.0","battery-v0.2","","478.7999999523163","&#9776;","elianto","#3366ff99","32","32","1","+10","1329.0999999046326","1","0","1","608841496e9715786abdcd13&order=2&STUDY_ID=61bb98616f28aedf5237274a","999","","","","","","","","","",""
"pit-trial","5","76520","0.0-1.0-1.0-3.0","battery-v0.2","","418.39999985694885","&#9776;","elianto","#3366ff99","32","32","1","0","1273.1000001430511","1","0","1","608841496e9715786abdcd13&order=2&STUDY_ID=61bb98616f28aedf5237274a","999","","","","","","","","","",""
"pit-trial","6","79782","0.0-1.0-1.0-4.0","battery-v0.2","","403.69999980926514","&#9776;","elianto","#3366ff99","32","32","1","+10","1255.3000001907349","1","0","1","608841496e9715786abdcd13&order=2&STUDY_ID=61bb98616f28aedf5237274a","999","","","","","","","","","",""
"call-function","7","79783","0.0-1.0-2.0","battery-v0.2","","","","","","","","","","","","","","","","","","","","","","","","",""
"pit-instructions","8","101878","0.0-1.0-3.0","battery-v0.2","[{""page_index"":0,""viewing_time"":6001.799999952316},{""page_index"":1,""viewing_time"":5376.099999904633},{""page_index"":2,""viewing_time"":5334.900000095367},{""page_index"":3,""viewing_time"":5380.900000095367}]","22093.89999985695","","","","","","","","","","","","","","","","","","","","","","",""
"pit-trial","9","105221","0.0-1.0-4.0-0.0","battery-v0.2","","486.7999999523163","&#9761;","elianto","#3366ff99","-1","32","0","0","1341.0999999046326","1","0","2","608841496e9715786abdcd13&order=2&STUDY_ID=61bb98616f28aedf5237274a","999","","","","","","","","","",""
"pit-trial","10","108498","0.0-1.0-4.0-1.0","battery-v0.2","","422.2999999523163","&#9761;","elianto","#3366ff99","-1","32","0","0","1274.2999999523163","1","0","2","608841496e9715786abdcd13&order=2&STUDY_ID=61bb98616f28aedf5237274a","999","","","","","","","","","",""
"pit-trial","11","113362","0.0-1.0-4.0-2.0","battery-v0.2","","-1","&#9761;","elianto","#3366ff99","-1","-1","1","+10","","0","0","2","608841496e9715786abdcd13&order=2&STUDY_ID=61bb98616f28aedf5237274a","999","","","","","","","","","",""
"pit-trial","12","118226","0.0-1.0-4.0-3.0","battery-v0.2","","-1","&#9761;","elianto","#3366ff99","-1","-1","1","+10","","0","0","2","608841496e9715786abdcd13&order=2&STUDY_ID=61bb98616f28aedf5237274a","999","","","","","","","","","",""
"pit-trial","13","123094","0.0-1.0-4.0-4.0","battery-v0.2","","-1","&#9761;","elianto","#3366ff99","-1","-1","1","0","","0","0","2","608841496e9715786abdcd13&order=2&STUDY_ID=61bb98616f28aedf5237274a","999","","","","","","","","","",""
"call-function","14","123095","0.0-1.0-5.0","battery-v0.2","","","","","","","","","","","","","","","","","","","","","","","","",""
"pit-instructions","15","129776","0.0-1.0-6.0","battery-v0.2","[{""page_index"":0,""viewing_time"":3485},{""page_index"":1,""viewing_time"":3195.9000000953674}]","6681","","","","","","","","","","","","","","","","","","","","","","",""
"pit-trial","16","133058","0.0-1.0-7.0-0.0","battery-v0.2","","422","&#9826;","elianto","#f73b6a7A","-1","32","0","-10","1272.4000000953674","1","0","3","608841496e9715786abdcd13&order=2&STUDY_ID=61bb98616f28aedf5237274a","999","","","","","","","","","",""
"pit-trial","17","137912","0.0-1.0-7.0-1.0","battery-v0.2","","-1","&#9826;","elianto","#f73b6a7A","-1","-1","1","0","","0","0","3","608841496e9715786abdcd13&order=2&STUDY_ID=61bb98616f28aedf5237274a","999","","","","","","","","","",""
"pit-trial","18","142769","0.0-1.0-7.0-2.0","battery-v0.2","","-1","&#9826;","elianto","#f73b6a7A","-1","-1","1","-10","","0","0","3","608841496e9715786abdcd13&order=2&STUDY_ID=61bb98616f28aedf5237274a","999","","","","","","","","","",""
"pit-trial","19","147644","0.0-1.0-7.0-3.0","battery-v0.2","","-1","&#9826;","elianto","#f73b6a7A","-1","-1","1","0","","0","0","3","608841496e9715786abdcd13&order=2&STUDY_ID=61bb98616f28aedf5237274a","999","","","","","","","","","",""
"pit-trial","20","152521","0.0-1.0-7.0-4.0","battery-v0.2","","-1","&#9826;","elianto","#f73b6a7A","-1","-1","1","0","","0","0","3","608841496e9715786abdcd13&order=2&STUDY_ID=61bb98616f28aedf5237274a","999","","","","","","","","","",""
"call-function","21","152522","0.0-1.0-8.0","battery-v0.2","","","","","","","","","","","","","","","","","","","","","","","","",""
"pit-instructions","22","161446","0.0-1.0-9.0","battery-v0.2","[{""page_index"":0,""viewing_time"":5323},{""page_index"":1,""viewing_time"":3600.399999856949}]","8923.599999904633","","","","","","","","","","","","","","","","","","","","","","",""
"pit-trial","23","164682","0.0-1.0-10.0-0.0","battery-v0.2","","383.2000000476837","&#9789;","elianto","#f73b6a7A","32","32","1","0","1233.5","1","0","4","608841496e9715786abdcd13&order=2&STUDY_ID=61bb98616f28aedf5237274a","999","","","","","","","","","",""
"pit-trial","24","167924","0.0-1.0-10.0-1.0","battery-v0.2","","378.7000000476837","&#9789;","elianto","#f73b6a7A","32","32","1","0","1231.7000000476837","1","0","4","608841496e9715786abdcd13&order=2&STUDY_ID=61bb98616f28aedf5237274a","999","","","","","","","","","",""
"pit-trial","25","171151","0.0-1.0-10.0-2.0","battery-v0.2","","360.09999990463257","&#9789;","elianto","#f73b6a7A","32","32","1","0","1213.7000000476837","1","0","4","608841496e9715786abdcd13&order=2&STUDY_ID=61bb98616f28aedf5237274a","999","","","","","","","","","",""
"pit-trial","26","174434","0.0-1.0-10.0-3.0","battery-v0.2","","418.30000019073486","&#9789;","elianto","#f73b6a7A","32","32","1","0","1268.6000001430511","1","0","4","608841496e9715786abdcd13&order=2&STUDY_ID=61bb98616f28aedf5237274a","999","","","","","","","","","",""
"pit-trial","27","177659","0.0-1.0-10.0-4.0","battery-v0.2","","369.19999980926514","&#9789;","elianto","#f73b6a7A","32","32","1","-10","1219.6999998092651","1","0","4","608841496e9715786abdcd13&order=2&STUDY_ID=61bb98616f28aedf5237274a","999","","","","","","","","","",""
"call-function","28","177660","0.0-1.0-11.0","battery-v0.2","","","","","","","","","","","","","","","","","","","","","","","","",""
"pit-instructions","29","198671","0.0-1.0-12.0","battery-v0.2","[{""page_index"":0,""viewing_time"":3062.7999999523163},{""page_index"":1,""viewing_time"":7617.100000143051},{""page_index"":2,""viewing_time"":5068.799999952316},{""page_index"":3,""viewing_time"":3759.0999999046326},{""page_index"":4,""viewing_time"":1503}]","21011","","","","","","","","","","","","","","","","","","","","","","",""
"pit-comprehension","30","204029","0.0-1.0-13.0-0.0","battery-v0.2","","5357.099999904633","","","","","","","","","","","","","","","SPACE","0","","","","","","",""
"pit-instructions","31","205346","0.0-1.0-13.0-1.0","battery-v0.2","[{""page_index"":0,""viewing_time"":1303.7000000476837}]","1303.9000000953674","","","","","","","","","","","","","","","","","","","","","","",""
"pit-comprehension","32","212194","0.0-1.0-14.0-0.0","battery-v0.2","","6847","","","","","","","","","","","","","","","10","0","","","","","","",""
"pit-instructions","33","213188","0.0-1.0-14.0-1.0","battery-v0.2","[{""page_index"":0,""viewing_time"":989.7999999523163}]","989.9000000953674","","","","","","","","","","","","","","","","","","","","","","",""
"pit-comprehension","34","219855","0.0-1.0-15.0-0.0","battery-v0.2","","6665.200000047684","","","","","","","","","","","","","","","0","0","","","","","","",""
"pit-instructions","35","220658","0.0-1.0-15.0-1.0","battery-v0.2","[{""page_index"":0,""viewing_time"":799.3000001907349}]","799.4000000953674","","","","","","","","","","","","","","","","","","","","","","",""
"pit-comprehension","36","227354","0.0-1.0-16.0-0.0","battery-v0.2","","6694","","","","","","","","","","","","","","","True","0","","","","","","",""
"pit-instructions","37","228021","0.0-1.0-16.0-1.0","battery-v0.2","[{""page_index"":0,""viewing_time"":662.6000001430511}]","662.9000000953674","","","","","","","","","","","","","","","","","","","","","","",""
"pit-comprehension","38","232860","0.0-1.0-17.0-0.0","battery-v0.2","","4837.899999856949","","","","","","","","","","","","","","","True","0","","","","","","",""
"pit-instructions","39","233613","0.0-1.0-17.0-1.0","battery-v0.2","[{""page_index"":0,""viewing_time"":747.7999999523163}]","748","","","","","","","","","","","","","","","","","","","","","","",""
"pit-comprehension","40","237651","0.0-1.0-18.0-0.0","battery-v0.2","","4036","","","","","","","","","","","","","","","True","0","","","","","","",""
"pit-instructions","41","238543","0.0-1.0-18.0-1.0","battery-v0.2","[{""page_index"":0,""viewing_time"":887.5}]","887.7000000476837","","","","","","","","","","","","","","","","","","","","","","",""
"pit-instructions","42","246679","0.0-2.0","battery-v0.2","[{""page_index"":0,""viewing_time"":1657},{""page_index"":1,""viewing_time"":3278.0999999046326},{""page_index"":2,""viewing_time"":3199.9000000953674}]","8135.200000047684","","","","","","","","","","","","","","","","","","","","","","",""
"pit-trial","43","250099","0.0-3.0","battery-v0.2","","557.0999999046326","&#9730;","elianto","#3366ff99","32","32","1","+10","1407.7000000476837","1","1","","","","","","","608841496e9715786abdcd13&order=2&STUDY_ID=61bb98616f28aedf5237274a","1","1","1","win","go","0"
"pit-trial","44","253728","0.0-4.0","battery-v0.2","","762.7000000476837","&#9733;","elianto","#3366ff99","-1","32","0","0","1613","1","1","","","","","","","608841496e9715786abdcd13&order=2&STUDY_ID=61bb98616f28aedf5237274a","2","2","2","win","no-go","0"
"pit-trial","45","258596","0.0-5.0","battery-v0.2","","-1","&#9752;","elianto","#f73b6a7A","32","-1","0","-10","","0","1","","","","","","","608841496e9715786abdcd13&order=2&STUDY_ID=61bb98616f28aedf5237274a","3","3","3","lose","go","0"
"pit-trial","46","263463","0.0-6.0","battery-v0.2","","-1","&#9728;","elianto","#f73b6a7A","-1","-1","1","0","","0","1","","","","","","","608841496e9715786abdcd13&order=2&STUDY_ID=61bb98616f28aedf5237274a","4","0","4","lose","no-go","0"
"pit-trial","47","267221","0.0-7.0","battery-v0.2","","889","&#9733;","elianto","#3366ff99","-1","32","0","0","1742.5","1","1","","","","","","","608841496e9715786abdcd13&order=2&STUDY_ID=61bb98616f28aedf5237274a","5","2","2","win","no-go","0"
"pit-trial","48","272084","0.0-8.0","battery-v0.2","","-1","&#9752;","elianto","#f73b6a7A","32","-1","0","0","","0","1","","","","","","","608841496e9715786abdcd13&order=2&STUDY_ID=61bb98616f28aedf5237274a","6","3","3","lose","go","1"
"pit-trial","49","275581","0.0-9.0","battery-v0.2","","633.2999999523163","&#9730;","elianto","#3366ff99","32","32","1","+10","1483.8000001907349","1","1","","","","","","","608841496e9715786abdcd13&order=2&STUDY_ID=61bb98616f28aedf5237274a","7","1","1","win","go","0"
"pit-trial","50","278971","0.0-10.0","battery-v0.2","","526.2999999523163","&#9728;","elianto","#f73b6a7A","-1","32","0","0","1376.8999998569489","1","1","","","","","","","608841496e9715786abdcd13&order=2&STUDY_ID=61bb98616f28aedf5237274a","8","0","4","lose","no-go","1"
"pit-trial","51","283840","0.0-11.0","battery-v0.2","","-1","&#9733;","elianto","#3366ff99","-1","-1","1","+10","","0","1","","","","","","","608841496e9715786abdcd13&order=2&STUDY_ID=61bb98616f28aedf5237274a","9","2","2","win","no-go","0"
"pit-trial","52","287425","0.0-12.0","battery-v0.2","","723.0999999046326","&#9730;","elianto","#3366ff99","32","32","1","+10","1573.9000000953674","1","1","","","","","","","608841496e9715786abdcd13&order=2&STUDY_ID=61bb98616f28aedf5237274a","10","1","1","win","go","0"
"pit-trial","53","290914","0.0-13.0","battery-v0.2","","621.5","&#9728;","elianto","#f73b6a7A","-1","32","0","-10","1472.7000000476837","1","1","","","","","","","608841496e9715786abdcd13&order=2&STUDY_ID=61bb98616f28aedf5237274a","11","0","4","lose","no-go","0"
"pit-trial","54","295788","0.0-14.0","battery-v0.2","","-1","&#9752;","elianto","#f73b6a7A","32","-1","0","0","","0","1","","","","","","","608841496e9715786abdcd13&order=2&STUDY_ID=61bb98616f28aedf5237274a","12","3","3","lose","go","1"
"pit-trial","55","300649","0.0-15.0","battery-v0.2","","-1","&#9733;","elianto","#3366ff99","-1","-1","1","+10","","0","1","","","","","","","608841496e9715786abdcd13&order=2&STUDY_ID=61bb98616f28aedf5237274a","13","2","2","win","no-go","0"
"pit-trial","56","305522","0.0-16.0","battery-v0.2","","-1","&#9752;","elianto","#f73b6a7A","32","-1","0","-10","","0","1","","","","","","","608841496e9715786abdcd13&order=2&STUDY_ID=61bb98616f28aedf5237274a","14","3","3","lose","go","0"
"pit-trial","57","308957","0.0-17.0","battery-v0.2","","570.1000001430511","&#9730;","elianto","#3366ff99","32","32","1","+10","1424.4000000953674","1","1","","","","","","","608841496e9715786abdcd13&order=2&STUDY_ID=61bb98616f28aedf5237274a","15","1","1","win","go","0"
"pit-trial","58","312465","0.0-18.0","battery-v0.2","","649.2999999523163","&#9728;","elianto","#f73b6a7A","-1","32","0","-10","1503.2999999523163","1","1","","","","","","","608841496e9715786abdcd13&order=2&STUDY_ID=61bb98616f28aedf5237274a","16","0","4","lose","no-go","0"
"pit-trial","59","317331","0.0-19.0","battery-v0.2","","-1","&#9733;","elianto","#3366ff99","-1","-1","1","+10","","0","1","","","","","","","608841496e9715786abdcd13&order=2&STUDY_ID=61bb98616f28aedf5237274a","17","2","2","win","no-go","0"
"pit-trial","60","322201","0.0-20.0","battery-v0.2","","-1","&#9728;","elianto","#f73b6a7A","-1","-1","1","0","","0","1","","","","","","","608841496e9715786abdcd13&order=2&STUDY_ID=61bb98616f28aedf5237274a","18","0","4","lose","no-go","0"
"pit-trial","61","327080","0.0-21.0","battery-v0.2","","-1","&#9752;","elianto","#f73b6a7A","32","-1","0","0","","0","1","","","","","","","608841496e9715786abdcd13&order=2&STUDY_ID=61bb98616f28aedf5237274a","19","3","3","lose","go","1"
"pit-trial","62","330575","0.0-22.0","battery-v0.2","","638.7999999523163","&#9730;","elianto","#3366ff99","32","32","1","+10","1491.9000000953674","1","1","","","","","","","608841496e9715786abdcd13&order=2&STUDY_ID=61bb98616f28aedf5237274a","20","1","1","win","go","0"
"pit-instructions","63","335581","0.0-23.0","battery-v0.2","[{""page_index"":0,""viewing_time"":2637.5999999046326},{""page_index"":1,""viewing_time"":2367.100000143051}]","5005","","","","","","","","","","","","","","","","","","","","","","",""
"pit-trial","64","340444","0.0-24.0","battery-v0.2","","-1","q","elianto","#3366ff99","-1","-1","1","0","","0","2","","","","","","","608841496e9715786abdcd13&order=2&STUDY_ID=61bb98616f28aedf5237274a","21","0","2","win","no-go","1"
"pit-trial","65","345304","0.0-25.0","battery-v0.2","","-1","x","elianto","#3366ff99","32","-1","0","0","","0","2","","","","","","","608841496e9715786abdcd13&order=2&STUDY_ID=61bb98616f28aedf5237274a","22","3","1","win","go","0"
"pit-trial","66","350167","0.0-26.0","battery-v0.2","","-1","f","elianto","#f73b6a7A","-1","-1","1","0","","0","2","","","","","","","608841496e9715786abdcd13&order=2&STUDY_ID=61bb98616f28aedf5237274a","23","2","4","lose","no-go","0"
"pit-trial","67","355034","0.0-27.0","battery-v0.2","","-1","n","elianto","#f73b6a7A","32","-1","0","-10","","0","2","","","","","","","608841496e9715786abdcd13&order=2&STUDY_ID=61bb98616f28aedf5237274a","24","1","3","lose","go","0"
"pit-trial","68","359894","0.0-28.0","battery-v0.2","","-1","f","elianto","#f73b6a7A","-1","-1","1","0","","0","2","","","","","","","608841496e9715786abdcd13&order=2&STUDY_ID=61bb98616f28aedf5237274a","25","2","4","lose","no-go","0"
"pit-trial","69","363450","0.0-29.0","battery-v0.2","","696.2000000476837","x","elianto","#3366ff99","32","32","1","+10","1551.5999999046326","1","2","","","","","","","608841496e9715786abdcd13&order=2&STUDY_ID=61bb98616f28aedf5237274a","26","3","1","win","go","0"
"pit-trial","70","366815","0.0-30.0","battery-v0.2","","498.90000009536743","q","elianto","#3366ff99","-1","32","0","0","1349.2000000476837","1","2","","","","","","","608841496e9715786abdcd13&order=2&STUDY_ID=61bb98616f28aedf5237274a","27","0","2","win","no-go","0"
"pit-trial","71","370238","0.0-31.0","battery-v0.2","","555","n","elianto","#f73b6a7A","32","32","1","-10","1406.0999999046326","1","2","","","","","","","608841496e9715786abdcd13&order=2&STUDY_ID=61bb98616f28aedf5237274a","28","1","3","lose","go","1"
"pit-trial","72","375100","0.0-32.0","battery-v0.2","","-1","f","elianto","#f73b6a7A","-1","-1","1","0","","0","2","","","","","","","608841496e9715786abdcd13&order=2&STUDY_ID=61bb98616f28aedf5237274a","29","2","4","lose","no-go","0"
"pit-trial","73","378784","0.0-33.0","battery-v0.2","","815.5","x","elianto","#3366ff99","32","32","1","0","1669.8000001907349","1","2","","","","","","","608841496e9715786abdcd13&order=2&STUDY_ID=61bb98616f28aedf5237274a","30","3","1","win","go","1"
"pit-trial","74","382205","0.0-34.0","battery-v0.2","","564.9000000953674","q","elianto","#3366ff99","-1","32","0","+10","1416.7000000476837","1","2","","","","","","","608841496e9715786abdcd13&order=2&STUDY_ID=61bb98616f28aedf5237274a","31","0","2","win","no-go","1"
"pit-trial","75","387080","0.0-35.0","battery-v0.2","","-1","n","elianto","#f73b6a7A","32","-1","0","-10","","0","2","","","","","","","608841496e9715786abdcd13&order=2&STUDY_ID=61bb98616f28aedf5237274a","32","1","3","lose","go","0"
"pit-trial","76","390861","0.0-36.0","battery-v0.2","","928.5","n","elianto","#f73b6a7A","32","32","1","0","1779","1","2","","","","","","","608841496e9715786abdcd13&order=2&STUDY_ID=61bb98616f28aedf5237274a","33","1","3","lose","go","0"
"pit-trial","77","395725","0.0-37.0","battery-v0.2","","-1","f","elianto","#f73b6a7A","-1","-1","1","0","","0","2","","","","","","","608841496e9715786abdcd13&order=2&STUDY_ID=61bb98616f28aedf5237274a","34","2","4","lose","no-go","0"
"pit-trial","78","400593","0.0-38.0","battery-v0.2","","-1","x","elianto","#3366ff99","32","-1","0","0","3315.2000000476837","1","2","","","","","","","608841496e9715786abdcd13&order=2&STUDY_ID=61bb98616f28aedf5237274a","35","3","1","win","go","0"
"pit-trial","79","403973","0.0-39.0","battery-v0.2","","517.7999999523163","q","elianto","#3366ff99","-1","32","0","0","1368.7999999523163","1","2","","","","","","","608841496e9715786abdcd13&order=2&STUDY_ID=61bb98616f28aedf5237274a","36","0","2","win","no-go","0"
"pit-trial","80","408842","0.0-40.0","battery-v0.2","","-1","f","elianto","#f73b6a7A","-1","-1","1","0","","0","2","","","","","","","608841496e9715786abdcd13&order=2&STUDY_ID=61bb98616f28aedf5237274a","37","2","4","lose","no-go","0"
"pit-trial","81","412793","0.0-41.0","battery-v0.2","","1084.5999999046326","q","elianto","#3366ff99","-1","32","0","0","1934.7999999523163","1","2","","","","","","","608841496e9715786abdcd13&order=2&STUDY_ID=61bb98616f28aedf5237274a","38","0","2","win","no-go","0"
"pit-trial","82","416098","0.0-42.0","battery-v0.2","","450.40000009536743","x","elianto","#3366ff99","32","32","1","+10","1301.2000000476837","1","2","","","","","","","608841496e9715786abdcd13&order=2&STUDY_ID=61bb98616f28aedf5237274a","39","3","1","win","go","0"
"pit-trial","83","419373","0.0-43.0","battery-v0.2","","409.09999990463257","n","elianto","#f73b6a7A","32","32","1","0","1262.5","1","2","","","","","","","608841496e9715786abdcd13&order=2&STUDY_ID=61bb98616f28aedf5237274a","40","1","3","lose","go","0"
"pit-trial","84","424235","0.0-44.0","battery-v0.2","","-1","f","elianto","#f73b6a7A","-1","-1","1","0","","0","2","","","","","","","608841496e9715786abdcd13&order=2&STUDY_ID=61bb98616f28aedf5237274a","41","2","4","lose","no-go","0"
"pit-trial","85","427869","0.0-45.0","battery-v0.2","","777","n","elianto","#f73b6a7A","32","32","1","-10","1627.8999998569489","1","2","","","","","","","608841496e9715786abdcd13&order=2&STUDY_ID=61bb98616f28aedf5237274a","42","1","3","lose","go","1"
"pit-trial","86","432240","0.0-46.0","battery-v0.2","","1516.3999998569489","q","elianto","#3366ff99","-1","32","0","+10","2367.399999856949","1","2","","","","","","","608841496e9715786abdcd13&order=2&STUDY_ID=61bb98616f28aedf5237274a","43","0","2","win","no-go","1"
"pit-trial","87","435533","0.0-47.0","battery-v0.2","","426.09999990463257","x","elianto","#3366ff99","32","32","1","+10","1276.2999999523163","1","2","","","","","","","608841496e9715786abdcd13&order=2&STUDY_ID=61bb98616f28aedf5237274a","44","3","1","win","go","0"
"pit-trial","88","439019","0.0-48.0","battery-v0.2","","626","x","elianto","#3366ff99","32","32","1","+10","1476.7000000476837","1","2","","","","","","","608841496e9715786abdcd13&order=2&STUDY_ID=61bb98616f28aedf5237274a","45","3","1","win","go","0"
"pit-trial","89","443883","0.0-49.0","battery-v0.2","","-1","f","elianto","#f73b6a7A","-1","-1","1","0","","0","2","","","","","","","608841496e9715786abdcd13&order=2&STUDY_ID=61bb98616f28aedf5237274a","46","2","4","lose","no-go","0"
"pit-trial","90","447471","0.0-50.0","battery-v0.2","","732.3999998569489","n","elianto","#f73b6a7A","32","32","1","0","1582.5","1","2","","","","","","","608841496e9715786abdcd13&order=2&STUDY_ID=61bb98616f28aedf5237274a","47","1","3","lose","go","0"
"pit-trial","91","450801","0.0-51.0","battery-v0.2","","474","q","elianto","#3366ff99","-1","32","0","0","1325.2999999523163","1","2","","","","","","","608841496e9715786abdcd13&order=2&STUDY_ID=61bb98616f28aedf5237274a","48","0","2","win","no-go","0"
"pit-trial","92","455679","0.0-52.0","battery-v0.2","","-1","f","elianto","#f73b6a7A","-1","-1","1","0","","0","2","","","","","","","608841496e9715786abdcd13&order=2&STUDY_ID=61bb98616f28aedf5237274a","49","2","4","lose","no-go","0"
"pit-trial","93","459362","0.0-53.0","battery-v0.2","","828.0999999046326","x","elianto","#3366ff99","32","32","1","+10","1678.6999998092651","1","2","","","","","","","608841496e9715786abdcd13&order=2&STUDY_ID=61bb98616f28aedf5237274a","50","3","1","win","go","0"
"pit-trial","94","463073","0.0-54.0","battery-v0.2","","850.1000001430511","q","elianto","#3366ff99","-1","32","0","0","1703.8000001907349","1","2","","","","","","","608841496e9715786abdcd13&order=2&STUDY_ID=61bb98616f28aedf5237274a","51","0","2","win","no-go","0"
"pit-trial","95","466413","0.0-55.0","battery-v0.2","","480.2999999523163","n","elianto","#f73b6a7A","32","32","1","0","1330.5","1","2","","","","","","","608841496e9715786abdcd13&order=2&STUDY_ID=61bb98616f28aedf5237274a","52","1","3","lose","go","0"
"pit-trial","96","471291","0.0-56.0","battery-v0.2","","-1","t","elianto","#f73b6a7A","32","-1","0","0","","0","2","","","","","","","608841496e9715786abdcd13&order=2&STUDY_ID=61bb98616f28aedf5237274a","53","4","3","lose","go","1"
"pit-trial","97","476174","0.0-57.0","battery-v0.2","","-1","f","elianto","#f73b6a7A","-1","-1","1","0","","0","2","","","","","","","608841496e9715786abdcd13&order=2&STUDY_ID=61bb98616f28aedf5237274a","54","2","4","lose","no-go","0"
"pit-trial","98","479821","0.0-58.0","battery-v0.2","","794.7000000476837","n","elianto","#f73b6a7A","32","32","1","-10","1646.0999999046326","1","2","","","","","","","608841496e9715786abdcd13&order=2&STUDY_ID=61bb98616f28aedf5237274a","55","1","3","lose","go","1"
"pit-trial","99","484702","0.0-59.0","battery-v0.2","","-1","b","elianto","#f73b6a7A","-1","-1","1","0","","0","2","","","","","","","608841496e9715786abdcd13&order=2&STUDY_ID=61bb98616f28aedf5237274a","56","5","4","lose","no-go","0"
"pit-trial","100","488409","0.0-60.0","battery-v0.2","","846.6999998092651","n","elianto","#f73b6a7A","32","32","1","0","1697.5999999046326","1","2","","","","","","","608841496e9715786abdcd13&order=2&STUDY_ID=61bb98616f28aedf5237274a","57","1","3","lose","go","0"
"pit-trial","101","493264","0.0-61.0","battery-v0.2","","-1","b","elianto","#f73b6a7A","-1","-1","1","0","","0","2","","","","","","","608841496e9715786abdcd13&order=2&STUDY_ID=61bb98616f28aedf5237274a","58","5","4","lose","no-go","0"
"pit-trial","102","498130","0.0-62.0","battery-v0.2","","-1","f","elianto","#f73b6a7A","-1","-1","1","-10","","0","2","","","","","","","608841496e9715786abdcd13&order=2&STUDY_ID=61bb98616f28aedf5237274a","59","2","4","lose","no-go","1"
"pit-trial","103","502992","0.0-63.0","battery-v0.2","","-1","t","elianto","#f73b6a7A","32","-1","0","-10","","0","2","","","","","","","608841496e9715786abdcd13&order=2&STUDY_ID=61bb98616f28aedf5237274a","60","4","3","lose","go","0"
"pit-trial","104","507861","0.0-64.0","battery-v0.2","","-1","t","elianto","#f73b6a7A","32","-1","0","-10","","0","2","","","","","","","608841496e9715786abdcd13&order=2&STUDY_ID=61bb98616f28aedf5237274a","61","4","3","lose","go","0"
"pit-trial","105","512731","0.0-65.0","battery-v0.2","","-1","f","elianto","#f73b6a7A","-1","-1","1","0","","0","2","","","","","","","608841496e9715786abdcd13&order=2&STUDY_ID=61bb98616f28aedf5237274a","62","2","4","lose","no-go","0"
"pit-trial","106","517611","0.0-66.0","battery-v0.2","","-1","c","elianto","#3366ff99","-1","-1","1","+10","","0","2","","","","","","","608841496e9715786abdcd13&order=2&STUDY_ID=61bb98616f28aedf5237274a","63","6","2","win","no-go","0"
"pit-trial","107","522481","0.0-67.0","battery-v0.2","","-1","b","elianto","#f73b6a7A","-1","-1","1","-10","","0","2","","","","","","","608841496e9715786abdcd13&order=2&STUDY_ID=61bb98616f28aedf5237274a","64","5","4","lose","no-go","1"
"pit-trial","108","526163","0.0-68.0","battery-v0.2","","823.7000000476837","t","elianto","#f73b6a7A","32","32","1","-10","1678.5","1","2","","","","","","","608841496e9715786abdcd13&order=2&STUDY_ID=61bb98616f28aedf5237274a","65","4","3","lose","go","1"
"pit-trial","109","531026","0.0-69.0","battery-v0.2","","-1","c","elianto","#3366ff99","-1","-1","1","+10","","0","2","","","","","","","608841496e9715786abdcd13&order=2&STUDY_ID=61bb98616f28aedf5237274a","66","6","2","win","no-go","0"
"pit-trial","110","535895","0.0-70.0","battery-v0.2","","-1","f","elianto","#f73b6a7A","-1","-1","1","0","","0","2","","","","","","","608841496e9715786abdcd13&order=2&STUDY_ID=61bb98616f28aedf5237274a","67","2","4","lose","no-go","0"
"pit-trial","111","540751","0.0-71.0","battery-v0.2","","-1","b","elianto","#f73b6a7A","-1","-1","1","-10","","0","2","","","","","","","608841496e9715786abdcd13&order=2&STUDY_ID=61bb98616f28aedf5237274a","68","5","4","lose","no-go","1"
"pit-trial","112","545615","0.0-72.0","battery-v0.2","","-1","c","elianto","#3366ff99","-1","-1","1","+10","","0","2","","","","","","","608841496e9715786abdcd13&order=2&STUDY_ID=61bb98616f28aedf5237274a","69","6","2","win","no-go","0"
"pit-trial","113","550477","0.0-73.0","battery-v0.2","","-1","z","elianto","#3366ff99","32","-1","0","0","","0","2","","","","","","","608841496e9715786abdcd13&order=2&STUDY_ID=61bb98616f28aedf5237274a","70","7","1","win","go","0"
"pit-trial","114","554931","0.0-74.0","battery-v0.2","","1588.2999999523163","b","elianto","#f73b6a7A","-1","32","0","-10","2438.7000000476837","1","2","","","","","","","608841496e9715786abdcd13&order=2&STUDY_ID=61bb98616f28aedf5237274a","71","5","4","lose","no-go","0"
"pit-trial","115","558643","0.0-75.0","battery-v0.2","","852.5999999046326","t","elianto","#f73b6a7A","32","32","1","-10","1708.0999999046326","1","2","","","","","","","608841496e9715786abdcd13&order=2&STUDY_ID=61bb98616f28aedf5237274a","72","4","3","lose","go","1"
"pit-trial","116","563511","0.0-76.0","battery-v0.2","","-1","b","elianto","#f73b6a7A","-1","-1","1","0","","0","2","","","","","","","608841496e9715786abdcd13&order=2&STUDY_ID=61bb98616f28aedf5237274a","73","5","4","lose","no-go","0"
"pit-trial","117","567737","0.0-77.0","battery-v0.2","","1371.7000000476837","c","elianto","#3366ff99","-1","32","0","+10","2222.300000190735","1","2","","","","","","","608841496e9715786abdcd13&order=2&STUDY_ID=61bb98616f28aedf5237274a","74","6","2","win","no-go","1"
"pit-trial","118","572596","0.0-78.0","battery-v0.2","","-1","t","elianto","#f73b6a7A","32","-1","0","0","","0","2","","","","","","","608841496e9715786abdcd13&order=2&STUDY_ID=61bb98616f28aedf5237274a","75","4","3","lose","go","1"
"pit-trial","119","576918","0.0-79.0","battery-v0.2","","1453.5","z","elianto","#3366ff99","32","32","1","+10","2305.100000143051","1","2","","","","","","","608841496e9715786abdcd13&order=2&STUDY_ID=61bb98616f28aedf5237274a","76","7","1","win","go","0"
"pit-trial","120","580892","0.0-80.0","battery-v0.2","","1120.1000001430511","c","elianto","#3366ff99","-1","32","0","0","1970.4000000953674","1","2","","","","","","","608841496e9715786abdcd13&order=2&STUDY_ID=61bb98616f28aedf5237274a","77","6","2","win","no-go","0"
"pit-trial","121","584542","0.0-81.0","battery-v0.2","","793.1999998092651","t","elianto","#f73b6a7A","32","32","1","0","1643.2999999523163","1","2","","","","","","","608841496e9715786abdcd13&order=2&STUDY_ID=61bb98616f28aedf5237274a","78","4","3","lose","go","0"
"pit-trial","122","588238","0.0-82.0","battery-v0.2","","833.2000000476837","b","elianto","#f73b6a7A","-1","32","0","-10","1685","1","2","","","","","","","608841496e9715786abdcd13&order=2&STUDY_ID=61bb98616f28aedf5237274a","79","5","4","lose","no-go","0"
"pit-trial","123","592028","0.0-83.0","battery-v0.2","","931.0999999046326","z","elianto","#3366ff99","32","32","1","+10","1785","1","2","","","","","","","608841496e9715786abdcd13&order=2&STUDY_ID=61bb98616f28aedf5237274a","80","7","1","win","go","0"
"pit-trial","124","596894","0.0-84.0","battery-v0.2","","-1","b","elianto","#f73b6a7A","-1","-1","1","0","","0","2","","","","","","","608841496e9715786abdcd13&order=2&STUDY_ID=61bb98616f28aedf5237274a","81","5","4","lose","no-go","0"
"pit-trial","125","601381","0.0-85.0","battery-v0.2","","1629.3999998569489","c","elianto","#3366ff99","-1","32","0","0","2482.199999809265","1","2","","","","","","","608841496e9715786abdcd13&order=2&STUDY_ID=61bb98616f28aedf5237274a","82","6","2","win","no-go","0"
"pit-trial","126","606256","0.0-86.0","battery-v0.2","","-1","t","elianto","#f73b6a7A","32","-1","0","0","","0","2","","","","","","","608841496e9715786abdcd13&order=2&STUDY_ID=61bb98616f28aedf5237274a","83","4","3","lose","go","1"
"pit-trial","127","610559","0.0-87.0","battery-v0.2","","1448.0999999046326","z","elianto","#3366ff99","32","32","1","+10","2298.2000000476837","1","2","","","","","","","608841496e9715786abdcd13&order=2&STUDY_ID=61bb98616f28aedf5237274a","84","7","1","win","go","0"
"pit-trial","128","615428","0.0-88.0","battery-v0.2","","-1","c","elianto","#3366ff99","-1","-1","1","+10","3212","1","2","","","","","","","608841496e9715786abdcd13&order=2&STUDY_ID=61bb98616f28aedf5237274a","85","6","2","win","no-go","0"
"pit-trial","129","620285","0.0-89.0","battery-v0.2","","-1","b","elianto","#f73b6a7A","-1","-1","1","0","","0","2","","","","","","","608841496e9715786abdcd13&order=2&STUDY_ID=61bb98616f28aedf5237274a","86","5","4","lose","no-go","0"
"pit-trial","130","624931","0.0-90.0","battery-v0.2","","1780.0999999046326","z","elianto","#3366ff99","32","32","1","0","2631.199999809265","1","2","","","","","","","608841496e9715786abdcd13&order=2&STUDY_ID=61bb98616f28aedf5237274a","87","7","1","win","go","1"
"pit-trial","131","629786","0.0-91.0","battery-v0.2","","-1","t","elianto","#f73b6a7A","32","-1","0","0","","0","2","","","","","","","608841496e9715786abdcd13&order=2&STUDY_ID=61bb98616f28aedf5237274a","88","4","3","lose","go","1"
"pit-trial","132","634657","0.0-92.0","battery-v0.2","","-1","b","elianto","#f73b6a7A","-1","-1","1","0","","0","2","","","","","","","608841496e9715786abdcd13&order=2&STUDY_ID=61bb98616f28aedf5237274a","89","5","4","lose","no-go","0"
"pit-trial","133","638768","0.0-93.0","battery-v0.2","","1252.5999999046326","z","elianto","#3366ff99","32","32","1","+10","2106.399999856949","1","2","","","","","","","608841496e9715786abdcd13&order=2&STUDY_ID=61bb98616f28aedf5237274a","90","7","1","win","go","0"
"pit-trial","134","643626","0.0-94.0","battery-v0.2","","-1","t","elianto","#f73b6a7A","32","-1","0","-10","","0","2","","","","","","","608841496e9715786abdcd13&order=2&STUDY_ID=61bb98616f28aedf5237274a","91","4","3","lose","go","0"
"pit-trial","135","648490","0.0-95.0","battery-v0.2","","-1","c","elianto","#3366ff99","-1","-1","1","0","2889.9000000953674","1","2","","","","","","","608841496e9715786abdcd13&order=2&STUDY_ID=61bb98616f28aedf5237274a","92","6","2","win","no-go","1"
"pit-trial","136","652138","0.0-96.0","battery-v0.2","","793.0999999046326","z","elianto","#3366ff99","32","32","1","+10","1643.3999998569489","1","2","","","","","","","608841496e9715786abdcd13&order=2&STUDY_ID=61bb98616f28aedf5237274a","93","7","1","win","go","0"
"pit-trial","137","657005","0.0-97.0","battery-v0.2","","-1","c","elianto","#3366ff99","-1","-1","1","+10","","0","2","","","","","","","608841496e9715786abdcd13&order=2&STUDY_ID=61bb98616f28aedf5237274a","94","6","2","win","no-go","0"
"pit-trial","138","661867","0.0-98.0","battery-v0.2","","-1","h","elianto","#3366ff99","32","-1","0","+10","","0","2","","","","","","","608841496e9715786abdcd13&order=2&STUDY_ID=61bb98616f28aedf5237274a","95","8","1","win","go","1"
"pit-trial","139","666738","0.0-99.0","battery-v0.2","","-1","t","elianto","#f73b6a7A","32","-1","0","0","","0","2","","","","","","","608841496e9715786abdcd13&order=2&STUDY_ID=61bb98616f28aedf5237274a","96","4","3","lose","go","1"
"pit-trial","140","671604","0.0-100.0","battery-v0.2","","-1","h","elianto","#3366ff99","32","-1","0","0","","0","2","","","","","","","608841496e9715786abdcd13&order=2&STUDY_ID=61bb98616f28aedf5237274a","97","8","1","win","go","0"
"pit-trial","141","676465","0.0-101.0","battery-v0.2","","-1","t","elianto","#f73b6a7A","32","-1","0","0","","0","2","","","","","","","608841496e9715786abdcd13&order=2&STUDY_ID=61bb98616f28aedf5237274a","98","4","3","lose","go","1"
"pit-trial","142","680507","0.0-102.0","battery-v0.2","","1184","z","elianto","#3366ff99","32","32","1","+10","2034.2999999523163","1","2","","","","","","","608841496e9715786abdcd13&order=2&STUDY_ID=61bb98616f28aedf5237274a","99","7","1","win","go","0"
"pit-trial","143","685377","0.0-103.0","battery-v0.2","","-1","c","elianto","#3366ff99","-1","-1","1","+10","","0","2","","","","","","","608841496e9715786abdcd13&order=2&STUDY_ID=61bb98616f28aedf5237274a","100","6","2","win","no-go","0"
"pit-trial","144","690240","0.0-104.0","battery-v0.2","","-1","y","elianto","#3366ff99","-1","-1","1","+10","","0","2","","","","","","","608841496e9715786abdcd13&order=2&STUDY_ID=61bb98616f28aedf5237274a","101","9","2","win","no-go","0"
"pit-trial","145","694060","0.0-105.0","battery-v0.2","","964.2999999523163","z","elianto","#3366ff99","32","32","1","0","1814.6000001430511","1","2","","","","","","","608841496e9715786abdcd13&order=2&STUDY_ID=61bb98616f28aedf5237274a","102","7","1","win","go","1"
"pit-trial","146","698933","0.0-106.0","battery-v0.2","","-1","h","elianto","#3366ff99","32","-1","0","0","","0","2","","","","","","","608841496e9715786abdcd13&order=2&STUDY_ID=61bb98616f28aedf5237274a","103","8","1","win","go","0"
"pit-trial","147","703812","0.0-107.0","battery-v0.2","","-1","c","elianto","#3366ff99","-1","-1","1","+10","","0","2","","","","","","","608841496e9715786abdcd13&order=2&STUDY_ID=61bb98616f28aedf5237274a","104","6","2","win","no-go","0"
"pit-trial","148","707857","0.0-108.0","battery-v0.2","","1182","h","elianto","#3366ff99","32","32","1","+10","2033.2000000476837","1","2","","","","","","","608841496e9715786abdcd13&order=2&STUDY_ID=61bb98616f28aedf5237274a","105","8","1","win","go","0"
"pit-trial","149","712726","0.0-109.0","battery-v0.2","","-1","y","elianto","#3366ff99","-1","-1","1","+10","","0","2","","","","","","","608841496e9715786abdcd13&order=2&STUDY_ID=61bb98616f28aedf5237274a","106","9","2","win","no-go","0"
"pit-trial","150","716505","0.0-110.0","battery-v0.2","","916.7999999523163","z","elianto","#3366ff99","32","32","1","+10","1767","1","2","","","","","","","608841496e9715786abdcd13&order=2&STUDY_ID=61bb98616f28aedf5237274a","107","7","1","win","go","0"
"pit-trial","151","721363","0.0-111.0","battery-v0.2","","-1","c","elianto","#3366ff99","-1","-1","1","+10","","0","2","","","","","","","608841496e9715786abdcd13&order=2&STUDY_ID=61bb98616f28aedf5237274a","108","6","2","win","no-go","0"
"pit-trial","152","726234","0.0-112.0","battery-v0.2","","-1","y","elianto","#3366ff99","-1","-1","1","+10","","0","2","","","","","","","608841496e9715786abdcd13&order=2&STUDY_ID=61bb98616f28aedf5237274a","109","9","2","win","no-go","0"
"pit-trial","153","731097","0.0-113.0","battery-v0.2","","-1","m","elianto","#f73b6a7A","-1","-1","1","0","","0","2","","","","","","","608841496e9715786abdcd13&order=2&STUDY_ID=61bb98616f28aedf5237274a","110","11","4","lose","no-go","0"
"pit-trial","154","735976","0.0-114.0","battery-v0.2","","-1","h","elianto","#3366ff99","32","-1","0","0","","0","2","","","","","","","608841496e9715786abdcd13&order=2&STUDY_ID=61bb98616f28aedf5237274a","111","8","1","win","go","0"
"pit-trial","155","740061","0.0-115.0","battery-v0.2","","1227.3000001907349","r","elianto","#f73b6a7A","32","32","1","0","2082.2000000476837","1","2","","","","","","","608841496e9715786abdcd13&order=2&STUDY_ID=61bb98616f28aedf5237274a","112","10","3","lose","go","0"
"pit-trial","156","744934","0.0-116.0","battery-v0.2","","-1","y","elianto","#3366ff99","-1","-1","1","+10","","0","2","","","","","","","608841496e9715786abdcd13&order=2&STUDY_ID=61bb98616f28aedf5237274a","113","9","2","win","no-go","0"
"pit-trial","157","748762","0.0-117.0","battery-v0.2","","966.5","r","elianto","#f73b6a7A","32","32","1","0","1816.5999999046326","1","2","","","","","","","608841496e9715786abdcd13&order=2&STUDY_ID=61bb98616f28aedf5237274a","114","10","3","lose","go","0"
"pit-trial","158","753620","0.0-118.0","battery-v0.2","","-1","m","elianto","#f73b6a7A","-1","-1","1","0","","0","2","","","","","","","608841496e9715786abdcd13&order=2&STUDY_ID=61bb98616f28aedf5237274a","115","11","4","lose","no-go","0"
"pit-trial","159","757252","0.0-119.0","battery-v0.2","","773.2000000476837","h","elianto","#3366ff99","32","32","1","+10","1624","1","2","","","","","","","608841496e9715786abdcd13&order=2&STUDY_ID=61bb98616f28aedf5237274a","116","8","1","win","go","0"
"pit-trial","160","760867","0.0-120.0","battery-v0.2","","754.7999999523163","h","elianto","#3366ff99","32","32","1","0","1605.4000000953674","1","2","","","","","","","608841496e9715786abdcd13&order=2&STUDY_ID=61bb98616f28aedf5237274a","117","8","1","win","go","1"
"pit-trial","161","765730","0.0-121.0","battery-v0.2","","-1","y","elianto","#3366ff99","-1","-1","1","+10","","0","2","","","","","","","608841496e9715786abdcd13&order=2&STUDY_ID=61bb98616f28aedf5237274a","118","9","2","win","no-go","0"
"pit-trial","162","769393","0.0-122.0","battery-v0.2","","804.3999998569489","r","elianto","#f73b6a7A","32","32","1","0","1654.3999998569489","1","2","","","","","","","608841496e9715786abdcd13&order=2&STUDY_ID=61bb98616f28aedf5237274a","119","10","3","lose","go","0"
"pit-trial","163","774262","0.0-123.0","battery-v0.2","","-1","m","elianto","#f73b6a7A","-1","-1","1","0","","0","2","","","","","","","608841496e9715786abdcd13&order=2&STUDY_ID=61bb98616f28aedf5237274a","120","11","4","lose","no-go","0"
"pit-trial","164","777880","0.0-124.0","battery-v0.2","","758","r","elianto","#f73b6a7A","32","32","1","0","1608.3999998569489","1","2","","","","","","","608841496e9715786abdcd13&order=2&STUDY_ID=61bb98616f28aedf5237274a","121","10","3","lose","go","0"
"pit-trial","165","781299","0.0-125.0","battery-v0.2","","561.9000000953674","h","elianto","#3366ff99","32","32","1","+10","1412.5","1","2","","","","","","","608841496e9715786abdcd13&order=2&STUDY_ID=61bb98616f28aedf5237274a","122","8","1","win","go","0"
"pit-trial","166","786172","0.0-126.0","battery-v0.2","","-1","y","elianto","#3366ff99","-1","-1","1","0","","0","2","","","","","","","608841496e9715786abdcd13&order=2&STUDY_ID=61bb98616f28aedf5237274a","123","9","2","win","no-go","1"
"pit-trial","167","791041","0.0-127.0","battery-v0.2","","-1","m","elianto","#f73b6a7A","-1","-1","1","-10","","0","2","","","","","","","608841496e9715786abdcd13&order=2&STUDY_ID=61bb98616f28aedf5237274a","124","11","4","lose","no-go","1"
"pit-trial","168","794627","0.0-128.0","battery-v0.2","","729.2000000476837","r","elianto","#f73b6a7A","32","32","1","0","1579.4000000953674","1","2","","","","","","","608841496e9715786abdcd13&order=2&STUDY_ID=61bb98616f28aedf5237274a","125","10","3","lose","go","0"
"pit-trial","169","798262","0.0-129.0","battery-v0.2","","768.0999999046326","h","elianto","#3366ff99","32","32","1","+10","1618.7999999523163","1","2","","","","","","","608841496e9715786abdcd13&order=2&STUDY_ID=61bb98616f28aedf5237274a","126","8","1","win","go","0"
"pit-trial","170","803129","0.0-130.0","battery-v0.2","","-1","y","elianto","#3366ff99","-1","-1","1","+10","","0","2","","","","","","","608841496e9715786abdcd13&order=2&STUDY_ID=61bb98616f28aedf5237274a","127","9","2","win","no-go","0"
"pit-trial","171","807995","0.0-131.0","battery-v0.2","","-1","m","elianto","#f73b6a7A","-1","-1","1","0","","0","2","","","","","","","608841496e9715786abdcd13&order=2&STUDY_ID=61bb98616f28aedf5237274a","128","11","4","lose","no-go","0"
"pit-trial","172","811719","0.0-132.0","battery-v0.2","","855.9000000953674","r","elianto","#f73b6a7A","32","32","1","0","1707.7000000476837","1","2","","","","","","","608841496e9715786abdcd13&order=2&STUDY_ID=61bb98616f28aedf5237274a","129","10","3","lose","go","0"
"pit-trial","173","816587","0.0-133.0","battery-v0.2","","-1","m","elianto","#f73b6a7A","-1","-1","1","0","","0","2","","","","","","","608841496e9715786abdcd13&order=2&STUDY_ID=61bb98616f28aedf5237274a","130","11","4","lose","no-go","0"
"pit-trial","174","820175","0.0-134.0","battery-v0.2","","730.5999999046326","h","elianto","#3366ff99","32","32","1","+10","1581.1999998092651","1","2","","","","","","","608841496e9715786abdcd13&order=2&STUDY_ID=61bb98616f28aedf5237274a","131","8","1","win","go","0"
"pit-trial","175","825046","0.0-135.0","battery-v0.2","","-1","y","elianto","#3366ff99","-1","-1","1","+10","","0","2","","","","","","","608841496e9715786abdcd13&order=2&STUDY_ID=61bb98616f28aedf5237274a","132","9","2","win","no-go","0"
"pit-trial","176","829911","0.0-136.0","battery-v0.2","","-1","y","elianto","#3366ff99","-1","-1","1","+10","","0","2","","","","","","","608841496e9715786abdcd13&order=2&STUDY_ID=61bb98616f28aedf5237274a","133","9","2","win","no-go","0"
"pit-trial","177","833837","0.0-137.0","battery-v0.2","","1068.2999999523163","h","elianto","#3366ff99","32","32","1","+10","1919.5999999046326","1","2","","","","","","","608841496e9715786abdcd13&order=2&STUDY_ID=61bb98616f28aedf5237274a","134","8","1","win","go","0"
"pit-trial","178","838705","0.0-138.0","battery-v0.2","","-1","m","elianto","#f73b6a7A","-1","-1","1","-10","","0","2","","","","","","","608841496e9715786abdcd13&order=2&STUDY_ID=61bb98616f28aedf5237274a","135","11","4","lose","no-go","1"
"pit-trial","179","842268","0.0-139.0","battery-v0.2","","706.2999999523163","r","elianto","#f73b6a7A","32","32","1","0","1556.3999998569489","1","2","","","","","","","608841496e9715786abdcd13&order=2&STUDY_ID=61bb98616f28aedf5237274a","136","10","3","lose","go","0"
"pit-trial","180","847143","0.0-140.0","battery-v0.2","","-1","y","elianto","#3366ff99","-1","-1","1","+10","","0","2","","","","","","","608841496e9715786abdcd13&order=2&STUDY_ID=61bb98616f28aedf5237274a","137","9","2","win","no-go","0"
"pit-trial","181","851030","0.0-141.0","battery-v0.2","","1030","r","elianto","#f73b6a7A","32","32","1","-10","1880.6999998092651","1","2","","","","","","","608841496e9715786abdcd13&order=2&STUDY_ID=61bb98616f28aedf5237274a","138","10","3","lose","go","1"
"pit-trial","182","855900","0.0-142.0","battery-v0.2","","-1","m","elianto","#f73b6a7A","-1","-1","1","0","","0","2","","","","","","","608841496e9715786abdcd13&order=2&STUDY_ID=61bb98616f28aedf5237274a","139","11","4","lose","no-go","0"
"pit-trial","183","859794","0.0-143.0","battery-v0.2","","1040.3999998569489","h","elianto","#3366ff99","32","32","1","+10","1891.5","1","2","","","","","","","608841496e9715786abdcd13&order=2&STUDY_ID=61bb98616f28aedf5237274a","140","8","1","win","go","0"
"pit-instructions","184","896156","0.0-144.0","battery-v0.2","[{""page_index"":0,""viewing_time"":25778.200000047684},{""page_index"":1,""viewing_time"":10582.799999952316}]","36361.299999952316","","","","","","","","","","","","","","","","","","","","","","",""
"pit-trial","185","900185","0.0-145.0","battery-v0.2","","1161.1000001430511","j","elianto","#3366ff99","-1","32","0","+10","2011.7999999523163","1","3","","","","","","","608841496e9715786abdcd13&order=2&STUDY_ID=61bb98616f28aedf5237274a","141","1","2","win","no-go","1"
"pit-trial","186","905077","0.0-146.0","battery-v0.2","","-1","k","elianto","#f73b6a7A","32","-1","0","-10","","0","3","","","","","","","608841496e9715786abdcd13&order=2&STUDY_ID=61bb98616f28aedf5237274a","142","3","3","lose","go","0"
"pit-trial","187","909944","0.0-147.0","battery-v0.2","","-1","v","elianto","#3366ff99","-1","-1","1","0","","0","3","","","","","","","608841496e9715786abdcd13&order=2&STUDY_ID=61bb98616f28aedf5237274a","143","0","2","win","no-go","1"
"pit-trial","188","914809","0.0-148.0","battery-v0.2","","-1","d","elianto","#3366ff99","32","-1","0","0","","0","3","","","","","","","608841496e9715786abdcd13&order=2&STUDY_ID=61bb98616f28aedf5237274a","144","2","1","win","go","0"
"pit-trial","189","919688","0.0-149.0","battery-v0.2","","-1","k","elianto","#f73b6a7A","32","-1","0","-10","2871","1","3","","","","","","","608841496e9715786abdcd13&order=2&STUDY_ID=61bb98616f28aedf5237274a","145","3","3","lose","go","0"
"pit-trial","190","923773","0.0-150.0","battery-v0.2","","1231.0999999046326","d","elianto","#3366ff99","32","32","1","+10","2082.199999809265","1","3","","","","","","","608841496e9715786abdcd13&order=2&STUDY_ID=61bb98616f28aedf5237274a","146","2","1","win","go","0"
"pit-trial","191","927361","0.0-151.0","battery-v0.2","","724","j","elianto","#3366ff99","-1","32","0","0","1575","1","3","","","","","","","608841496e9715786abdcd13&order=2&STUDY_ID=61bb98616f28aedf5237274a","147","1","2","win","no-go","0"
"pit-trial","192","931068","0.0-152.0","battery-v0.2","","835.7000000476837","v","elianto","#3366ff99","-1","32","0","0","1689.7000000476837","1","3","","","","","","","608841496e9715786abdcd13&order=2&STUDY_ID=61bb98616f28aedf5237274a","148","0","2","win","no-go","0"
"pit-trial","193","935932","0.0-153.0","battery-v0.2","","-1","v","elianto","#3366ff99","-1","-1","1","0","3640.199999809265","1","3","","","","","","","608841496e9715786abdcd13&order=2&STUDY_ID=61bb98616f28aedf5237274a","149","0","2","win","no-go","1"
"pit-trial","194","940805","0.0-154.0","battery-v0.2","","-1","j","elianto","#3366ff99","-1","-1","1","+10","","0","3","","","","","","","608841496e9715786abdcd13&order=2&STUDY_ID=61bb98616f28aedf5237274a","150","1","2","win","no-go","0"
"pit-trial","195","944445","0.0-155.0","battery-v0.2","","775.1000001430511","k","elianto","#f73b6a7A","32","32","1","0","1625.8000001907349","1","3","","","","","","","608841496e9715786abdcd13&order=2&STUDY_ID=61bb98616f28aedf5237274a","151","3","3","lose","go","0"
"pit-trial","196","948395","0.0-156.0","battery-v0.2","","1086.2999999523163","d","elianto","#3366ff99","32","32","1","+10","1937","1","3","","","","","","","608841496e9715786abdcd13&order=2&STUDY_ID=61bb98616f28aedf5237274a","152","2","1","win","go","0"
"pit-trial","197","951790","0.0-157.0","battery-v0.2","","532.0999999046326","v","elianto","#3366ff99","-1","32","0","0","1383.2999999523163","1","3","","","","","","","608841496e9715786abdcd13&order=2&STUDY_ID=61bb98616f28aedf5237274a","153","0","2","win","no-go","0"
"pit-trial","198","956664","0.0-158.0","battery-v0.2","","-1","j","elianto","#3366ff99","-1","-1","1","+10","","0","3","","","","","","","608841496e9715786abdcd13&order=2&STUDY_ID=61bb98616f28aedf5237274a","154","1","2","win","no-go","0"
"pit-trial","199","960097","0.0-159.0","battery-v0.2","","577.0999999046326","k","elianto","#f73b6a7A","32","32","1","0","1427.5","1","3","","","","","","","608841496e9715786abdcd13&order=2&STUDY_ID=61bb98616f28aedf5237274a","155","3","3","lose","go","0"
"pit-trial","200","963402","0.0-160.0","battery-v0.2","","452.5","d","elianto","#3366ff99","32","32","1","+10","1303.5","1","3","","","","","","","608841496e9715786abdcd13&order=2&STUDY_ID=61bb98616f28aedf5237274a","156","2","1","win","go","0"
"pit-trial","201","967222","0.0-161.0","battery-v0.2","","957.7999999523163","k","elianto","#f73b6a7A","32","32","1","0","1812.9000000953674","1","3","","","","","","","608841496e9715786abdcd13&order=2&STUDY_ID=61bb98616f28aedf5237274a","157","3","3","lose","go","0"
"pit-trial","202","970787","0.0-162.0","battery-v0.2","","712.4000000953674","d","elianto","#3366ff99","32","32","1","+10","1562.7000000476837","1","3","","","","","","","608841496e9715786abdcd13&order=2&STUDY_ID=61bb98616f28aedf5237274a","158","2","1","win","go","0"
"pit-trial","203","975663","0.0-163.0","battery-v0.2","","-1","v","elianto","#3366ff99","-1","-1","1","0","","0","3","","","","","","","608841496e9715786abdcd13&order=2&STUDY_ID=61bb98616f28aedf5237274a","159","0","2","win","no-go","1"
"pit-trial","204","980523","0.0-164.0","battery-v0.2","","-1","j","elianto","#3366ff99","-1","-1","1","+10","","0","3","","","","","","","608841496e9715786abdcd13&order=2&STUDY_ID=61bb98616f28aedf5237274a","160","1","2","win","no-go","0"
"pit-trial","205","984204","0.0-165.0","battery-v0.2","","825.7000000476837","d","elianto","#3366ff99","32","32","1","+10","1676","1","3","","","","","","","608841496e9715786abdcd13&order=2&STUDY_ID=61bb98616f28aedf5237274a","161","2","1","win","go","0"
"pit-trial","206","987753","0.0-166.0","battery-v0.2","","691.0999999046326","k","elianto","#f73b6a7A","32","32","1","0","1541.2999999523163","1","3","","","","","","","608841496e9715786abdcd13&order=2&STUDY_ID=61bb98616f28aedf5237274a","162","3","3","lose","go","0"
"pit-trial","207","991425","0.0-167.0","battery-v0.2","","818.7999999523163","v","elianto","#3366ff99","-1","32","0","0","1668.6999998092651","1","3","","","","","","","608841496e9715786abdcd13&order=2&STUDY_ID=61bb98616f28aedf5237274a","163","0","2","win","no-go","0"
"pit-trial","208","996288","0.0-168.0","battery-v0.2","","-1","j","elianto","#3366ff99","-1","-1","1","+10","","0","3","","","","","","","608841496e9715786abdcd13&order=2&STUDY_ID=61bb98616f28aedf5237274a","164","1","2","win","no-go","0"
"pit-trial","209","1001147","0.0-169.0","battery-v0.2","","-1","j","elianto","#3366ff99","-1","-1","1","0","","0","3","","","","","","","608841496e9715786abdcd13&order=2&STUDY_ID=61bb98616f28aedf5237274a","165","1","2","win","no-go","1"
"pit-trial","210","1004840","0.0-170.0","battery-v0.2","","826.7999999523163","d","elianto","#3366ff99","32","32","1","0","1680.4000000953674","1","3","","","","","","","608841496e9715786abdcd13&order=2&STUDY_ID=61bb98616f28aedf5237274a","166","2","1","win","go","1"
"pit-trial","211","1008434","0.0-171.0","battery-v0.2","","740.0999999046326","k","elianto","#f73b6a7A","32","32","1","0","1591","1","3","","","","","","","608841496e9715786abdcd13&order=2&STUDY_ID=61bb98616f28aedf5237274a","167","3","3","lose","go","0"
"pit-trial","212","1013306","0.0-172.0","battery-v0.2","","-1","v","elianto","#3366ff99","-1","-1","1","+10","","0","3","","","","","","","608841496e9715786abdcd13&order=2&STUDY_ID=61bb98616f28aedf5237274a","168","0","2","win","no-go","0"
"pit-trial","213","1018174","0.0-173.0","battery-v0.2","","-1","v","elianto","#3366ff99","-1","-1","1","0","","0","3","","","","","","","608841496e9715786abdcd13&order=2&STUDY_ID=61bb98616f28aedf5237274a","169","0","2","win","no-go","1"
"pit-trial","214","1021686","0.0-174.0","battery-v0.2","","644.0999999046326","k","elianto","#f73b6a7A","32","32","1","0","1494.2000000476837","1","3","","","","","","","608841496e9715786abdcd13&order=2&STUDY_ID=61bb98616f28aedf5237274a","170","3","3","lose","go","0"
"pit-trial","215","1025220","0.0-175.0","battery-v0.2","","679.7999999523163","d","elianto","#3366ff99","32","32","1","+10","1530","1","3","","","","","","","608841496e9715786abdcd13&order=2&STUDY_ID=61bb98616f28aedf5237274a","171","2","1","win","go","0"
"pit-trial","216","1030092","0.0-176.0","battery-v0.2","","-1","j","elianto","#3366ff99","-1","-1","1","+10","","0","3","","","","","","","608841496e9715786abdcd13&order=2&STUDY_ID=61bb98616f28aedf5237274a","172","1","2","win","no-go","0"
"pit-trial","217","1034952","0.0-177.0","battery-v0.2","","-1","w","elianto","#f73b6a7A","32","-1","0","-10","","0","3","","","","","","","608841496e9715786abdcd13&order=2&STUDY_ID=61bb98616f28aedf5237274a","173","5","3","lose","go","0"
"pit-trial","218","1039824","0.0-178.0","battery-v0.2","","-1","v","elianto","#3366ff99","-1","-1","1","+10","","0","3","","","","","","","608841496e9715786abdcd13&order=2&STUDY_ID=61bb98616f28aedf5237274a","174","0","2","win","no-go","0"
"pit-trial","219","1043920","0.0-179.0","battery-v0.2","","1241.8999998569489","d","elianto","#3366ff99","32","32","1","+10","2092.5999999046326","1","3","","","","","","","608841496e9715786abdcd13&order=2&STUDY_ID=61bb98616f28aedf5237274a","175","2","1","win","go","0"
"pit-trial","220","1048799","0.0-180.0","battery-v0.2","","-1","e","elianto","#f73b6a7A","-1","-1","1","0","","0","3","","","","","","","608841496e9715786abdcd13&order=2&STUDY_ID=61bb98616f28aedf5237274a","176","4","4","lose","no-go","0"
"pit-trial","221","1052411","0.0-181.0","battery-v0.2","","748.5","d","elianto","#3366ff99","32","32","1","+10","1599","1","3","","","","","","","608841496e9715786abdcd13&order=2&STUDY_ID=61bb98616f28aedf5237274a","177","2","1","win","go","0"
"pit-trial","222","1057282","0.0-182.0","battery-v0.2","","-1","v","elianto","#3366ff99","-1","-1","1","0","","0","3","","","","","","","608841496e9715786abdcd13&order=2&STUDY_ID=61bb98616f28aedf5237274a","178","0","2","win","no-go","1"
"pit-trial","223","1060926","0.0-183.0","battery-v0.2","","786.2999999523163","w","elianto","#f73b6a7A","32","32","1","0","1636.5999999046326","1","3","","","","","","","608841496e9715786abdcd13&order=2&STUDY_ID=61bb98616f28aedf5237274a","179","5","3","lose","go","0"
"pit-trial","224","1065788","0.0-184.0","battery-v0.2","","-1","e","elianto","#f73b6a7A","-1","-1","1","-10","","0","3","","","","","","","608841496e9715786abdcd13&order=2&STUDY_ID=61bb98616f28aedf5237274a","180","4","4","lose","no-go","1"
"pit-trial","225","1069375","0.0-185.0","battery-v0.2","","725.0999999046326","e","elianto","#f73b6a7A","-1","32","0","-10","1575.2999999523163","1","3","","","","","","","608841496e9715786abdcd13&order=2&STUDY_ID=61bb98616f28aedf5237274a","181","4","4","lose","no-go","0"
"pit-trial","226","1072857","0.0-186.0","battery-v0.2","","624.7999999523163","w","elianto","#f73b6a7A","32","32","1","0","1478.8999998569489","1","3","","","","","","","608841496e9715786abdcd13&order=2&STUDY_ID=61bb98616f28aedf5237274a","182","5","3","lose","go","0"
"pit-trial","227","1077726","0.0-187.0","battery-v0.2","","-1","s","elianto","#3366ff99","-1","-1","1","+10","","0","3","","","","","","","608841496e9715786abdcd13&order=2&STUDY_ID=61bb98616f28aedf5237274a","183","6","2","win","no-go","0"
"pit-trial","228","1081429","0.0-188.0","battery-v0.2","","850.1999998092651","d","elianto","#3366ff99","32","32","1","0","1700.8999998569489","1","3","","","","","","","608841496e9715786abdcd13&order=2&STUDY_ID=61bb98616f28aedf5237274a","184","2","1","win","go","1"
"pit-trial","229","1086302","0.0-189.0","battery-v0.2","","-1","e","elianto","#f73b6a7A","-1","-1","1","0","","0","3","","","","","","","608841496e9715786abdcd13&order=2&STUDY_ID=61bb98616f28aedf5237274a","185","4","4","lose","no-go","0"
"pit-trial","230","1091158","0.0-190.0","battery-v0.2","","-1","s","elianto","#3366ff99","-1","-1","1","+10","","0","3","","","","","","","608841496e9715786abdcd13&order=2&STUDY_ID=61bb98616f28aedf5237274a","186","6","2","win","no-go","0"
"pit-trial","231","1094753","0.0-191.0","battery-v0.2","","725","d","elianto","#3366ff99","32","32","1","+10","1578.4000000953674","1","3","","","","","","","608841496e9715786abdcd13&order=2&STUDY_ID=61bb98616f28aedf5237274a","187","2","1","win","go","0"
"pit-trial","232","1098239","0.0-192.0","battery-v0.2","","621.7999999523163","w","elianto","#f73b6a7A","32","32","1","0","1473","1","3","","","","","","","608841496e9715786abdcd13&order=2&STUDY_ID=61bb98616f28aedf5237274a","188","5","3","lose","go","0"
"pit-trial","233","1101697","0.0-193.0","battery-v0.2","","595.1000001430511","w","elianto","#f73b6a7A","32","32","1","-10","1449.7999999523163","1","3","","","","","","","608841496e9715786abdcd13&order=2&STUDY_ID=61bb98616f28aedf5237274a","189","5","3","lose","go","1"
"pit-trial","234","1106553","0.0-194.0","battery-v0.2","","-1","p","elianto","#f73b6a7A","-1","-1","1","0","","0","3","","","","","","","608841496e9715786abdcd13&order=2&STUDY_ID=61bb98616f28aedf5237274a","190","7","4","lose","no-go","0"
"pit-trial","235","1111436","0.0-195.0","battery-v0.2","","-1","s","elianto","#3366ff99","-1","-1","1","+10","","0","3","","","","","","","608841496e9715786abdcd13&order=2&STUDY_ID=61bb98616f28aedf5237274a","191","6","2","win","no-go","0"
"pit-trial","236","1116312","0.0-196.0","battery-v0.2","","-1","e","elianto","#f73b6a7A","-1","-1","1","0","","0","3","","","","","","","608841496e9715786abdcd13&order=2&STUDY_ID=61bb98616f28aedf5237274a","192","4","4","lose","no-go","0"
"pit-trial","237","1121176","0.0-197.0","battery-v0.2","","-1","e","elianto","#f73b6a7A","-1","-1","1","-10","","0","3","","","","","","","608841496e9715786abdcd13&order=2&STUDY_ID=61bb98616f28aedf5237274a","193","4","4","lose","no-go","1"
"pit-trial","238","1126037","0.0-198.0","battery-v0.2","","-1","p","elianto","#f73b6a7A","-1","-1","1","-10","","0","3","","","","","","","608841496e9715786abdcd13&order=2&STUDY_ID=61bb98616f28aedf5237274a","194","7","4","lose","no-go","1"
"pit-trial","239","1130901","0.0-199.0","battery-v0.2","","-1","s","elianto","#3366ff99","-1","-1","1","+10","","0","3","","","","","","","608841496e9715786abdcd13&order=2&STUDY_ID=61bb98616f28aedf5237274a","195","6","2","win","no-go","0"
"pit-trial","240","1134679","0.0-200.0","battery-v0.2","","912.2000000476837","w","elianto","#f73b6a7A","32","32","1","0","1762.6000001430511","1","3","","","","","","","608841496e9715786abdcd13&order=2&STUDY_ID=61bb98616f28aedf5237274a","196","5","3","lose","go","0"
"pit-trial","241","1138268","0.0-201.0","battery-v0.2","","722.1000001430511","w","elianto","#f73b6a7A","32","32","1","0","1572.2000000476837","1","3","","","","","","","608841496e9715786abdcd13&order=2&STUDY_ID=61bb98616f28aedf5237274a","197","5","3","lose","go","0"
"pit-trial","242","1143124","0.0-202.0","battery-v0.2","","-1","e","elianto","#f73b6a7A","-1","-1","1","-10","","0","3","","","","","","","608841496e9715786abdcd13&order=2&STUDY_ID=61bb98616f28aedf5237274a","198","4","4","lose","no-go","1"
"pit-trial","243","1147999","0.0-203.0","battery-v0.2","","-1","p","elianto","#f73b6a7A","-1","-1","1","0","","0","3","","","","","","","608841496e9715786abdcd13&order=2&STUDY_ID=61bb98616f28aedf5237274a","199","7","4","lose","no-go","0"
"pit-trial","244","1152882","0.0-204.0","battery-v0.2","","-1","s","elianto","#3366ff99","-1","-1","1","+10","","0","3","","","","","","","608841496e9715786abdcd13&order=2&STUDY_ID=61bb98616f28aedf5237274a","200","6","2","win","no-go","0"
"pit-trial","245","1157752","0.0-205.0","battery-v0.2","","-1","e","elianto","#f73b6a7A","-1","-1","1","0","","0","3","","","","","","","608841496e9715786abdcd13&order=2&STUDY_ID=61bb98616f28aedf5237274a","201","4","4","lose","no-go","0"
"pit-trial","246","1162610","0.0-206.0","battery-v0.2","","-1","s","elianto","#3366ff99","-1","-1","1","0","","0","3","","","","","","","608841496e9715786abdcd13&order=2&STUDY_ID=61bb98616f28aedf5237274a","202","6","2","win","no-go","1"
"pit-trial","247","1167486","0.0-207.0","battery-v0.2","","-1","p","elianto","#f73b6a7A","-1","-1","1","0","","0","3","","","","","","","608841496e9715786abdcd13&order=2&STUDY_ID=61bb98616f28aedf5237274a","203","7","4","lose","no-go","0"
"pit-trial","248","1170979","0.0-208.0","battery-v0.2","","631.6000001430511","w","elianto","#f73b6a7A","32","32","1","-10","1482","1","3","","","","","","","608841496e9715786abdcd13&order=2&STUDY_ID=61bb98616f28aedf5237274a","204","5","3","lose","go","1"
"pit-trial","249","1175845","0.0-209.0","battery-v0.2","","-1","s","elianto","#3366ff99","-1","-1","1","+10","","0","3","","","","","","","608841496e9715786abdcd13&order=2&STUDY_ID=61bb98616f28aedf5237274a","205","6","2","win","no-go","0"
"pit-trial","250","1180719","0.0-210.0","battery-v0.2","","-1","e","elianto","#f73b6a7A","-1","-1","1","-10","","0","3","","","","","","","608841496e9715786abdcd13&order=2&STUDY_ID=61bb98616f28aedf5237274a","206","4","4","lose","no-go","1"
"pit-trial","251","1184519","0.0-211.0","battery-v0.2","","935.3000001907349","w","elianto","#f73b6a7A","32","32","1","0","1785.2999999523163","1","3","","","","","","","608841496e9715786abdcd13&order=2&STUDY_ID=61bb98616f28aedf5237274a","207","5","3","lose","go","0"
"pit-trial","252","1189391","0.0-212.0","battery-v0.2","","-1","p","elianto","#f73b6a7A","-1","-1","1","0","","0","3","","","","","","","608841496e9715786abdcd13&order=2&STUDY_ID=61bb98616f28aedf5237274a","208","7","4","lose","no-go","0"
"pit-trial","253","1194259","0.0-213.0","battery-v0.2","","-1","e","elianto","#f73b6a7A","-1","-1","1","0","","0","3","","","","","","","608841496e9715786abdcd13&order=2&STUDY_ID=61bb98616f28aedf5237274a","209","4","4","lose","no-go","0"
"pit-trial","254","1199121","0.0-214.0","battery-v0.2","","-1","p","elianto","#f73b6a7A","-1","-1","1","-10","","0","3","","","","","","","608841496e9715786abdcd13&order=2&STUDY_ID=61bb98616f28aedf5237274a","210","7","4","lose","no-go","1"
"pit-trial","255","1202545","0.0-215.0","battery-v0.2","","569.9000000953674","w","elianto","#f73b6a7A","32","32","1","-10","1420.5","1","3","","","","","","","608841496e9715786abdcd13&order=2&STUDY_ID=61bb98616f28aedf5237274a","211","5","3","lose","go","1"
"pit-trial","256","1207408","0.0-216.0","battery-v0.2","","-1","s","elianto","#3366ff99","-1","-1","1","+10","","0","3","","","","","","","608841496e9715786abdcd13&order=2&STUDY_ID=61bb98616f28aedf5237274a","212","6","2","win","no-go","0"
"pit-trial","257","1212265","0.0-217.0","battery-v0.2","","-1","g","elianto","#f73b6a7A","-1","-1","1","0","","0","3","","","","","","","608841496e9715786abdcd13&order=2&STUDY_ID=61bb98616f28aedf5237274a","213","8","4","lose","no-go","0"
"pit-trial","258","1217144","0.0-218.0","battery-v0.2","","-1","p","elianto","#f73b6a7A","-1","-1","1","0","","0","3","","","","","","","608841496e9715786abdcd13&order=2&STUDY_ID=61bb98616f28aedf5237274a","214","7","4","lose","no-go","0"
"pit-trial","259","1220981","0.0-219.0","battery-v0.2","","971","w","elianto","#f73b6a7A","32","32","1","-10","1821.7000000476837","1","3","","","","","","","608841496e9715786abdcd13&order=2&STUDY_ID=61bb98616f28aedf5237274a","215","5","3","lose","go","1"
"pit-trial","260","1225865","0.0-220.0","battery-v0.2","","-1","s","elianto","#3366ff99","-1","-1","1","+10","","0","3","","","","","","","608841496e9715786abdcd13&order=2&STUDY_ID=61bb98616f28aedf5237274a","216","6","2","win","no-go","0"
"pit-trial","261","1230726","0.0-221.0","battery-v0.2","","-1","s","elianto","#3366ff99","-1","-1","1","+10","","0","3","","","","","","","608841496e9715786abdcd13&order=2&STUDY_ID=61bb98616f28aedf5237274a","217","6","2","win","no-go","0"
"pit-trial","262","1234386","0.0-222.0","battery-v0.2","","804.3000001907349","w","elianto","#f73b6a7A","32","32","1","0","1656.4000000953674","1","3","","","","","","","608841496e9715786abdcd13&order=2&STUDY_ID=61bb98616f28aedf5237274a","218","5","3","lose","go","0"
"pit-trial","263","1239264","0.0-223.0","battery-v0.2","","-1","p","elianto","#f73b6a7A","-1","-1","1","0","","0","3","","","","","","","608841496e9715786abdcd13&order=2&STUDY_ID=61bb98616f28aedf5237274a","219","7","4","lose","no-go","0"
"pit-trial","264","1244132","0.0-224.0","battery-v0.2","","-1","g","elianto","#f73b6a7A","-1","-1","1","0","","0","3","","","","","","","608841496e9715786abdcd13&order=2&STUDY_ID=61bb98616f28aedf5237274a","220","8","4","lose","no-go","0"
"pit-trial","265","1249003","0.0-225.0","battery-v0.2","","-1","g","elianto","#f73b6a7A","-1","-1","1","0","","0","3","","","","","","","608841496e9715786abdcd13&order=2&STUDY_ID=61bb98616f28aedf5237274a","221","8","4","lose","no-go","0"
"pit-trial","266","1253882","0.0-226.0","battery-v0.2","","-1","a","elianto","#3366ff99","32","-1","0","0","","0","3","","","","","","","608841496e9715786abdcd13&order=2&STUDY_ID=61bb98616f28aedf5237274a","222","9","1","win","go","0"
"pit-trial","267","1258755","0.0-227.0","battery-v0.2","","-1","s","elianto","#3366ff99","-1","-1","1","0","","0","3","","","","","","","608841496e9715786abdcd13&order=2&STUDY_ID=61bb98616f28aedf5237274a","223","6","2","win","no-go","1"
"pit-trial","268","1263626","0.0-228.0","battery-v0.2","","-1","l","elianto","#f73b6a7A","32","-1","0","0","","0","3","","","","","","","608841496e9715786abdcd13&order=2&STUDY_ID=61bb98616f28aedf5237274a","224","10","3","lose","go","1"
"pit-trial","269","1268490","0.0-229.0","battery-v0.2","","-1","l","elianto","#f73b6a7A","32","-1","0","-10","","0","3","","","","","","","608841496e9715786abdcd13&order=2&STUDY_ID=61bb98616f28aedf5237274a","225","10","3","lose","go","0"
"pit-trial","270","1273355","0.0-230.0","battery-v0.2","","-1","s","elianto","#3366ff99","-1","-1","1","+10","","0","3","","","","","","","608841496e9715786abdcd13&order=2&STUDY_ID=61bb98616f28aedf5237274a","226","6","2","win","no-go","0"
"pit-trial","271","1277771","0.0-231.0","battery-v0.2","","1559.5999999046326","a","elianto","#3366ff99","32","32","1","0","2409.7000000476837","1","3","","","","","","","608841496e9715786abdcd13&order=2&STUDY_ID=61bb98616f28aedf5237274a","227","9","1","win","go","1"
"pit-trial","272","1282627","0.0-232.0","battery-v0.2","","-1","g","elianto","#f73b6a7A","-1","-1","1","-10","","0","3","","","","","","","608841496e9715786abdcd13&order=2&STUDY_ID=61bb98616f28aedf5237274a","228","8","4","lose","no-go","1"
"pit-trial","273","1287502","0.0-233.0","battery-v0.2","","-1","a","elianto","#3366ff99","32","-1","0","+10","","0","3","","","","","","","608841496e9715786abdcd13&order=2&STUDY_ID=61bb98616f28aedf5237274a","229","9","1","win","go","1"
"pit-trial","274","1291613","0.0-234.0","battery-v0.2","","1244.2000000476837","u","elianto","#3366ff99","32","32","1","0","2094.4000000953674","1","3","","","","","","","608841496e9715786abdcd13&order=2&STUDY_ID=61bb98616f28aedf5237274a","230","11","1","win","go","1"
"pit-trial","275","1295991","0.0-235.0","battery-v0.2","","1518.7999999523163","l","elianto","#f73b6a7A","32","32","1","0","2369.699999809265","1","3","","","","","","","608841496e9715786abdcd13&order=2&STUDY_ID=61bb98616f28aedf5237274a","231","10","3","lose","go","0"
"pit-trial","276","1300854","0.0-236.0","battery-v0.2","","-1","g","elianto","#f73b6a7A","-1","-1","1","0","","0","3","","","","","","","608841496e9715786abdcd13&order=2&STUDY_ID=61bb98616f28aedf5237274a","232","8","4","lose","no-go","0"
"pit-trial","277","1304597","0.0-237.0","battery-v0.2","","888.5999999046326","l","elianto","#f73b6a7A","32","32","1","0","1738.7999999523163","1","3","","","","","","","608841496e9715786abdcd13&order=2&STUDY_ID=61bb98616f28aedf5237274a","233","10","3","lose","go","0"
"pit-trial","278","1309480","0.0-238.0","battery-v0.2","","-1","a","elianto","#3366ff99","32","-1","0","0","","0","3","","","","","","","608841496e9715786abdcd13&order=2&STUDY_ID=61bb98616f28aedf5237274a","234","9","1","win","go","0"
"pit-trial","279","1314360","0.0-239.0","battery-v0.2","","-1","g","elianto","#f73b6a7A","-1","-1","1","0","","0","3","","","","","","","608841496e9715786abdcd13&order=2&STUDY_ID=61bb98616f28aedf5237274a","235","8","4","lose","no-go","0"
"pit-trial","280","1319223","0.0-240.0","battery-v0.2","","-1","u","elianto","#3366ff99","32","-1","0","0","","0","3","","","","","","","608841496e9715786abdcd13&order=2&STUDY_ID=61bb98616f28aedf5237274a","236","11","1","win","go","0"
"pit-trial","281","1323085","0.0-241.0","battery-v0.2","","1007","u","elianto","#3366ff99","32","32","1","+10","1858.5999999046326","1","3","","","","","","","608841496e9715786abdcd13&order=2&STUDY_ID=61bb98616f28aedf5237274a","237","11","1","win","go","0"
"pit-trial","282","1327956","0.0-242.0","battery-v0.2","","-1","a","elianto","#3366ff99","32","-1","0","0","","0","3","","","","","","","608841496e9715786abdcd13&order=2&STUDY_ID=61bb98616f28aedf5237274a","238","9","1","win","go","0"
"pit-trial","283","1332836","0.0-243.0","battery-v0.2","","-1","g","elianto","#f73b6a7A","-1","-1","1","0","","0","3","","","","","","","608841496e9715786abdcd13&order=2&STUDY_ID=61bb98616f28aedf5237274a","239","8","4","lose","no-go","0"
"pit-trial","284","1336564","0.0-244.0","battery-v0.2","","873.1000001430511","l","elianto","#f73b6a7A","32","32","1","-10","1723.8000001907349","1","3","","","","","","","608841496e9715786abdcd13&order=2&STUDY_ID=61bb98616f28aedf5237274a","240","10","3","lose","go","1"
"pit-trial","285","1340243","0.0-245.0","battery-v0.2","","806.8999998569489","u","elianto","#3366ff99","32","32","1","+10","1661.3999998569489","1","3","","","","","","","608841496e9715786abdcd13&order=2&STUDY_ID=61bb98616f28aedf5237274a","241","11","1","win","go","0"
"pit-trial","286","1345116","0.0-246.0","battery-v0.2","","-1","g","elianto","#f73b6a7A","-1","-1","1","0","","0","3","","","","","","","608841496e9715786abdcd13&order=2&STUDY_ID=61bb98616f28aedf5237274a","242","8","4","lose","no-go","0"
"pit-trial","287","1348830","0.0-247.0","battery-v0.2","","855.3000001907349","l","elianto","#f73b6a7A","32","32","1","0","1705.7000000476837","1","3","","","","","","","608841496e9715786abdcd13&order=2&STUDY_ID=61bb98616f28aedf5237274a","243","10","3","lose","go","0"
"pit-trial","288","1353699","0.0-248.0","battery-v0.2","","-1","a","elianto","#3366ff99","32","-1","0","0","","0","3","","","","","","","608841496e9715786abdcd13&order=2&STUDY_ID=61bb98616f28aedf5237274a","244","9","1","win","go","0"
"pit-trial","289","1357355","0.0-249.0","battery-v0.2","","799.5","u","elianto","#3366ff99","32","32","1","+10","1649.8999998569489","1","3","","","","","","","608841496e9715786abdcd13&order=2&STUDY_ID=61bb98616f28aedf5237274a","245","11","1","win","go","0"
"pit-trial","290","1362223","0.0-250.0","battery-v0.2","","-1","g","elianto","#f73b6a7A","-1","-1","1","-10","","0","3","","","","","","","608841496e9715786abdcd13&order=2&STUDY_ID=61bb98616f28aedf5237274a","246","8","4","lose","no-go","1"
"pit-trial","291","1367096","0.0-251.0","battery-v0.2","","-1","a","elianto","#3366ff99","32","-1","0","+10","","0","3","","","","","","","608841496e9715786abdcd13&order=2&STUDY_ID=61bb98616f28aedf5237274a","247","9","1","win","go","1"
"pit-trial","292","1370699","0.0-252.0","battery-v0.2","","749.1000001430511","l","elianto","#f73b6a7A","32","32","1","0","1601.2000000476837","1","3","","","","","","","608841496e9715786abdcd13&order=2&STUDY_ID=61bb98616f28aedf5237274a","248","10","3","lose","go","0"
"pit-trial","293","1374343","0.0-253.0","battery-v0.2","","774.3999998569489","u","elianto","#3366ff99","32","32","1","+10","1627.5999999046326","1","3","","","","","","","608841496e9715786abdcd13&order=2&STUDY_ID=61bb98616f28aedf5237274a","249","11","1","win","go","0"
"pit-trial","294","1379220","0.0-254.0","battery-v0.2","","-1","a","elianto","#3366ff99","32","-1","0","0","","0","3","","","","","","","608841496e9715786abdcd13&order=2&STUDY_ID=61bb98616f28aedf5237274a","250","9","1","win","go","0"
"pit-trial","295","1383192","0.0-255.0","battery-v0.2","","1105.7999999523163","l","elianto","#f73b6a7A","32","32","1","0","1956.5","1","3","","","","","","","608841496e9715786abdcd13&order=2&STUDY_ID=61bb98616f28aedf5237274a","251","10","3","lose","go","0"
"pit-trial","296","1388051","0.0-256.0","battery-v0.2","","-1","g","elianto","#f73b6a7A","-1","-1","1","-10","","0","3","","","","","","","608841496e9715786abdcd13&order=2&STUDY_ID=61bb98616f28aedf5237274a","252","8","4","lose","no-go","1"
"pit-trial","297","1391525","0.0-257.0","battery-v0.2","","620.5","u","elianto","#3366ff99","32","32","1","+10","1471.7999999523163","1","3","","","","","","","608841496e9715786abdcd13&order=2&STUDY_ID=61bb98616f28aedf5237274a","253","11","1","win","go","0"
"pit-trial","298","1396397","0.0-258.0","battery-v0.2","","-1","g","elianto","#f73b6a7A","-1","-1","1","-10","","0","3","","","","","","","608841496e9715786abdcd13&order=2&STUDY_ID=61bb98616f28aedf5237274a","254","8","4","lose","no-go","1"
"pit-trial","299","1401261","0.0-259.0","battery-v0.2","","-1","a","elianto","#3366ff99","32","-1","0","0","","0","3","","","","","","","608841496e9715786abdcd13&order=2&STUDY_ID=61bb98616f28aedf5237274a","255","9","1","win","go","0"
"pit-trial","300","1404884","0.0-260.0","battery-v0.2","","757.4000000953674","l","elianto","#f73b6a7A","32","32","1","-10","1608.3000001907349","1","3","","","","","","","608841496e9715786abdcd13&order=2&STUDY_ID=61bb98616f28aedf5237274a","256","10","3","lose","go","1"
"pit-trial","301","1408502","0.0-261.0","battery-v0.2","","754.5999999046326","l","elianto","#f73b6a7A","32","32","1","0","1605.1999998092651","1","3","","","","","","","608841496e9715786abdcd13&order=2&STUDY_ID=61bb98616f28aedf5237274a","257","10","3","lose","go","0"
"pit-trial","302","1413372","0.0-262.0","battery-v0.2","","-1","a","elianto","#3366ff99","32","-1","0","0","","0","3","","","","","","","608841496e9715786abdcd13&order=2&STUDY_ID=61bb98616f28aedf5237274a","258","9","1","win","go","0"
"pit-trial","303","1417362","0.0-263.0","battery-v0.2","","1132.8000001907349","u","elianto","#3366ff99","32","32","1","+10","1983.9000000953674","1","3","","","","","","","608841496e9715786abdcd13&order=2&STUDY_ID=61bb98616f28aedf5237274a","259","11","1","win","go","0"
"pit-trial","304","1422226","0.0-264.0","battery-v0.2","","-1","g","elianto","#f73b6a7A","-1","-1","1","0","","0","3","","","","","","","608841496e9715786abdcd13&order=2&STUDY_ID=61bb98616f28aedf5237274a","260","8","4","lose","no-go","0"
