"trial_type","trial_index","time_elapsed","internal_node_id","task_version","view_history","rt","rune","rune_set","hex","correct","choice","accuracy","outcome","keys","total_keys","block","practice","age","subject","participantId","value"
"pavlovia","0","8","0.0-0.0","battery-v0.2","","","","","","","","","","","","","","","","",""
"pit-instructions","1","3125","0.0-1.0-0.0","battery-v0.2","[{""page_index"":0,""viewing_time"":1314.8999999761581},{""page_index"":1,""viewing_time"":199.89999997615814},{""page_index"":2,""viewing_time"":150},{""page_index"":3,""viewing_time"":150.10000002384186},{""page_index"":4,""viewing_time"":150},{""page_index"":5,""viewing_time"":166.69999992847443},{""page_index"":6,""viewing_time"":150.40000009536743},{""page_index"":7,""viewing_time"":166.19999992847443},{""page_index"":8,""viewing_time"":166.70000004768372},{""page_index"":9,""viewing_time"":183.29999995231628},{""page_index"":10,""viewing_time"":150.10000002384186},{""page_index"":11,""viewing_time"":166.5}]","3115.1999999284744","","","","","","","","","","","","","","",""
"pit-trial","2","7631","0.0-1.0-1.0-0.0","battery-v0.2","","-1","&#9776;","elianto","#3366ff99","32","-1","0","0","","0","0","1","9999","3&age=9999&participant_ID=5&order=1","5",""
"pit-trial","3","12138","0.0-1.0-1.0-1.0","battery-v0.2","","-1","&#9776;","elianto","#3366ff99","32","-1","0","0","","0","0","1","9999","3&age=9999&participant_ID=5&order=1","5",""
"pit-trial","4","16647","0.0-1.0-1.0-2.0","battery-v0.2","","-1","&#9776;","elianto","#3366ff99","32","-1","0","0","","0","0","1","9999","3&age=9999&participant_ID=5&order=1","5",""
"pit-trial","5","21155","0.0-1.0-1.0-3.0","battery-v0.2","","-1","&#9776;","elianto","#3366ff99","32","-1","0","+10","","0","0","1","9999","3&age=9999&participant_ID=5&order=1","5",""
"pit-trial","6","25667","0.0-1.0-1.0-4.0","battery-v0.2","","-1","&#9776;","elianto","#3366ff99","32","-1","0","0","","0","0","1","9999","3&age=9999&participant_ID=5&order=1","5",""
"pit-trial","7","30169","0.0-1.0-1.1-0.1","battery-v0.2","","-1","&#9776;","elianto","#3366ff99","32","-1","0","0","","0","0","1","9999","3&age=9999&participant_ID=5&order=1","5",""
"pit-trial","8","34674","0.0-1.0-1.1-1.1","battery-v0.2","","-1","&#9776;","elianto","#3366ff99","32","-1","0","0","","0","0","1","9999","3&age=9999&participant_ID=5&order=1","5",""
"pit-trial","9","39180","0.0-1.0-1.1-2.1","battery-v0.2","","-1","&#9776;","elianto","#3366ff99","32","-1","0","0","","0","0","1","9999","3&age=9999&participant_ID=5&order=1","5",""
"pit-trial","10","43686","0.0-1.0-1.1-3.1","battery-v0.2","","-1","&#9776;","elianto","#3366ff99","32","-1","0","+10","","0","0","1","9999","3&age=9999&participant_ID=5&order=1","5",""
"pit-trial","11","48190","0.0-1.0-1.1-4.1","battery-v0.2","","-1","&#9776;","elianto","#3366ff99","32","-1","0","0","","0","0","1","9999","3&age=9999&participant_ID=5&order=1","5",""
"pit-trial","12","52692","0.0-1.0-1.2-0.2","battery-v0.2","","-1","&#9776;","elianto","#3366ff99","32","-1","0","0","","0","0","1","9999","3&age=9999&participant_ID=5&order=1","5",""
"pit-trial","13","57203","0.0-1.0-1.2-1.2","battery-v0.2","","-1","&#9776;","elianto","#3366ff99","32","-1","0","0","","0","0","1","9999","3&age=9999&participant_ID=5&order=1","5",""
"pit-trial","14","61707","0.0-1.0-1.2-2.2","battery-v0.2","","-1","&#9776;","elianto","#3366ff99","32","-1","0","0","","0","0","1","9999","3&age=9999&participant_ID=5&order=1","5",""
"pit-trial","15","66213","0.0-1.0-1.2-3.2","battery-v0.2","","-1","&#9776;","elianto","#3366ff99","32","-1","0","+10","","0","0","1","9999","3&age=9999&participant_ID=5&order=1","5",""
"pit-trial","16","70717","0.0-1.0-1.2-4.2","battery-v0.2","","-1","&#9776;","elianto","#3366ff99","32","-1","0","0","","0","0","1","9999","3&age=9999&participant_ID=5&order=1","5",""
"pit-trial","17","75221","0.0-1.0-1.3-0.3","battery-v0.2","","-1","&#9776;","elianto","#3366ff99","32","-1","0","0","","0","0","1","9999","3&age=9999&participant_ID=5&order=1","5",""
"pit-trial","18","79729","0.0-1.0-1.3-1.3","battery-v0.2","","-1","&#9776;","elianto","#3366ff99","32","-1","0","0","","0","0","1","9999","3&age=9999&participant_ID=5&order=1","5",""
"pit-trial","19","84235","0.0-1.0-1.3-2.3","battery-v0.2","","-1","&#9776;","elianto","#3366ff99","32","-1","0","0","","0","0","1","9999","3&age=9999&participant_ID=5&order=1","5",""
"pit-trial","20","88747","0.0-1.0-1.3-3.3","battery-v0.2","","-1","&#9776;","elianto","#3366ff99","32","-1","0","+10","","0","0","1","9999","3&age=9999&participant_ID=5&order=1","5",""
"pit-trial","21","93253","0.0-1.0-1.3-4.3","battery-v0.2","","-1","&#9776;","elianto","#3366ff99","32","-1","0","0","","0","0","1","9999","3&age=9999&participant_ID=5&order=1","5",""
"pit-trial","22","97762","0.0-1.0-1.4-0.4","battery-v0.2","","-1","&#9776;","elianto","#3366ff99","32","-1","0","0","","0","0","1","9999","3&age=9999&participant_ID=5&order=1","5",""
"pit-trial","23","102267","0.0-1.0-1.4-1.4","battery-v0.2","","-1","&#9776;","elianto","#3366ff99","32","-1","0","0","","0","0","1","9999","3&age=9999&participant_ID=5&order=1","5",""
"pit-trial","24","106773","0.0-1.0-1.4-2.4","battery-v0.2","","-1","&#9776;","elianto","#3366ff99","32","-1","0","0","","0","0","1","9999","3&age=9999&participant_ID=5&order=1","5",""
"pit-trial","25","111283","0.0-1.0-1.4-3.4","battery-v0.2","","-1","&#9776;","elianto","#3366ff99","32","-1","0","+10","","0","0","1","9999","3&age=9999&participant_ID=5&order=1","5",""
"pit-trial","26","115793","0.0-1.0-1.4-4.4","battery-v0.2","","-1","&#9776;","elianto","#3366ff99","32","-1","0","0","","0","0","1","9999","3&age=9999&participant_ID=5&order=1","5",""
"pit-trial","27","120300","0.0-1.0-1.5-0.5","battery-v0.2","","-1","&#9776;","elianto","#3366ff99","32","-1","0","0","","0","0","1","9999","3&age=9999&participant_ID=5&order=1","5",""
"pit-trial","28","124807","0.0-1.0-1.5-1.5","battery-v0.2","","-1","&#9776;","elianto","#3366ff99","32","-1","0","0","","0","0","1","9999","3&age=9999&participant_ID=5&order=1","5",""
"pit-trial","29","129310","0.0-1.0-1.5-2.5","battery-v0.2","","-1","&#9776;","elianto","#3366ff99","32","-1","0","0","","0","0","1","9999","3&age=9999&participant_ID=5&order=1","5",""
"pit-trial","30","133816","0.0-1.0-1.5-3.5","battery-v0.2","","-1","&#9776;","elianto","#3366ff99","32","-1","0","+10","","0","0","1","9999","3&age=9999&participant_ID=5&order=1","5",""
"pit-trial","31","138326","0.0-1.0-1.5-4.5","battery-v0.2","","-1","&#9776;","elianto","#3366ff99","32","-1","0","0","","0","0","1","9999","3&age=9999&participant_ID=5&order=1","5",""
"pit-trial","32","142830","0.0-1.0-1.6-0.6","battery-v0.2","","-1","&#9776;","elianto","#3366ff99","32","-1","0","0","","0","0","1","9999","3&age=9999&participant_ID=5&order=1","5",""
"pit-trial","33","147335","0.0-1.0-1.6-1.6","battery-v0.2","","-1","&#9776;","elianto","#3366ff99","32","-1","0","0","","0","0","1","9999","3&age=9999&participant_ID=5&order=1","5",""
"pit-trial","34","151837","0.0-1.0-1.6-2.6","battery-v0.2","","-1","&#9776;","elianto","#3366ff99","32","-1","0","0","","0","0","1","9999","3&age=9999&participant_ID=5&order=1","5",""
"pit-trial","35","156348","0.0-1.0-1.6-3.6","battery-v0.2","","-1","&#9776;","elianto","#3366ff99","32","-1","0","+10","","0","0","1","9999","3&age=9999&participant_ID=5&order=1","5",""
"pit-trial","36","160855","0.0-1.0-1.6-4.6","battery-v0.2","","-1","&#9776;","elianto","#3366ff99","32","-1","0","0","","0","0","1","9999","3&age=9999&participant_ID=5&order=1","5",""
"pit-trial","37","165358","0.0-1.0-1.7-0.7","battery-v0.2","","-1","&#9776;","elianto","#3366ff99","32","-1","0","0","","0","0","1","9999","3&age=9999&participant_ID=5&order=1","5",""
"pit-trial","38","169864","0.0-1.0-1.7-1.7","battery-v0.2","","-1","&#9776;","elianto","#3366ff99","32","-1","0","0","","0","0","1","9999","3&age=9999&participant_ID=5&order=1","5",""
"pit-trial","39","174373","0.0-1.0-1.7-2.7","battery-v0.2","","-1","&#9776;","elianto","#3366ff99","32","-1","0","0","","0","0","1","9999","3&age=9999&participant_ID=5&order=1","5",""
"pit-trial","40","178882","0.0-1.0-1.7-3.7","battery-v0.2","","-1","&#9776;","elianto","#3366ff99","32","-1","0","+10","","0","0","1","9999","3&age=9999&participant_ID=5&order=1","5",""
"pit-trial","41","183387","0.0-1.0-1.7-4.7","battery-v0.2","","-1","&#9776;","elianto","#3366ff99","32","-1","0","0","","0","0","1","9999","3&age=9999&participant_ID=5&order=1","5",""
"pit-trial","42","187889","0.0-1.0-1.8-0.8","battery-v0.2","","-1","&#9776;","elianto","#3366ff99","32","-1","0","0","","0","0","1","9999","3&age=9999&participant_ID=5&order=1","5",""
"pit-trial","43","192397","0.0-1.0-1.8-1.8","battery-v0.2","","-1","&#9776;","elianto","#3366ff99","32","-1","0","0","","0","0","1","9999","3&age=9999&participant_ID=5&order=1","5",""
"pit-trial","44","196903","0.0-1.0-1.8-2.8","battery-v0.2","","-1","&#9776;","elianto","#3366ff99","32","-1","0","0","","0","0","1","9999","3&age=9999&participant_ID=5&order=1","5",""
"pit-trial","45","201412","0.0-1.0-1.8-3.8","battery-v0.2","","-1","&#9776;","elianto","#3366ff99","32","-1","0","+10","","0","0","1","9999","3&age=9999&participant_ID=5&order=1","5",""
"pit-trial","46","205917","0.0-1.0-1.8-4.8","battery-v0.2","","-1","&#9776;","elianto","#3366ff99","32","-1","0","0","","0","0","1","9999","3&age=9999&participant_ID=5&order=1","5",""
"pit-trial","47","210420","0.0-1.0-1.9-0.9","battery-v0.2","","-1","&#9776;","elianto","#3366ff99","32","-1","0","0","","0","0","1","9999","3&age=9999&participant_ID=5&order=1","5",""
"pit-trial","48","214928","0.0-1.0-1.9-1.9","battery-v0.2","","-1","&#9776;","elianto","#3366ff99","32","-1","0","0","","0","0","1","9999","3&age=9999&participant_ID=5&order=1","5",""
"pit-trial","49","219435","0.0-1.0-1.9-2.9","battery-v0.2","","-1","&#9776;","elianto","#3366ff99","32","-1","0","0","","0","0","1","9999","3&age=9999&participant_ID=5&order=1","5",""
"pit-trial","50","223940","0.0-1.0-1.9-3.9","battery-v0.2","","-1","&#9776;","elianto","#3366ff99","32","-1","0","+10","","0","0","1","9999","3&age=9999&participant_ID=5&order=1","5",""
"pit-trial","51","228443","0.0-1.0-1.9-4.9","battery-v0.2","","-1","&#9776;","elianto","#3366ff99","32","-1","0","0","","0","0","1","9999","3&age=9999&participant_ID=5&order=1","5",""
"pit-trial","52","232952","0.0-1.0-1.10-0.10","battery-v0.2","","-1","&#9776;","elianto","#3366ff99","32","-1","0","0","","0","0","1","9999","3&age=9999&participant_ID=5&order=1","5",""
"pit-trial","53","237456","0.0-1.0-1.10-1.10","battery-v0.2","","-1","&#9776;","elianto","#3366ff99","32","-1","0","0","","0","0","1","9999","3&age=9999&participant_ID=5&order=1","5",""
"pit-trial","54","241961","0.0-1.0-1.10-2.10","battery-v0.2","","-1","&#9776;","elianto","#3366ff99","32","-1","0","0","","0","0","1","9999","3&age=9999&participant_ID=5&order=1","5",""
"pit-trial","55","246468","0.0-1.0-1.10-3.10","battery-v0.2","","-1","&#9776;","elianto","#3366ff99","32","-1","0","+10","","0","0","1","9999","3&age=9999&participant_ID=5&order=1","5",""
"pit-trial","56","250979","0.0-1.0-1.10-4.10","battery-v0.2","","-1","&#9776;","elianto","#3366ff99","32","-1","0","0","","0","0","1","9999","3&age=9999&participant_ID=5&order=1","5",""
"pit-trial","57","255482","0.0-1.0-1.11-0.11","battery-v0.2","","-1","&#9776;","elianto","#3366ff99","32","-1","0","0","","0","0","1","9999","3&age=9999&participant_ID=5&order=1","5",""
"pit-trial","58","259985","0.0-1.0-1.11-1.11","battery-v0.2","","-1","&#9776;","elianto","#3366ff99","32","-1","0","0","","0","0","1","9999","3&age=9999&participant_ID=5&order=1","5",""
"pit-trial","59","264492","0.0-1.0-1.11-2.11","battery-v0.2","","-1","&#9776;","elianto","#3366ff99","32","-1","0","0","","0","0","1","9999","3&age=9999&participant_ID=5&order=1","5",""
"pit-trial","60","269002","0.0-1.0-1.11-3.11","battery-v0.2","","-1","&#9776;","elianto","#3366ff99","32","-1","0","+10","","0","0","1","9999","3&age=9999&participant_ID=5&order=1","5",""
"pit-trial","61","273506","0.0-1.0-1.11-4.11","battery-v0.2","","-1","&#9776;","elianto","#3366ff99","32","-1","0","0","","0","0","1","9999","3&age=9999&participant_ID=5&order=1","5",""
"pit-trial","62","278008","0.0-1.0-1.12-0.12","battery-v0.2","","-1","&#9776;","elianto","#3366ff99","32","-1","0","0","","0","0","1","9999","3&age=9999&participant_ID=5&order=1","5",""
"pit-trial","63","282516","0.0-1.0-1.12-1.12","battery-v0.2","","-1","&#9776;","elianto","#3366ff99","32","-1","0","0","","0","0","1","9999","3&age=9999&participant_ID=5&order=1","5",""
"pit-trial","64","287018","0.0-1.0-1.12-2.12","battery-v0.2","","-1","&#9776;","elianto","#3366ff99","32","-1","0","0","","0","0","1","9999","3&age=9999&participant_ID=5&order=1","5",""
"pit-trial","65","291525","0.0-1.0-1.12-3.12","battery-v0.2","","-1","&#9776;","elianto","#3366ff99","32","-1","0","+10","","0","0","1","9999","3&age=9999&participant_ID=5&order=1","5",""
"pit-trial","66","296033","0.0-1.0-1.12-4.12","battery-v0.2","","-1","&#9776;","elianto","#3366ff99","32","-1","0","0","","0","0","1","9999","3&age=9999&participant_ID=5&order=1","5",""
"pit-trial","67","300542","0.0-1.0-1.13-0.13","battery-v0.2","","-1","&#9776;","elianto","#3366ff99","32","-1","0","0","","0","0","1","9999","3&age=9999&participant_ID=5&order=1","5",""
"pit-trial","68","305044","0.0-1.0-1.13-1.13","battery-v0.2","","-1","&#9776;","elianto","#3366ff99","32","-1","0","0","","0","0","1","9999","3&age=9999&participant_ID=5&order=1","5",""
"pit-trial","69","309546","0.0-1.0-1.13-2.13","battery-v0.2","","-1","&#9776;","elianto","#3366ff99","32","-1","0","0","","0","0","1","9999","3&age=9999&participant_ID=5&order=1","5",""
"pit-trial","70","314051","0.0-1.0-1.13-3.13","battery-v0.2","","-1","&#9776;","elianto","#3366ff99","32","-1","0","+10","","0","0","1","9999","3&age=9999&participant_ID=5&order=1","5",""
"pit-trial","71","318559","0.0-1.0-1.13-4.13","battery-v0.2","","-1","&#9776;","elianto","#3366ff99","32","-1","0","0","","0","0","1","9999","3&age=9999&participant_ID=5&order=1","5",""
"pit-trial","72","323069","0.0-1.0-1.14-0.14","battery-v0.2","","-1","&#9776;","elianto","#3366ff99","32","-1","0","0","","0","0","1","9999","3&age=9999&participant_ID=5&order=1","5",""
"pit-trial","73","327572","0.0-1.0-1.14-1.14","battery-v0.2","","-1","&#9776;","elianto","#3366ff99","32","-1","0","0","","0","0","1","9999","3&age=9999&participant_ID=5&order=1","5",""
"pit-trial","74","332079","0.0-1.0-1.14-2.14","battery-v0.2","","-1","&#9776;","elianto","#3366ff99","32","-1","0","0","","0","0","1","9999","3&age=9999&participant_ID=5&order=1","5",""
"pit-trial","75","336588","0.0-1.0-1.14-3.14","battery-v0.2","","-1","&#9776;","elianto","#3366ff99","32","-1","0","+10","","0","0","1","9999","3&age=9999&participant_ID=5&order=1","5",""
"pit-trial","76","341099","0.0-1.0-1.14-4.14","battery-v0.2","","-1","&#9776;","elianto","#3366ff99","32","-1","0","0","","0","0","1","9999","3&age=9999&participant_ID=5&order=1","5",""
"pit-trial","77","345605","0.0-1.0-1.15-0.15","battery-v0.2","","-1","&#9776;","elianto","#3366ff99","32","-1","0","0","","0","0","1","9999","3&age=9999&participant_ID=5&order=1","5",""
"pit-trial","78","350111","0.0-1.0-1.15-1.15","battery-v0.2","","-1","&#9776;","elianto","#3366ff99","32","-1","0","0","","0","0","1","9999","3&age=9999&participant_ID=5&order=1","5",""
"pit-trial","79","354617","0.0-1.0-1.15-2.15","battery-v0.2","","-1","&#9776;","elianto","#3366ff99","32","-1","0","0","","0","0","1","9999","3&age=9999&participant_ID=5&order=1","5",""
"pit-trial","80","359128","0.0-1.0-1.15-3.15","battery-v0.2","","-1","&#9776;","elianto","#3366ff99","32","-1","0","+10","","0","0","1","9999","3&age=9999&participant_ID=5&order=1","5",""
"pit-trial","81","363633","0.0-1.0-1.15-4.15","battery-v0.2","","-1","&#9776;","elianto","#3366ff99","32","-1","0","0","","0","0","1","9999","3&age=9999&participant_ID=5&order=1","5",""
"pit-trial","82","368139","0.0-1.0-1.16-0.16","battery-v0.2","","-1","&#9776;","elianto","#3366ff99","32","-1","0","0","","0","0","1","9999","3&age=9999&participant_ID=5&order=1","5",""
"pit-trial","83","372645","0.0-1.0-1.16-1.16","battery-v0.2","","-1","&#9776;","elianto","#3366ff99","32","-1","0","0","","0","0","1","9999","3&age=9999&participant_ID=5&order=1","5",""
"pit-trial","84","377148","0.0-1.0-1.16-2.16","battery-v0.2","","-1","&#9776;","elianto","#3366ff99","32","-1","0","0","","0","0","1","9999","3&age=9999&participant_ID=5&order=1","5",""
"pit-trial","85","381653","0.0-1.0-1.16-3.16","battery-v0.2","","-1","&#9776;","elianto","#3366ff99","32","-1","0","+10","","0","0","1","9999","3&age=9999&participant_ID=5&order=1","5",""
"pit-trial","86","386160","0.0-1.0-1.16-4.16","battery-v0.2","","-1","&#9776;","elianto","#3366ff99","32","-1","0","0","","0","0","1","9999","3&age=9999&participant_ID=5&order=1","5",""
"pit-trial","87","390671","0.0-1.0-1.17-0.17","battery-v0.2","","-1","&#9776;","elianto","#3366ff99","32","-1","0","0","","0","0","1","9999","3&age=9999&participant_ID=5&order=1","5",""
"pit-trial","88","395176","0.0-1.0-1.17-1.17","battery-v0.2","","-1","&#9776;","elianto","#3366ff99","32","-1","0","0","","0","0","1","9999","3&age=9999&participant_ID=5&order=1","5",""
"pit-trial","89","399683","0.0-1.0-1.17-2.17","battery-v0.2","","-1","&#9776;","elianto","#3366ff99","32","-1","0","0","","0","0","1","9999","3&age=9999&participant_ID=5&order=1","5",""
"pit-trial","90","404189","0.0-1.0-1.17-3.17","battery-v0.2","","-1","&#9776;","elianto","#3366ff99","32","-1","0","+10","","0","0","1","9999","3&age=9999&participant_ID=5&order=1","5",""
"pit-trial","91","408698","0.0-1.0-1.17-4.17","battery-v0.2","","-1","&#9776;","elianto","#3366ff99","32","-1","0","0","","0","0","1","9999","3&age=9999&participant_ID=5&order=1","5",""
"pit-trial","92","413204","0.0-1.0-1.18-0.18","battery-v0.2","","-1","&#9776;","elianto","#3366ff99","32","-1","0","0","","0","0","1","9999","3&age=9999&participant_ID=5&order=1","5",""
"pit-trial","93","417711","0.0-1.0-1.18-1.18","battery-v0.2","","-1","&#9776;","elianto","#3366ff99","32","-1","0","0","","0","0","1","9999","3&age=9999&participant_ID=5&order=1","5",""
"pit-trial","94","422218","0.0-1.0-1.18-2.18","battery-v0.2","","-1","&#9776;","elianto","#3366ff99","32","-1","0","0","","0","0","1","9999","3&age=9999&participant_ID=5&order=1","5",""
"pit-trial","95","426727","0.0-1.0-1.18-3.18","battery-v0.2","","-1","&#9776;","elianto","#3366ff99","32","-1","0","+10","","0","0","1","9999","3&age=9999&participant_ID=5&order=1","5",""
"pit-trial","96","431230","0.0-1.0-1.18-4.18","battery-v0.2","","-1","&#9776;","elianto","#3366ff99","32","-1","0","0","","0","0","1","9999","3&age=9999&participant_ID=5&order=1","5",""
"pit-trial","97","435733","0.0-1.0-1.19-0.19","battery-v0.2","","-1","&#9776;","elianto","#3366ff99","32","-1","0","0","","0","0","1","9999","3&age=9999&participant_ID=5&order=1","5",""
"pit-trial","98","440236","0.0-1.0-1.19-1.19","battery-v0.2","","-1","&#9776;","elianto","#3366ff99","32","-1","0","0","","0","0","1","9999","3&age=9999&participant_ID=5&order=1","5",""
"pit-trial","99","444745","0.0-1.0-1.19-2.19","battery-v0.2","","-1","&#9776;","elianto","#3366ff99","32","-1","0","0","","0","0","1","9999","3&age=9999&participant_ID=5&order=1","5",""
"pit-trial","100","449254","0.0-1.0-1.19-3.19","battery-v0.2","","-1","&#9776;","elianto","#3366ff99","32","-1","0","+10","","0","0","1","9999","3&age=9999&participant_ID=5&order=1","5",""
"pit-trial","101","453758","0.0-1.0-1.19-4.19","battery-v0.2","","-1","&#9776;","elianto","#3366ff99","32","-1","0","0","","0","0","1","9999","3&age=9999&participant_ID=5&order=1","5",""
"pit-trial","102","458262","0.0-1.0-1.20-0.20","battery-v0.2","","-1","&#9776;","elianto","#3366ff99","32","-1","0","0","","0","0","1","9999","3&age=9999&participant_ID=5&order=1","5",""
"pit-trial","103","462768","0.0-1.0-1.20-1.20","battery-v0.2","","-1","&#9776;","elianto","#3366ff99","32","-1","0","0","","0","0","1","9999","3&age=9999&participant_ID=5&order=1","5",""
"pit-trial","104","467272","0.0-1.0-1.20-2.20","battery-v0.2","","-1","&#9776;","elianto","#3366ff99","32","-1","0","0","","0","0","1","9999","3&age=9999&participant_ID=5&order=1","5",""
"pit-trial","105","471781","0.0-1.0-1.20-3.20","battery-v0.2","","-1","&#9776;","elianto","#3366ff99","32","-1","0","+10","","0","0","1","9999","3&age=9999&participant_ID=5&order=1","5",""
"pit-trial","106","476288","0.0-1.0-1.20-4.20","battery-v0.2","","-1","&#9776;","elianto","#3366ff99","32","-1","0","0","","0","0","1","9999","3&age=9999&participant_ID=5&order=1","5",""
"pit-trial","107","480797","0.0-1.0-1.21-0.21","battery-v0.2","","-1","&#9776;","elianto","#3366ff99","32","-1","0","0","","0","0","1","9999","3&age=9999&participant_ID=5&order=1","5",""
"pit-trial","108","485301","0.0-1.0-1.21-1.21","battery-v0.2","","-1","&#9776;","elianto","#3366ff99","32","-1","0","0","","0","0","1","9999","3&age=9999&participant_ID=5&order=1","5",""
"pit-trial","109","489809","0.0-1.0-1.21-2.21","battery-v0.2","","-1","&#9776;","elianto","#3366ff99","32","-1","0","0","","0","0","1","9999","3&age=9999&participant_ID=5&order=1","5",""
"pit-trial","110","494314","0.0-1.0-1.21-3.21","battery-v0.2","","-1","&#9776;","elianto","#3366ff99","32","-1","0","+10","","0","0","1","9999","3&age=9999&participant_ID=5&order=1","5",""
"pit-trial","111","498822","0.0-1.0-1.21-4.21","battery-v0.2","","-1","&#9776;","elianto","#3366ff99","32","-1","0","0","","0","0","1","9999","3&age=9999&participant_ID=5&order=1","5",""
"pit-trial","112","503329","0.0-1.0-1.22-0.22","battery-v0.2","","-1","&#9776;","elianto","#3366ff99","32","-1","0","0","","0","0","1","9999","3&age=9999&participant_ID=5&order=1","5",""
"pit-trial","113","507837","0.0-1.0-1.22-1.22","battery-v0.2","","-1","&#9776;","elianto","#3366ff99","32","-1","0","0","","0","0","1","9999","3&age=9999&participant_ID=5&order=1","5",""
"pit-trial","114","512345","0.0-1.0-1.22-2.22","battery-v0.2","","-1","&#9776;","elianto","#3366ff99","32","-1","0","0","","0","0","1","9999","3&age=9999&participant_ID=5&order=1","5",""
"pit-trial","115","516848","0.0-1.0-1.22-3.22","battery-v0.2","","-1","&#9776;","elianto","#3366ff99","32","-1","0","+10","","0","0","1","9999","3&age=9999&participant_ID=5&order=1","5",""
"pit-trial","116","521355","0.0-1.0-1.22-4.22","battery-v0.2","","-1","&#9776;","elianto","#3366ff99","32","-1","0","0","","0","0","1","9999","3&age=9999&participant_ID=5&order=1","5",""
"pit-trial","117","525867","0.0-1.0-1.23-0.23","battery-v0.2","","-1","&#9776;","elianto","#3366ff99","32","-1","0","0","","0","0","1","9999","3&age=9999&participant_ID=5&order=1","5",""
"pit-trial","118","530374","0.0-1.0-1.23-1.23","battery-v0.2","","-1","&#9776;","elianto","#3366ff99","32","-1","0","0","","0","0","1","9999","3&age=9999&participant_ID=5&order=1","5",""
"pit-trial","119","534877","0.0-1.0-1.23-2.23","battery-v0.2","","-1","&#9776;","elianto","#3366ff99","32","-1","0","0","","0","0","1","9999","3&age=9999&participant_ID=5&order=1","5",""
"pit-trial","120","539379","0.0-1.0-1.23-3.23","battery-v0.2","","-1","&#9776;","elianto","#3366ff99","32","-1","0","+10","","0","0","1","9999","3&age=9999&participant_ID=5&order=1","5",""
"pit-trial","121","543884","0.0-1.0-1.23-4.23","battery-v0.2","","-1","&#9776;","elianto","#3366ff99","32","-1","0","0","","0","0","1","9999","3&age=9999&participant_ID=5&order=1","5",""
"pit-trial","122","548391","0.0-1.0-1.24-0.24","battery-v0.2","","-1","&#9776;","elianto","#3366ff99","32","-1","0","0","","0","0","1","9999","3&age=9999&participant_ID=5&order=1","5",""
"pit-trial","123","552899","0.0-1.0-1.24-1.24","battery-v0.2","","-1","&#9776;","elianto","#3366ff99","32","-1","0","0","","0","0","1","9999","3&age=9999&participant_ID=5&order=1","5",""
"pit-trial","124","557403","0.0-1.0-1.24-2.24","battery-v0.2","","-1","&#9776;","elianto","#3366ff99","32","-1","0","0","","0","0","1","9999","3&age=9999&participant_ID=5&order=1","5",""
"pit-trial","125","561909","0.0-1.0-1.24-3.24","battery-v0.2","","-1","&#9776;","elianto","#3366ff99","32","-1","0","+10","","0","0","1","9999","3&age=9999&participant_ID=5&order=1","5",""
"pit-trial","126","566421","0.0-1.0-1.24-4.24","battery-v0.2","","-1","&#9776;","elianto","#3366ff99","32","-1","0","0","","0","0","1","9999","3&age=9999&participant_ID=5&order=1","5",""
"pit-trial","127","570925","0.0-1.0-1.25-0.25","battery-v0.2","","-1","&#9776;","elianto","#3366ff99","32","-1","0","0","","0","0","1","9999","3&age=9999&participant_ID=5&order=1","5",""
"pit-trial","128","575429","0.0-1.0-1.25-1.25","battery-v0.2","","-1","&#9776;","elianto","#3366ff99","32","-1","0","0","","0","0","1","9999","3&age=9999&participant_ID=5&order=1","5",""
"pit-trial","129","579931","0.0-1.0-1.25-2.25","battery-v0.2","","-1","&#9776;","elianto","#3366ff99","32","-1","0","0","","0","0","1","9999","3&age=9999&participant_ID=5&order=1","5",""
"pit-trial","130","584438","0.0-1.0-1.25-3.25","battery-v0.2","","-1","&#9776;","elianto","#3366ff99","32","-1","0","+10","","0","0","1","9999","3&age=9999&participant_ID=5&order=1","5",""
"pit-trial","131","588945","0.0-1.0-1.25-4.25","battery-v0.2","","-1","&#9776;","elianto","#3366ff99","32","-1","0","0","","0","0","1","9999","3&age=9999&participant_ID=5&order=1","5",""
"pit-trial","132","593451","0.0-1.0-1.26-0.26","battery-v0.2","","-1","&#9776;","elianto","#3366ff99","32","-1","0","0","","0","0","1","9999","3&age=9999&participant_ID=5&order=1","5",""
"pit-trial","133","597957","0.0-1.0-1.26-1.26","battery-v0.2","","-1","&#9776;","elianto","#3366ff99","32","-1","0","0","","0","0","1","9999","3&age=9999&participant_ID=5&order=1","5",""
"pit-trial","134","602465","0.0-1.0-1.26-2.26","battery-v0.2","","-1","&#9776;","elianto","#3366ff99","32","-1","0","0","","0","0","1","9999","3&age=9999&participant_ID=5&order=1","5",""
"pit-trial","135","606973","0.0-1.0-1.26-3.26","battery-v0.2","","-1","&#9776;","elianto","#3366ff99","32","-1","0","+10","","0","0","1","9999","3&age=9999&participant_ID=5&order=1","5",""
"pit-trial","136","611483","0.0-1.0-1.26-4.26","battery-v0.2","","-1","&#9776;","elianto","#3366ff99","32","-1","0","0","","0","0","1","9999","3&age=9999&participant_ID=5&order=1","5",""
"pit-trial","137","615985","0.0-1.0-1.27-0.27","battery-v0.2","","-1","&#9776;","elianto","#3366ff99","32","-1","0","0","","0","0","1","9999","3&age=9999&participant_ID=5&order=1","5",""
"pit-trial","138","620490","0.0-1.0-1.27-1.27","battery-v0.2","","-1","&#9776;","elianto","#3366ff99","32","-1","0","0","","0","0","1","9999","3&age=9999&participant_ID=5&order=1","5",""
"pit-trial","139","624998","0.0-1.0-1.27-2.27","battery-v0.2","","-1","&#9776;","elianto","#3366ff99","32","-1","0","0","","0","0","1","9999","3&age=9999&participant_ID=5&order=1","5",""
"pit-trial","140","629505","0.0-1.0-1.27-3.27","battery-v0.2","","-1","&#9776;","elianto","#3366ff99","32","-1","0","+10","","0","0","1","9999","3&age=9999&participant_ID=5&order=1","5",""
"pit-trial","141","634013","0.0-1.0-1.27-4.27","battery-v0.2","","-1","&#9776;","elianto","#3366ff99","32","-1","0","0","","0","0","1","9999","3&age=9999&participant_ID=5&order=1","5",""
"pit-trial","142","638518","0.0-1.0-1.28-0.28","battery-v0.2","","-1","&#9776;","elianto","#3366ff99","32","-1","0","0","","0","0","1","9999","3&age=9999&participant_ID=5&order=1","5",""
"pit-trial","143","643021","0.0-1.0-1.28-1.28","battery-v0.2","","-1","&#9776;","elianto","#3366ff99","32","-1","0","0","","0","0","1","9999","3&age=9999&participant_ID=5&order=1","5",""
"pit-trial","144","647526","0.0-1.0-1.28-2.28","battery-v0.2","","-1","&#9776;","elianto","#3366ff99","32","-1","0","0","","0","0","1","9999","3&age=9999&participant_ID=5&order=1","5",""
"pit-trial","145","652032","0.0-1.0-1.28-3.28","battery-v0.2","","-1","&#9776;","elianto","#3366ff99","32","-1","0","+10","","0","0","1","9999","3&age=9999&participant_ID=5&order=1","5",""
"pit-trial","146","656537","0.0-1.0-1.28-4.28","battery-v0.2","","-1","&#9776;","elianto","#3366ff99","32","-1","0","0","","0","0","1","9999","3&age=9999&participant_ID=5&order=1","5",""
"pit-trial","147","661043","0.0-1.0-1.29-0.29","battery-v0.2","","-1","&#9776;","elianto","#3366ff99","32","-1","0","0","","0","0","1","9999","3&age=9999&participant_ID=5&order=1","5",""
"pit-trial","148","665544","0.0-1.0-1.29-1.29","battery-v0.2","","-1","&#9776;","elianto","#3366ff99","32","-1","0","0","","0","0","1","9999","3&age=9999&participant_ID=5&order=1","5",""
"pit-trial","149","670048","0.0-1.0-1.29-2.29","battery-v0.2","","-1","&#9776;","elianto","#3366ff99","32","-1","0","0","","0","0","1","9999","3&age=9999&participant_ID=5&order=1","5",""
"pit-trial","150","674550","0.0-1.0-1.29-3.29","battery-v0.2","","-1","&#9776;","elianto","#3366ff99","32","-1","0","+10","","0","0","1","9999","3&age=9999&participant_ID=5&order=1","5",""
"pit-trial","151","679059","0.0-1.0-1.29-4.29","battery-v0.2","","-1","&#9776;","elianto","#3366ff99","32","-1","0","0","","0","0","1","9999","3&age=9999&participant_ID=5&order=1","5",""
"pit-trial","152","683566","0.0-1.0-1.30-0.30","battery-v0.2","","-1","&#9776;","elianto","#3366ff99","32","-1","0","0","","0","0","1","9999","3&age=9999&participant_ID=5&order=1","5",""
"pit-trial","153","688069","0.0-1.0-1.30-1.30","battery-v0.2","","-1","&#9776;","elianto","#3366ff99","32","-1","0","0","","0","0","1","9999","3&age=9999&participant_ID=5&order=1","5",""
"pit-trial","154","692581","0.0-1.0-1.30-2.30","battery-v0.2","","-1","&#9776;","elianto","#3366ff99","32","-1","0","0","","0","0","1","9999","3&age=9999&participant_ID=5&order=1","5",""
"pit-trial","155","697085","0.0-1.0-1.30-3.30","battery-v0.2","","-1","&#9776;","elianto","#3366ff99","32","-1","0","+10","","0","0","1","9999","3&age=9999&participant_ID=5&order=1","5",""
"pit-trial","156","701590","0.0-1.0-1.30-4.30","battery-v0.2","","-1","&#9776;","elianto","#3366ff99","32","-1","0","0","","0","0","1","9999","3&age=9999&participant_ID=5&order=1","5",""
"pit-trial","157","706101","0.0-1.0-1.31-0.31","battery-v0.2","","-1","&#9776;","elianto","#3366ff99","32","-1","0","0","","0","0","1","9999","3&age=9999&participant_ID=5&order=1","5",""
"pit-trial","158","710609","0.0-1.0-1.31-1.31","battery-v0.2","","-1","&#9776;","elianto","#3366ff99","32","-1","0","0","","0","0","1","9999","3&age=9999&participant_ID=5&order=1","5",""
"pit-trial","159","715114","0.0-1.0-1.31-2.31","battery-v0.2","","-1","&#9776;","elianto","#3366ff99","32","-1","0","0","","0","0","1","9999","3&age=9999&participant_ID=5&order=1","5",""
"pit-trial","160","719621","0.0-1.0-1.31-3.31","battery-v0.2","","-1","&#9776;","elianto","#3366ff99","32","-1","0","+10","","0","0","1","9999","3&age=9999&participant_ID=5&order=1","5",""
"pit-trial","161","724129","0.0-1.0-1.31-4.31","battery-v0.2","","-1","&#9776;","elianto","#3366ff99","32","-1","0","0","","0","0","1","9999","3&age=9999&participant_ID=5&order=1","5",""
"pit-trial","162","728634","0.0-1.0-1.32-0.32","battery-v0.2","","-1","&#9776;","elianto","#3366ff99","32","-1","0","0","","0","0","1","9999","3&age=9999&participant_ID=5&order=1","5",""
"pit-trial","163","733144","0.0-1.0-1.32-1.32","battery-v0.2","","-1","&#9776;","elianto","#3366ff99","32","-1","0","0","","0","0","1","9999","3&age=9999&participant_ID=5&order=1","5",""
"pit-trial","164","737649","0.0-1.0-1.32-2.32","battery-v0.2","","-1","&#9776;","elianto","#3366ff99","32","-1","0","0","","0","0","1","9999","3&age=9999&participant_ID=5&order=1","5",""
"pit-trial","165","742160","0.0-1.0-1.32-3.32","battery-v0.2","","-1","&#9776;","elianto","#3366ff99","32","-1","0","+10","","0","0","1","9999","3&age=9999&participant_ID=5&order=1","5",""
"pit-trial","166","746666","0.0-1.0-1.32-4.32","battery-v0.2","","-1","&#9776;","elianto","#3366ff99","32","-1","0","0","","0","0","1","9999","3&age=9999&participant_ID=5&order=1","5",""
"pit-trial","167","751173","0.0-1.0-1.33-0.33","battery-v0.2","","-1","&#9776;","elianto","#3366ff99","32","-1","0","0","","0","0","1","9999","3&age=9999&participant_ID=5&order=1","5",""
"pit-trial","168","755682","0.0-1.0-1.33-1.33","battery-v0.2","","-1","&#9776;","elianto","#3366ff99","32","-1","0","0","","0","0","1","9999","3&age=9999&participant_ID=5&order=1","5",""
"pit-trial","169","760188","0.0-1.0-1.33-2.33","battery-v0.2","","-1","&#9776;","elianto","#3366ff99","32","-1","0","0","","0","0","1","9999","3&age=9999&participant_ID=5&order=1","5",""
"pit-trial","170","764696","0.0-1.0-1.33-3.33","battery-v0.2","","-1","&#9776;","elianto","#3366ff99","32","-1","0","+10","","0","0","1","9999","3&age=9999&participant_ID=5&order=1","5",""
"pit-trial","171","769198","0.0-1.0-1.33-4.33","battery-v0.2","","-1","&#9776;","elianto","#3366ff99","32","-1","0","0","","0","0","1","9999","3&age=9999&participant_ID=5&order=1","5",""
"pit-trial","172","773706","0.0-1.0-1.34-0.34","battery-v0.2","","-1","&#9776;","elianto","#3366ff99","32","-1","0","0","","0","0","1","9999","3&age=9999&participant_ID=5&order=1","5",""
"pit-trial","173","778209","0.0-1.0-1.34-1.34","battery-v0.2","","-1","&#9776;","elianto","#3366ff99","32","-1","0","0","","0","0","1","9999","3&age=9999&participant_ID=5&order=1","5",""
"pit-trial","174","782714","0.0-1.0-1.34-2.34","battery-v0.2","","-1","&#9776;","elianto","#3366ff99","32","-1","0","0","","0","0","1","9999","3&age=9999&participant_ID=5&order=1","5",""
"pit-trial","175","787218","0.0-1.0-1.34-3.34","battery-v0.2","","-1","&#9776;","elianto","#3366ff99","32","-1","0","+10","","0","0","1","9999","3&age=9999&participant_ID=5&order=1","5",""
"pit-trial","176","791720","0.0-1.0-1.34-4.34","battery-v0.2","","-1","&#9776;","elianto","#3366ff99","32","-1","0","0","","0","0","1","9999","3&age=9999&participant_ID=5&order=1","5",""
"pit-trial","177","796230","0.0-1.0-1.35-0.35","battery-v0.2","","-1","&#9776;","elianto","#3366ff99","32","-1","0","0","","0","0","1","9999","3&age=9999&participant_ID=5&order=1","5",""
"pit-trial","178","800740","0.0-1.0-1.35-1.35","battery-v0.2","","-1","&#9776;","elianto","#3366ff99","32","-1","0","0","","0","0","1","9999","3&age=9999&participant_ID=5&order=1","5",""
"pit-trial","179","805248","0.0-1.0-1.35-2.35","battery-v0.2","","-1","&#9776;","elianto","#3366ff99","32","-1","0","0","","0","0","1","9999","3&age=9999&participant_ID=5&order=1","5",""
"pit-trial","180","809753","0.0-1.0-1.35-3.35","battery-v0.2","","-1","&#9776;","elianto","#3366ff99","32","-1","0","+10","","0","0","1","9999","3&age=9999&participant_ID=5&order=1","5",""
"pit-trial","181","814255","0.0-1.0-1.35-4.35","battery-v0.2","","-1","&#9776;","elianto","#3366ff99","32","-1","0","0","","0","0","1","9999","3&age=9999&participant_ID=5&order=1","5",""
"pit-trial","182","818763","0.0-1.0-1.36-0.36","battery-v0.2","","-1","&#9776;","elianto","#3366ff99","32","-1","0","0","","0","0","1","9999","3&age=9999&participant_ID=5&order=1","5",""
"pit-trial","183","823269","0.0-1.0-1.36-1.36","battery-v0.2","","-1","&#9776;","elianto","#3366ff99","32","-1","0","0","","0","0","1","9999","3&age=9999&participant_ID=5&order=1","5",""
"pit-trial","184","827772","0.0-1.0-1.36-2.36","battery-v0.2","","-1","&#9776;","elianto","#3366ff99","32","-1","0","0","","0","0","1","9999","3&age=9999&participant_ID=5&order=1","5",""
"pit-trial","185","832280","0.0-1.0-1.36-3.36","battery-v0.2","","-1","&#9776;","elianto","#3366ff99","32","-1","0","+10","","0","0","1","9999","3&age=9999&participant_ID=5&order=1","5",""
"pit-trial","186","836787","0.0-1.0-1.36-4.36","battery-v0.2","","-1","&#9776;","elianto","#3366ff99","32","-1","0","0","","0","0","1","9999","3&age=9999&participant_ID=5&order=1","5",""
"pit-trial","187","841292","0.0-1.0-1.37-0.37","battery-v0.2","","-1","&#9776;","elianto","#3366ff99","32","-1","0","0","","0","0","1","9999","3&age=9999&participant_ID=5&order=1","5",""
"pit-trial","188","845798","0.0-1.0-1.37-1.37","battery-v0.2","","-1","&#9776;","elianto","#3366ff99","32","-1","0","0","","0","0","1","9999","3&age=9999&participant_ID=5&order=1","5",""
"pit-trial","189","850304","0.0-1.0-1.37-2.37","battery-v0.2","","-1","&#9776;","elianto","#3366ff99","32","-1","0","0","","0","0","1","9999","3&age=9999&participant_ID=5&order=1","5",""
"pit-trial","190","854811","0.0-1.0-1.37-3.37","battery-v0.2","","-1","&#9776;","elianto","#3366ff99","32","-1","0","+10","","0","0","1","9999","3&age=9999&participant_ID=5&order=1","5",""
"pit-trial","191","859313","0.0-1.0-1.37-4.37","battery-v0.2","","-1","&#9776;","elianto","#3366ff99","32","-1","0","0","","0","0","1","9999","3&age=9999&participant_ID=5&order=1","5",""
"pit-trial","192","863815","0.0-1.0-1.38-0.38","battery-v0.2","","-1","&#9776;","elianto","#3366ff99","32","-1","0","0","","0","0","1","9999","3&age=9999&participant_ID=5&order=1","5",""
"pit-trial","193","868324","0.0-1.0-1.38-1.38","battery-v0.2","","-1","&#9776;","elianto","#3366ff99","32","-1","0","0","","0","0","1","9999","3&age=9999&participant_ID=5&order=1","5",""
"pit-trial","194","872831","0.0-1.0-1.38-2.38","battery-v0.2","","-1","&#9776;","elianto","#3366ff99","32","-1","0","0","","0","0","1","9999","3&age=9999&participant_ID=5&order=1","5",""
"pit-trial","195","877339","0.0-1.0-1.38-3.38","battery-v0.2","","-1","&#9776;","elianto","#3366ff99","32","-1","0","+10","","0","0","1","9999","3&age=9999&participant_ID=5&order=1","5",""
"pit-trial","196","881848","0.0-1.0-1.38-4.38","battery-v0.2","","-1","&#9776;","elianto","#3366ff99","32","-1","0","0","","0","0","1","9999","3&age=9999&participant_ID=5&order=1","5",""
"pit-trial","197","886353","0.0-1.0-1.39-0.39","battery-v0.2","","-1","&#9776;","elianto","#3366ff99","32","-1","0","0","","0","0","1","9999","3&age=9999&participant_ID=5&order=1","5",""
"pit-trial","198","890856","0.0-1.0-1.39-1.39","battery-v0.2","","-1","&#9776;","elianto","#3366ff99","32","-1","0","0","","0","0","1","9999","3&age=9999&participant_ID=5&order=1","5",""
"pit-trial","199","895362","0.0-1.0-1.39-2.39","battery-v0.2","","-1","&#9776;","elianto","#3366ff99","32","-1","0","0","","0","0","1","9999","3&age=9999&participant_ID=5&order=1","5",""
"pit-trial","200","899873","0.0-1.0-1.39-3.39","battery-v0.2","","-1","&#9776;","elianto","#3366ff99","32","-1","0","+10","","0","0","1","9999","3&age=9999&participant_ID=5&order=1","5",""
"pit-trial","201","904377","0.0-1.0-1.39-4.39","battery-v0.2","","-1","&#9776;","elianto","#3366ff99","32","-1","0","0","","0","0","1","9999","3&age=9999&participant_ID=5&order=1","5",""
"pit-trial","202","908885","0.0-1.0-1.40-0.40","battery-v0.2","","-1","&#9776;","elianto","#3366ff99","32","-1","0","0","","0","0","1","9999","3&age=9999&participant_ID=5&order=1","5",""
"pit-trial","203","913393","0.0-1.0-1.40-1.40","battery-v0.2","","-1","&#9776;","elianto","#3366ff99","32","-1","0","0","","0","0","1","9999","3&age=9999&participant_ID=5&order=1","5",""
"pit-trial","204","917903","0.0-1.0-1.40-2.40","battery-v0.2","","-1","&#9776;","elianto","#3366ff99","32","-1","0","0","","0","0","1","9999","3&age=9999&participant_ID=5&order=1","5",""
"pit-trial","205","922413","0.0-1.0-1.40-3.40","battery-v0.2","","-1","&#9776;","elianto","#3366ff99","32","-1","0","+10","","0","0","1","9999","3&age=9999&participant_ID=5&order=1","5",""
"pit-trial","206","926920","0.0-1.0-1.40-4.40","battery-v0.2","","-1","&#9776;","elianto","#3366ff99","32","-1","0","0","","0","0","1","9999","3&age=9999&participant_ID=5&order=1","5",""
"pit-trial","207","931424","0.0-1.0-1.41-0.41","battery-v0.2","","-1","&#9776;","elianto","#3366ff99","32","-1","0","0","","0","0","1","9999","3&age=9999&participant_ID=5&order=1","5",""
"pit-trial","208","935932","0.0-1.0-1.41-1.41","battery-v0.2","","-1","&#9776;","elianto","#3366ff99","32","-1","0","0","","0","0","1","9999","3&age=9999&participant_ID=5&order=1","5",""
"pit-trial","209","940438","0.0-1.0-1.41-2.41","battery-v0.2","","-1","&#9776;","elianto","#3366ff99","32","-1","0","0","","0","0","1","9999","3&age=9999&participant_ID=5&order=1","5",""
"pit-trial","210","944946","0.0-1.0-1.41-3.41","battery-v0.2","","-1","&#9776;","elianto","#3366ff99","32","-1","0","+10","","0","0","1","9999","3&age=9999&participant_ID=5&order=1","5",""
"pit-trial","211","949452","0.0-1.0-1.41-4.41","battery-v0.2","","-1","&#9776;","elianto","#3366ff99","32","-1","0","0","","0","0","1","9999","3&age=9999&participant_ID=5&order=1","5",""
"pit-trial","212","953959","0.0-1.0-1.42-0.42","battery-v0.2","","-1","&#9776;","elianto","#3366ff99","32","-1","0","0","","0","0","1","9999","3&age=9999&participant_ID=5&order=1","5",""
"pit-trial","213","958467","0.0-1.0-1.42-1.42","battery-v0.2","","-1","&#9776;","elianto","#3366ff99","32","-1","0","0","","0","0","1","9999","3&age=9999&participant_ID=5&order=1","5",""
"pit-trial","214","962971","0.0-1.0-1.42-2.42","battery-v0.2","","-1","&#9776;","elianto","#3366ff99","32","-1","0","0","","0","0","1","9999","3&age=9999&participant_ID=5&order=1","5",""
"pit-trial","215","967473","0.0-1.0-1.42-3.42","battery-v0.2","","-1","&#9776;","elianto","#3366ff99","32","-1","0","+10","","0","0","1","9999","3&age=9999&participant_ID=5&order=1","5",""
"pit-trial","216","971975","0.0-1.0-1.42-4.42","battery-v0.2","","-1","&#9776;","elianto","#3366ff99","32","-1","0","0","","0","0","1","9999","3&age=9999&participant_ID=5&order=1","5",""
"pit-trial","217","976479","0.0-1.0-1.43-0.43","battery-v0.2","","-1","&#9776;","elianto","#3366ff99","32","-1","0","0","","0","0","1","9999","3&age=9999&participant_ID=5&order=1","5",""
"pit-trial","218","980984","0.0-1.0-1.43-1.43","battery-v0.2","","-1","&#9776;","elianto","#3366ff99","32","-1","0","0","","0","0","1","9999","3&age=9999&participant_ID=5&order=1","5",""
"pit-trial","219","985487","0.0-1.0-1.43-2.43","battery-v0.2","","-1","&#9776;","elianto","#3366ff99","32","-1","0","0","","0","0","1","9999","3&age=9999&participant_ID=5&order=1","5",""
"pit-trial","220","989996","0.0-1.0-1.43-3.43","battery-v0.2","","-1","&#9776;","elianto","#3366ff99","32","-1","0","+10","","0","0","1","9999","3&age=9999&participant_ID=5&order=1","5",""
"pit-trial","221","994507","0.0-1.0-1.43-4.43","battery-v0.2","","-1","&#9776;","elianto","#3366ff99","32","-1","0","0","","0","0","1","9999","3&age=9999&participant_ID=5&order=1","5",""
"pit-trial","222","999013","0.0-1.0-1.44-0.44","battery-v0.2","","-1","&#9776;","elianto","#3366ff99","32","-1","0","0","","0","0","1","9999","3&age=9999&participant_ID=5&order=1","5",""
"pit-trial","223","1003518","0.0-1.0-1.44-1.44","battery-v0.2","","-1","&#9776;","elianto","#3366ff99","32","-1","0","0","","0","0","1","9999","3&age=9999&participant_ID=5&order=1","5",""
"pit-trial","224","1008030","0.0-1.0-1.44-2.44","battery-v0.2","","-1","&#9776;","elianto","#3366ff99","32","-1","0","0","","0","0","1","9999","3&age=9999&participant_ID=5&order=1","5",""
"pit-trial","225","1012540","0.0-1.0-1.44-3.44","battery-v0.2","","-1","&#9776;","elianto","#3366ff99","32","-1","0","+10","","0","0","1","9999","3&age=9999&participant_ID=5&order=1","5",""
"pit-trial","226","1017048","0.0-1.0-1.44-4.44","battery-v0.2","","-1","&#9776;","elianto","#3366ff99","32","-1","0","0","","0","0","1","9999","3&age=9999&participant_ID=5&order=1","5",""
"pit-trial","227","1021555","0.0-1.0-1.45-0.45","battery-v0.2","","-1","&#9776;","elianto","#3366ff99","32","-1","0","0","","0","0","1","9999","3&age=9999&participant_ID=5&order=1","5",""
"pit-trial","228","1026067","0.0-1.0-1.45-1.45","battery-v0.2","","-1","&#9776;","elianto","#3366ff99","32","-1","0","0","","0","0","1","9999","3&age=9999&participant_ID=5&order=1","5",""
"pit-trial","229","1030579","0.0-1.0-1.45-2.45","battery-v0.2","","-1","&#9776;","elianto","#3366ff99","32","-1","0","0","","0","0","1","9999","3&age=9999&participant_ID=5&order=1","5",""
"pit-trial","230","1035089","0.0-1.0-1.45-3.45","battery-v0.2","","-1","&#9776;","elianto","#3366ff99","32","-1","0","+10","","0","0","1","9999","3&age=9999&participant_ID=5&order=1","5",""
"pit-trial","231","1039594","0.0-1.0-1.45-4.45","battery-v0.2","","-1","&#9776;","elianto","#3366ff99","32","-1","0","0","","0","0","1","9999","3&age=9999&participant_ID=5&order=1","5",""
"pit-trial","232","1044097","0.0-1.0-1.46-0.46","battery-v0.2","","-1","&#9776;","elianto","#3366ff99","32","-1","0","0","3326.1999999284744","1","0","1","9999","3&age=9999&participant_ID=5&order=1","5",""
"pit-trial","233","1047424","0.0-1.0-1.46-1.46","battery-v0.2","","817.6999999284744","&#9776;","elianto","#3366ff99","32","32","1","+10","1319.1999999284744","1","0","1","9999","3&age=9999&participant_ID=5&order=1","5",""
"pit-trial","234","1050580","0.0-1.0-1.46-2.46","battery-v0.2","","653.1000000238419","&#9776;","elianto","#3366ff99","32","32","1","+10","1154.3999999761581","1","0","1","9999","3&age=9999&participant_ID=5&order=1","5",""
"pit-trial","235","1053799","0.0-1.0-1.46-3.46","battery-v0.2","","712.6000000238419","&#9776;","elianto","#3366ff99","32","32","1","0","1215","1","0","1","9999","3&age=9999&participant_ID=5&order=1","5",""
"pit-trial","236","1056880","0.0-1.0-1.46-4.46","battery-v0.2","","578.1000000238419","&#9776;","elianto","#3366ff99","32","32","1","+10","1078.8999999761581","1","0","1","9999","3&age=9999&participant_ID=5&order=1","5",""
"call-function","237","1056881","0.0-1.0-2.0","battery-v0.2","","","","","","","","","","","","","","","","",""
"pit-instructions","238","1059618","0.0-1.0-3.0","battery-v0.2","[{""page_index"":0,""viewing_time"":1886.3999999761581},{""page_index"":1,""viewing_time"":183.30000007152557},{""page_index"":2,""viewing_time"":166.59999990463257},{""page_index"":3,""viewing_time"":166.40000009536743},{""page_index"":4,""viewing_time"":166.89999997615814},{""page_index"":5,""viewing_time"":166.10000002384186}]","2736.2000000476837","","","","","","","","","","","","","","",""
"pit-trial","239","1063271","0.0-1.0-4.0-0.0","battery-v0.2","","1149","&#9761;","elianto","#3366ff99","-1","32","0","0","1649.2999999523163","1","0","2","9999","3&age=9999&participant_ID=5&order=1","5",""
"pit-trial","240","1067774","0.0-1.0-4.0-1.0","battery-v0.2","","-1","&#9761;","elianto","#3366ff99","-1","-1","1","+10","","0","0","2","9999","3&age=9999&participant_ID=5&order=1","5",""
"pit-trial","241","1072283","0.0-1.0-4.0-2.0","battery-v0.2","","-1","&#9761;","elianto","#3366ff99","-1","-1","1","+10","","0","0","2","9999","3&age=9999&participant_ID=5&order=1","5",""
"pit-trial","242","1076790","0.0-1.0-4.0-3.0","battery-v0.2","","-1","&#9761;","elianto","#3366ff99","-1","-1","1","+10","","0","0","2","9999","3&age=9999&participant_ID=5&order=1","5",""
"pit-trial","243","1081296","0.0-1.0-4.0-4.0","battery-v0.2","","-1","&#9761;","elianto","#3366ff99","-1","-1","1","0","","0","0","2","9999","3&age=9999&participant_ID=5&order=1","5",""
"call-function","244","1081297","0.0-1.0-5.0","battery-v0.2","","","","","","","","","","","","","","","","",""
"pit-instructions","245","1084133","0.0-1.0-6.0","battery-v0.2","[{""page_index"":0,""viewing_time"":2135.6999999284744},{""page_index"":1,""viewing_time"":183},{""page_index"":2,""viewing_time"":183.70000004768372},{""page_index"":3,""viewing_time"":166.60000002384186},{""page_index"":4,""viewing_time"":166.5}]","2835.899999976158","","","","","","","","","","","","","","",""
"pit-trial","246","1088636","0.0-1.0-7.0-0.0","battery-v0.2","","-1","&#9826;","elianto","#f73b6a7A","-1","-1","1","0","","0","0","3","9999","3&age=9999&participant_ID=5&order=1","5",""
"pit-trial","247","1093143","0.0-1.0-7.0-1.0","battery-v0.2","","-1","&#9826;","elianto","#f73b6a7A","-1","-1","1","0","","0","0","3","9999","3&age=9999&participant_ID=5&order=1","5",""
"pit-trial","248","1097648","0.0-1.0-7.0-2.0","battery-v0.2","","-1","&#9826;","elianto","#f73b6a7A","-1","-1","1","-10","","0","0","3","9999","3&age=9999&participant_ID=5&order=1","5",""
"pit-trial","249","1102158","0.0-1.0-7.0-3.0","battery-v0.2","","-1","&#9826;","elianto","#f73b6a7A","-1","-1","1","0","","0","0","3","9999","3&age=9999&participant_ID=5&order=1","5",""
"pit-trial","250","1106661","0.0-1.0-7.0-4.0","battery-v0.2","","-1","&#9826;","elianto","#f73b6a7A","-1","-1","1","0","","0","0","3","9999","3&age=9999&participant_ID=5&order=1","5",""
"call-function","251","1106661","0.0-1.0-8.0","battery-v0.2","","","","","","","","","","","","","","","","",""
"pit-instructions","252","1737902","0.0-1.0-9.0","battery-v0.2","[{""page_index"":0,""viewing_time"":630654.6000000238},{""page_index"":1,""viewing_time"":98.5},{""page_index"":2,""viewing_time"":366.6999999284744}]","631119.8999999762","","","","","","","","","","","","","","",""
"pit-trial","253","1741062","0.0-1.0-10.0-0.0","battery-v0.2","","657.8999999761581","&#9789;","elianto","#f73b6a7A","32","32","1","0","1158.8000000715256","1","0","4","9999","3&age=9999&participant_ID=5&order=1","5",""
"pit-trial","254","1743945","0.0-1.0-10.0-1.0","battery-v0.2","","374.60000002384186","&#9789;","elianto","#f73b6a7A","32","32","1","0","877.1000000238419","1","0","4","9999","3&age=9999&participant_ID=5&order=1","5",""
"pit-trial","255","1747007","0.0-1.0-10.0-2.0","battery-v0.2","","553.2999999523163","&#9789;","elianto","#f73b6a7A","32","32","1","0","1055.6000000238419","1","0","4","9999","3&age=9999&participant_ID=5&order=1","5",""
"pit-trial","256","1749909","0.0-1.0-10.0-3.0","battery-v0.2","","395","&#9789;","elianto","#f73b6a7A","32","32","1","0","896","1","0","4","9999","3&age=9999&participant_ID=5&order=1","5",""
"pit-trial","257","1754411","0.0-1.0-10.0-4.0","battery-v0.2","","-1","&#9789;","elianto","#f73b6a7A","32","-1","0","0","","0","0","4","9999","3&age=9999&participant_ID=5&order=1","5",""
"pit-trial","258","1758916","0.0-1.0-10.1-0.1","battery-v0.2","","-1","&#9789;","elianto","#f73b6a7A","32","-1","0","-10","","0","0","4","9999","3&age=9999&participant_ID=5&order=1","5",""
"pit-trial","259","1763426","0.0-1.0-10.1-1.1","battery-v0.2","","-1","&#9789;","elianto","#f73b6a7A","32","-1","0","-10","","0","0","4","9999","3&age=9999&participant_ID=5&order=1","5",""
"pit-trial","260","1767929","0.0-1.0-10.1-2.1","battery-v0.2","","-1","&#9789;","elianto","#f73b6a7A","32","-1","0","-10","","0","0","4","9999","3&age=9999&participant_ID=5&order=1","5",""
"pit-trial","261","1772432","0.0-1.0-10.1-3.1","battery-v0.2","","-1","&#9789;","elianto","#f73b6a7A","32","-1","0","-10","","0","0","4","9999","3&age=9999&participant_ID=5&order=1","5",""
"pit-trial","262","1776941","0.0-1.0-10.1-4.1","battery-v0.2","","-1","&#9789;","elianto","#f73b6a7A","32","-1","0","0","","0","0","4","9999","3&age=9999&participant_ID=5&order=1","5",""
"pit-trial","263","1781447","0.0-1.0-10.2-0.2","battery-v0.2","","-1","&#9789;","elianto","#f73b6a7A","32","-1","0","-10","","0","0","4","9999","3&age=9999&participant_ID=5&order=1","5",""
"pit-trial","264","1785952","0.0-1.0-10.2-1.2","battery-v0.2","","-1","&#9789;","elianto","#f73b6a7A","32","-1","0","-10","","0","0","4","9999","3&age=9999&participant_ID=5&order=1","5",""
"pit-trial","265","1790463","0.0-1.0-10.2-2.2","battery-v0.2","","-1","&#9789;","elianto","#f73b6a7A","32","-1","0","-10","","0","0","4","9999","3&age=9999&participant_ID=5&order=1","5",""
"pit-trial","266","1794965","0.0-1.0-10.2-3.2","battery-v0.2","","-1","&#9789;","elianto","#f73b6a7A","32","-1","0","-10","","0","0","4","9999","3&age=9999&participant_ID=5&order=1","5",""
"pit-trial","267","1799471","0.0-1.0-10.2-4.2","battery-v0.2","","-1","&#9789;","elianto","#f73b6a7A","32","-1","0","0","","0","0","4","9999","3&age=9999&participant_ID=5&order=1","5",""
"pit-trial","268","1803973","0.0-1.0-10.3-0.3","battery-v0.2","","-1","&#9789;","elianto","#f73b6a7A","32","-1","0","-10","","0","0","4","9999","3&age=9999&participant_ID=5&order=1","5",""
"pit-trial","269","1808480","0.0-1.0-10.3-1.3","battery-v0.2","","-1","&#9789;","elianto","#f73b6a7A","32","-1","0","-10","","0","0","4","9999","3&age=9999&participant_ID=5&order=1","5",""
"pit-trial","270","1812991","0.0-1.0-10.3-2.3","battery-v0.2","","-1","&#9789;","elianto","#f73b6a7A","32","-1","0","-10","","0","0","4","9999","3&age=9999&participant_ID=5&order=1","5",""
"pit-trial","271","1817496","0.0-1.0-10.3-3.3","battery-v0.2","","-1","&#9789;","elianto","#f73b6a7A","32","-1","0","-10","","0","0","4","9999","3&age=9999&participant_ID=5&order=1","5",""
"pit-trial","272","1821999","0.0-1.0-10.3-4.3","battery-v0.2","","-1","&#9789;","elianto","#f73b6a7A","32","-1","0","0","","0","0","4","9999","3&age=9999&participant_ID=5&order=1","5",""
"pit-trial","273","1826507","0.0-1.0-10.4-0.4","battery-v0.2","","-1","&#9789;","elianto","#f73b6a7A","32","-1","0","-10","","0","0","4","9999","3&age=9999&participant_ID=5&order=1","5",""
"pit-trial","274","1831013","0.0-1.0-10.4-1.4","battery-v0.2","","-1","&#9789;","elianto","#f73b6a7A","32","-1","0","-10","","0","0","4","9999","3&age=9999&participant_ID=5&order=1","5",""
"pit-trial","275","1835521","0.0-1.0-10.4-2.4","battery-v0.2","","-1","&#9789;","elianto","#f73b6a7A","32","-1","0","-10","","0","0","4","9999","3&age=9999&participant_ID=5&order=1","5",""
"pit-trial","276","1840023","0.0-1.0-10.4-3.4","battery-v0.2","","-1","&#9789;","elianto","#f73b6a7A","32","-1","0","-10","","0","0","4","9999","3&age=9999&participant_ID=5&order=1","5",""
"pit-trial","277","1844528","0.0-1.0-10.4-4.4","battery-v0.2","","-1","&#9789;","elianto","#f73b6a7A","32","-1","0","0","","0","0","4","9999","3&age=9999&participant_ID=5&order=1","5",""
"pit-trial","278","1849034","0.0-1.0-10.5-0.5","battery-v0.2","","-1","&#9789;","elianto","#f73b6a7A","32","-1","0","-10","","0","0","4","9999","3&age=9999&participant_ID=5&order=1","5",""
"pit-trial","279","1853539","0.0-1.0-10.5-1.5","battery-v0.2","","-1","&#9789;","elianto","#f73b6a7A","32","-1","0","-10","","0","0","4","9999","3&age=9999&participant_ID=5&order=1","5",""
"pit-trial","280","1858043","0.0-1.0-10.5-2.5","battery-v0.2","","-1","&#9789;","elianto","#f73b6a7A","32","-1","0","-10","","0","0","4","9999","3&age=9999&participant_ID=5&order=1","5",""
"pit-trial","281","1862545","0.0-1.0-10.5-3.5","battery-v0.2","","-1","&#9789;","elianto","#f73b6a7A","32","-1","0","-10","","0","0","4","9999","3&age=9999&participant_ID=5&order=1","5",""
"pit-trial","282","1867050","0.0-1.0-10.5-4.5","battery-v0.2","","-1","&#9789;","elianto","#f73b6a7A","32","-1","0","0","","0","0","4","9999","3&age=9999&participant_ID=5&order=1","5",""
"pit-trial","283","1871558","0.0-1.0-10.6-0.6","battery-v0.2","","-1","&#9789;","elianto","#f73b6a7A","32","-1","0","-10","","0","0","4","9999","3&age=9999&participant_ID=5&order=1","5",""
"pit-trial","284","1876059","0.0-1.0-10.6-1.6","battery-v0.2","","-1","&#9789;","elianto","#f73b6a7A","32","-1","0","-10","","0","0","4","9999","3&age=9999&participant_ID=5&order=1","5",""
"pit-trial","285","1880560","0.0-1.0-10.6-2.6","battery-v0.2","","-1","&#9789;","elianto","#f73b6a7A","32","-1","0","-10","","0","0","4","9999","3&age=9999&participant_ID=5&order=1","5",""
"pit-trial","286","1885071","0.0-1.0-10.6-3.6","battery-v0.2","","-1","&#9789;","elianto","#f73b6a7A","32","-1","0","-10","","0","0","4","9999","3&age=9999&participant_ID=5&order=1","5",""
"pit-trial","287","1889582","0.0-1.0-10.6-4.6","battery-v0.2","","-1","&#9789;","elianto","#f73b6a7A","32","-1","0","0","","0","0","4","9999","3&age=9999&participant_ID=5&order=1","5",""
"pit-trial","288","1894091","0.0-1.0-10.7-0.7","battery-v0.2","","-1","&#9789;","elianto","#f73b6a7A","32","-1","0","-10","","0","0","4","9999","3&age=9999&participant_ID=5&order=1","5",""
"pit-trial","289","1898593","0.0-1.0-10.7-1.7","battery-v0.2","","-1","&#9789;","elianto","#f73b6a7A","32","-1","0","-10","","0","0","4","9999","3&age=9999&participant_ID=5&order=1","5",""
"pit-trial","290","1903097","0.0-1.0-10.7-2.7","battery-v0.2","","-1","&#9789;","elianto","#f73b6a7A","32","-1","0","-10","","0","0","4","9999","3&age=9999&participant_ID=5&order=1","5",""
"pit-trial","291","1907606","0.0-1.0-10.7-3.7","battery-v0.2","","-1","&#9789;","elianto","#f73b6a7A","32","-1","0","-10","","0","0","4","9999","3&age=9999&participant_ID=5&order=1","5",""
"pit-trial","292","1912108","0.0-1.0-10.7-4.7","battery-v0.2","","-1","&#9789;","elianto","#f73b6a7A","32","-1","0","0","","0","0","4","9999","3&age=9999&participant_ID=5&order=1","5",""
"pit-trial","293","1916614","0.0-1.0-10.8-0.8","battery-v0.2","","-1","&#9789;","elianto","#f73b6a7A","32","-1","0","-10","","0","0","4","9999","3&age=9999&participant_ID=5&order=1","5",""
"pit-trial","294","1921119","0.0-1.0-10.8-1.8","battery-v0.2","","-1","&#9789;","elianto","#f73b6a7A","32","-1","0","-10","","0","0","4","9999","3&age=9999&participant_ID=5&order=1","5",""
"pit-trial","295","1925623","0.0-1.0-10.8-2.8","battery-v0.2","","-1","&#9789;","elianto","#f73b6a7A","32","-1","0","-10","","0","0","4","9999","3&age=9999&participant_ID=5&order=1","5",""
"pit-trial","296","1930133","0.0-1.0-10.8-3.8","battery-v0.2","","-1","&#9789;","elianto","#f73b6a7A","32","-1","0","-10","","0","0","4","9999","3&age=9999&participant_ID=5&order=1","5",""
"pit-trial","297","1934639","0.0-1.0-10.8-4.8","battery-v0.2","","-1","&#9789;","elianto","#f73b6a7A","32","-1","0","0","","0","0","4","9999","3&age=9999&participant_ID=5&order=1","5",""
"pit-trial","298","1939146","0.0-1.0-10.9-0.9","battery-v0.2","","-1","&#9789;","elianto","#f73b6a7A","32","-1","0","-10","","0","0","4","9999","3&age=9999&participant_ID=5&order=1","5",""
"pit-trial","299","1943653","0.0-1.0-10.9-1.9","battery-v0.2","","-1","&#9789;","elianto","#f73b6a7A","32","-1","0","-10","","0","0","4","9999","3&age=9999&participant_ID=5&order=1","5",""
"pit-trial","300","1948155","0.0-1.0-10.9-2.9","battery-v0.2","","-1","&#9789;","elianto","#f73b6a7A","32","-1","0","-10","","0","0","4","9999","3&age=9999&participant_ID=5&order=1","5",""
"pit-trial","301","1952665","0.0-1.0-10.9-3.9","battery-v0.2","","-1","&#9789;","elianto","#f73b6a7A","32","-1","0","-10","","0","0","4","9999","3&age=9999&participant_ID=5&order=1","5",""
"pit-trial","302","1957172","0.0-1.0-10.9-4.9","battery-v0.2","","-1","&#9789;","elianto","#f73b6a7A","32","-1","0","0","","0","0","4","9999","3&age=9999&participant_ID=5&order=1","5",""
"pit-trial","303","1961679","0.0-1.0-10.10-0.10","battery-v0.2","","-1","&#9789;","elianto","#f73b6a7A","32","-1","0","-10","","0","0","4","9999","3&age=9999&participant_ID=5&order=1","5",""
"pit-trial","304","1966188","0.0-1.0-10.10-1.10","battery-v0.2","","-1","&#9789;","elianto","#f73b6a7A","32","-1","0","-10","","0","0","4","9999","3&age=9999&participant_ID=5&order=1","5",""
"pit-trial","305","1970698","0.0-1.0-10.10-2.10","battery-v0.2","","-1","&#9789;","elianto","#f73b6a7A","32","-1","0","-10","","0","0","4","9999","3&age=9999&participant_ID=5&order=1","5",""
"pit-trial","306","1975205","0.0-1.0-10.10-3.10","battery-v0.2","","-1","&#9789;","elianto","#f73b6a7A","32","-1","0","-10","","0","0","4","9999","3&age=9999&participant_ID=5&order=1","5",""
"pit-trial","307","1979712","0.0-1.0-10.10-4.10","battery-v0.2","","-1","&#9789;","elianto","#f73b6a7A","32","-1","0","0","","0","0","4","9999","3&age=9999&participant_ID=5&order=1","5",""
"pit-trial","308","1984220","0.0-1.0-10.11-0.11","battery-v0.2","","-1","&#9789;","elianto","#f73b6a7A","32","-1","0","-10","","0","0","4","9999","3&age=9999&participant_ID=5&order=1","5",""
"pit-trial","309","1988729","0.0-1.0-10.11-1.11","battery-v0.2","","-1","&#9789;","elianto","#f73b6a7A","32","-1","0","-10","","0","0","4","9999","3&age=9999&participant_ID=5&order=1","5",""
"pit-trial","310","1993237","0.0-1.0-10.11-2.11","battery-v0.2","","-1","&#9789;","elianto","#f73b6a7A","32","-1","0","-10","","0","0","4","9999","3&age=9999&participant_ID=5&order=1","5",""
"pit-trial","311","1997741","0.0-1.0-10.11-3.11","battery-v0.2","","-1","&#9789;","elianto","#f73b6a7A","32","-1","0","-10","","0","0","4","9999","3&age=9999&participant_ID=5&order=1","5",""
"pit-trial","312","2002243","0.0-1.0-10.11-4.11","battery-v0.2","","-1","&#9789;","elianto","#f73b6a7A","32","-1","0","0","","0","0","4","9999","3&age=9999&participant_ID=5&order=1","5",""
"call-function","313","2002244","0.0-1.0-11.0","battery-v0.2","","","","","","","","","","","","","","","","",""
