"trial_type","trial_index","time_elapsed","internal_node_id","task_version","view_history","rt","rune","rune_set","hex","correct","choice","accuracy","outcome","keys","total_keys","block","practice","value","responses","num_errors","quiz","sub","trial","stimulus","robot","valence","action","sham"
"pavlovia","0","14","0.0-0.0","battery-v0.2","","","","","","","","","","","","","","","","","","","","","","","",""
"pit-instructions","1","6392","0.0-1.0-0.0","battery-v0.2","[{""page_index"":0,""viewing_time"":2953.099999964237},{""page_index"":1,""viewing_time"":830.3000000119209},{""page_index"":2,""viewing_time"":536.1000000238419},{""page_index"":3,""viewing_time"":268.89999997615814},{""page_index"":4,""viewing_time"":251.39999997615814},{""page_index"":5,""viewing_time"":210.4000000357628},{""page_index"":6,""viewing_time"":244.5999999642372},{""page_index"":7,""viewing_time"":219.5},{""page_index"":8,""viewing_time"":228.20000004768372},{""page_index"":9,""viewing_time"":209.89999997615814},{""page_index"":10,""viewing_time"":219.60000002384186},{""page_index"":11,""viewing_time"":203.69999998807907}]","6377.199999988079","","","","","","","","","","","","","","","","","","","","","",""
"pit-trial","2","10241","0.0-1.0-1.0-0.0","battery-v0.2","","336.69999998807907","&#9776;","elianto","#3366ff99","32","32","1","+10","1838.4000000357628","1","0","1","","","","","","","","","","",""
"pit-trial","3","13924","0.0-1.0-1.0-1.0","battery-v0.2","","172.4000000357628","&#9776;","elianto","#3366ff99","32","32","1","+10","1673.4000000357628","1","0","1","","","","","","","","","","",""
"pit-trial","4","18035","0.0-1.0-1.0-2.0","battery-v0.2","","599.6999999880791","&#9776;","elianto","#3366ff99","32","32","1","+10","2100.7999999523163","1","0","1","","","","","","","","","","",""
"pit-trial","5","21688","0.0-1.0-1.0-3.0","battery-v0.2","","140.69999998807907","&#9776;","elianto","#3366ff99","32","32","1","0","1640.800000011921","1","0","1","","","","","","","","","","",""
"pit-trial","6","25489","0.0-1.0-1.0-4.0","battery-v0.2","","292.30000001192093","&#9776;","elianto","#3366ff99","32","32","1","+10","1791.9000000357628","1","0","1","","","","","","","","","","",""
"call-function","7","25493","0.0-1.0-2.0","battery-v0.2","","","","","","","","","","","","","","","","","","","","","","","",""
"pit-instructions","8","31316","0.0-1.0-3.0","battery-v0.2","[{""page_index"":0,""viewing_time"":2486.199999988079},{""page_index"":1,""viewing_time"":1519.199999988079},{""page_index"":2,""viewing_time"":496.5},{""page_index"":3,""viewing_time"":373.5},{""page_index"":4,""viewing_time"":757.9000000357628},{""page_index"":5,""viewing_time"":187.5}]","5821.199999988079","","","","","","","","","","","","","","","","","","","","","",""
"pit-trial","9","35203","0.0-1.0-4.0-0.0","battery-v0.2","","381.30000001192093","&#9776;","elianto","#3366ff99","-1","32","0","0","1883.6000000238419","1","0","2","","","","","","","","","","",""
"pit-trial","10","39079","0.0-1.0-4.0-1.0","battery-v0.2","","366.19999998807907","&#9776;","elianto","#3366ff99","-1","32","0","0","1866.199999988079","1","0","2","","","","","","","","","","",""
"pit-trial","11","44595","0.0-1.0-4.0-2.0","battery-v0.2","","-1","&#9776;","elianto","#3366ff99","-1","-1","1","+10","","0","0","2","","","","","","","","","","",""
"pit-trial","12","50109","0.0-1.0-4.0-3.0","battery-v0.2","","-1","&#9776;","elianto","#3366ff99","-1","-1","1","+10","","0","0","2","","","","","","","","","","",""
"pit-trial","13","55624","0.0-1.0-4.0-4.0","battery-v0.2","","-1","&#9776;","elianto","#3366ff99","-1","-1","1","0","","0","0","2","","","","","","","","","","",""
"call-function","14","55627","0.0-1.0-5.0","battery-v0.2","","","","","","","","","","","","","","","","","","","","","","","",""
"pit-instructions","15","70978","0.0-1.0-6.0","battery-v0.2","[{""page_index"":0,""viewing_time"":4720.200000047684},{""page_index"":1,""viewing_time"":7752.899999976158},{""page_index"":2,""viewing_time"":1372.699999988079},{""page_index"":3,""viewing_time"":643.1000000238419},{""page_index"":4,""viewing_time"":860.1999999880791}]","15349.800000011921","","","","","","","","","","","","","","","","","","","","","",""
"pit-trial","16","74824","0.0-1.0-7.0-0.0","battery-v0.2","","336.0999999642372","&#9826;","elianto","#f73b6a7A","-1","32","0","-10","1836.3999999761581","1","0","3","","","","","","","","","","",""
"pit-trial","17","80338","0.0-1.0-7.0-1.0","battery-v0.2","","-1","&#9826;","elianto","#f73b6a7A","-1","-1","1","0","","0","0","3","","","","","","","","","","",""
"pit-trial","18","85849","0.0-1.0-7.0-2.0","battery-v0.2","","-1","&#9826;","elianto","#f73b6a7A","-1","-1","1","-10","","0","0","3","","","","","","","","","","",""
"pit-trial","19","89777","0.0-1.0-7.0-3.0","battery-v0.2","","417.2999999523163","&#9826;","elianto","#f73b6a7A","-1","32","0","-10","1918.3999999761581","1","0","3","","","","","","","","","","",""
"pit-trial","20","95293","0.0-1.0-7.0-4.0","battery-v0.2","","-1","&#9826;","elianto","#f73b6a7A","-1","-1","1","0","","0","0","3","","","","","","","","","","",""
"pit-trial","21","100810","0.0-1.0-7.1-0.1","battery-v0.2","","-1","&#9826;","elianto","#f73b6a7A","-1","-1","1","0","","0","0","3","","","","","","","","","","",""
"pit-trial","22","106322","0.0-1.0-7.1-1.1","battery-v0.2","","-1","&#9826;","elianto","#f73b6a7A","-1","-1","1","0","","0","0","3","","","","","","","","","","",""
"pit-trial","23","111837","0.0-1.0-7.1-2.1","battery-v0.2","","-1","&#9826;","elianto","#f73b6a7A","-1","-1","1","-10","","0","0","3","","","","","","","","","","",""
"pit-trial","24","117352","0.0-1.0-7.1-3.1","battery-v0.2","","-1","&#9826;","elianto","#f73b6a7A","-1","-1","1","0","","0","0","3","","","","","","","","","","",""
"pit-trial","25","122865","0.0-1.0-7.1-4.1","battery-v0.2","","-1","&#9826;","elianto","#f73b6a7A","-1","-1","1","0","","0","0","3","","","","","","","","","","",""
"call-function","26","122867","0.0-1.0-8.0","battery-v0.2","","","","","","","","","","","","","","","","","","","","","","","",""
"pit-instructions","27","129882","0.0-1.0-9.0","battery-v0.2","[{""page_index"":0,""viewing_time"":4606},{""page_index"":1,""viewing_time"":2405.800000011921}]","7013.200000047684","","","","","","","","","","","","","","","","","","","","","",""
"pit-trial","28","134571","0.0-1.0-10.0-0.0","battery-v0.2","","1177.3999999761581","&#9789;","elianto","#f73b6a7A","32","32","1","0","2679.899999976158","1","0","4","","","","","","","","","","",""
"pit-trial","29","138533","0.0-1.0-10.0-1.0","battery-v0.2","","454.39999997615814","&#9789;","elianto","#f73b6a7A","32","32","1","0","1954.699999988079","1","0","4","","","","","","","","","","",""
"pit-trial","30","142214","0.0-1.0-10.0-2.0","battery-v0.2","","172.69999998807907","&#9789;","elianto","#f73b6a7A","32","32","1","0","1672.8999999761581","1","0","4","","","","","","","","","","",""
"pit-trial","31","146036","0.0-1.0-10.0-3.0","battery-v0.2","","308.30000001192093","&#9789;","elianto","#f73b6a7A","32","32","1","0","1810.300000011921","1","0","4","","","","","","","","","","",""
"pit-trial","32","149743","0.0-1.0-10.0-4.0","battery-v0.2","","196.19999998807907","&#9789;","elianto","#f73b6a7A","32","32","1","-10","1696.300000011921","1","0","4","","","","","","","","","","",""
"call-function","33","149746","0.0-1.0-11.0","battery-v0.2","","","","","","","","","","","","","","","","","","","","","","","",""
"pit-instructions","34","158987","0.0-1.0-12.0","battery-v0.2","[{""page_index"":0,""viewing_time"":1193.1000000238419},{""page_index"":1,""viewing_time"":2039.8999999761581},{""page_index"":2,""viewing_time"":1950},{""page_index"":3,""viewing_time"":2328.399999976158},{""page_index"":4,""viewing_time"":614.5},{""page_index"":5,""viewing_time"":593},{""page_index"":6,""viewing_time"":519.6000000238419}]","9239.600000023842","","","","","","","","","","","","","","","","","","","","","",""
"pit-comprehension","35","172401","0.0-1.0-13.0","battery-v0.2","","13410.399999976158","","","","","","","","","","","","","Press SPACE,10,10,True,True,True","3","1","","","","","","",""
"instructions","36","178080","0.0-1.0-14.0-0.0-0.0","battery-v0.2","[{""page_index"":0,""viewing_time"":5674.899999976158}]","5675.399999976158","","","","","","","","","","","","","","","","","","","","","",""
"pit-instructions","37","184767","0.0-1.0-14.0-1.0","battery-v0.2","[{""page_index"":0,""viewing_time"":1508.199999988079},{""page_index"":1,""viewing_time"":740.6999999880791},{""page_index"":2,""viewing_time"":2499},{""page_index"":3,""viewing_time"":366},{""page_index"":4,""viewing_time"":335.60000002384186},{""page_index"":5,""viewing_time"":170.80000001192093},{""page_index"":6,""viewing_time"":178.5},{""page_index"":7,""viewing_time"":178.0999999642372},{""page_index"":8,""viewing_time"":163.10000002384186},{""page_index"":9,""viewing_time"":178.69999998807907},{""page_index"":10,""viewing_time"":161.80000001192093},{""page_index"":11,""viewing_time"":202.89999997615814}]","6683.899999976158","","","","","","","","","","","","","","","","","","","","","",""
"pit-instructions","38","186084","0.0-1.0-14.0-2.0","battery-v0.2","[{""page_index"":0,""viewing_time"":339.5},{""page_index"":1,""viewing_time"":187.5},{""page_index"":2,""viewing_time"":203.69999998807907},{""page_index"":3,""viewing_time"":178.19999998807907},{""page_index"":4,""viewing_time"":195},{""page_index"":5,""viewing_time"":210.89999997615814}]","1315.3999999761581","","","","","","","","","","","","","","","","","","","","","",""
"pit-instructions","39","187099","0.0-1.0-14.0-3.0","battery-v0.2","[{""page_index"":0,""viewing_time"":201.5},{""page_index"":1,""viewing_time"":186.5},{""page_index"":2,""viewing_time"":227.80000001192093},{""page_index"":3,""viewing_time"":202.5999999642372},{""page_index"":4,""viewing_time"":195.19999998807907}]","1014.0999999642372","","","","","","","","","","","","","","","","","","","","","",""
"pit-instructions","40","188076","0.0-1.0-14.0-4.0","battery-v0.2","[{""page_index"":0,""viewing_time"":396.89999997615814},{""page_index"":1,""viewing_time"":578}]","975.7999999523163","","","","","","","","","","","","","","","","","","","","","",""
"pit-instructions","41","189465","0.0-1.0-14.0-5.0","battery-v0.2","[{""page_index"":0,""viewing_time"":191.5},{""page_index"":1,""viewing_time"":186.80000001192093},{""page_index"":2,""viewing_time"":194.69999998807907},{""page_index"":3,""viewing_time"":210.80000001192093},{""page_index"":4,""viewing_time"":204.69999998807907},{""page_index"":5,""viewing_time"":202.19999998807907},{""page_index"":6,""viewing_time"":195.39999997615814}]","1387.0999999642372","","","","","","","","","","","","","","","","","","","","","",""
"pit-comprehension","42","206348","0.0-1.0-14.0-6.0","battery-v0.2","","16878.600000023842","","","","","","","","","","","","","Press SPACE,10,10,True,True,True","3","1","","","","","","",""
"instructions","43","211917","0.0-1.0-14.1-0.1-0.1","battery-v0.2","[{""page_index"":0,""viewing_time"":5564.199999988079}]","5564.899999976158","","","","","","","","","","","","","","","","","","","","","",""
"pit-instructions","44","215207","0.0-1.0-14.1-1.1","battery-v0.2","[{""page_index"":0,""viewing_time"":1077.1000000238419},{""page_index"":1,""viewing_time"":201.39999997615814},{""page_index"":2,""viewing_time"":212.60000002384186},{""page_index"":3,""viewing_time"":243.69999998807907},{""page_index"":4,""viewing_time"":202.30000001192093},{""page_index"":5,""viewing_time"":195.5},{""page_index"":6,""viewing_time"":195.5},{""page_index"":7,""viewing_time"":178.29999995231628},{""page_index"":8,""viewing_time"":186.9000000357628},{""page_index"":9,""viewing_time"":178},{""page_index"":10,""viewing_time"":195.5},{""page_index"":11,""viewing_time"":219.39999997615814}]","3287.399999976158","","","","","","","","","","","","","","","","","","","","","",""
"pit-instructions","45","216368","0.0-1.0-14.1-2.1","battery-v0.2","[{""page_index"":0,""viewing_time"":175.5},{""page_index"":1,""viewing_time"":194.39999997615814},{""page_index"":2,""viewing_time"":204.4000000357628},{""page_index"":3,""viewing_time"":193.19999998807907},{""page_index"":4,""viewing_time"":187.69999998807907},{""page_index"":5,""viewing_time"":202.9000000357628}]","1158.800000011921","","","","","","","","","","","","","","","","","","","","","",""
"pit-instructions","46","217547","0.0-1.0-14.1-3.1","battery-v0.2","[{""page_index"":0,""viewing_time"":185.69999998807907},{""page_index"":1,""viewing_time"":186.19999998807907},{""page_index"":2,""viewing_time"":406.30000001192093},{""page_index"":3,""viewing_time"":211.69999998807907},{""page_index"":4,""viewing_time"":187.30000001192093}]","1178.199999988079","","","","","","","","","","","","","","","","","","","","","",""
"pit-instructions","47","217962","0.0-1.0-14.1-4.1","battery-v0.2","[{""page_index"":0,""viewing_time"":191.30000001192093},{""page_index"":1,""viewing_time"":219.5999999642372}]","412.19999998807907","","","","","","","","","","","","","","","","","","","","","",""
"pit-instructions","48","219432","0.0-1.0-14.1-5.1","battery-v0.2","[{""page_index"":0,""viewing_time"":199.69999998807907},{""page_index"":1,""viewing_time"":203.9000000357628},{""page_index"":2,""viewing_time"":292.19999998807907},{""page_index"":3,""viewing_time"":194.10000002384186},{""page_index"":4,""viewing_time"":195.69999998807907},{""page_index"":5,""viewing_time"":202.19999998807907},{""page_index"":6,""viewing_time"":179.30000001192093}]","1468","","","","","","","","","","","","","","","","","","","","","",""
"pit-comprehension","49","232391","0.0-1.0-14.1-6.1","battery-v0.2","","12954.699999988079","","","","","","","","","","","","","Press SPACE,10,10,True,False, sometimes you will not get all the points even if you took the right action,True","2","1","","","","","","",""
"instructions","50","233307","0.0-1.0-14.2-0.2-0.2","battery-v0.2","[{""page_index"":0,""viewing_time"":912.2999999523163}]","912.7999999523163","","","","","","","","","","","","","","","","","","","","","",""
"pit-instructions","51","236185","0.0-1.0-14.2-1.2","battery-v0.2","[{""page_index"":0,""viewing_time"":923.5999999642372},{""page_index"":1,""viewing_time"":187.19999998807907},{""page_index"":2,""viewing_time"":154.4000000357628},{""page_index"":3,""viewing_time"":178.80000001192093},{""page_index"":4,""viewing_time"":162.29999995231628},{""page_index"":5,""viewing_time"":170.70000004768372},{""page_index"":6,""viewing_time"":161.89999997615814},{""page_index"":7,""viewing_time"":188},{""page_index"":8,""viewing_time"":201.69999998807907},{""page_index"":9,""viewing_time"":179.80000001192093},{""page_index"":10,""viewing_time"":178.89999997615814},{""page_index"":11,""viewing_time"":186.70000004768372}]","2874.899999976158","","","","","","","","","","","","","","","","","","","","","",""
"pit-instructions","52","237713","0.0-1.0-14.2-2.2","battery-v0.2","[{""page_index"":0,""viewing_time"":387.89999997615814},{""page_index"":1,""viewing_time"":187.19999998807907},{""page_index"":2,""viewing_time"":373},{""page_index"":3,""viewing_time"":196},{""page_index"":4,""viewing_time"":178.10000002384186},{""page_index"":5,""viewing_time"":202.89999997615814}]","1525.5999999642372","","","","","","","","","","","","","","","","","","","","","",""
"pit-instructions","53","238924","0.0-1.0-14.2-3.2","battery-v0.2","[{""page_index"":0,""viewing_time"":192.79999995231628},{""page_index"":1,""viewing_time"":203.60000002384186},{""page_index"":2,""viewing_time"":389.60000002384186},{""page_index"":3,""viewing_time"":203.5999999642372},{""page_index"":4,""viewing_time"":219.30000001192093}]","1209.699999988079","","","","","","","","","","","","","","","","","","","","","",""
"pit-instructions","54","239598","0.0-1.0-14.2-4.2","battery-v0.2","[{""page_index"":0,""viewing_time"":216.10000002384186},{""page_index"":1,""viewing_time"":456}]","672.5","","","","","","","","","","","","","","","","","","","","","",""
"pit-instructions","55","242808","0.0-1.0-14.2-5.2","battery-v0.2","[{""page_index"":0,""viewing_time"":258.60000002384186},{""page_index"":1,""viewing_time"":487.19999998807907},{""page_index"":2,""viewing_time"":448.5999999642372},{""page_index"":3,""viewing_time"":510.10000002384186},{""page_index"":4,""viewing_time"":504.30000001192093},{""page_index"":5,""viewing_time"":537.3000000119209},{""page_index"":6,""viewing_time"":462}]","3209","","","","","","","","","","","","","","","","","","","","","",""
"pit-comprehension","56","260110","0.0-1.0-14.2-6.2","battery-v0.2","","17297.600000023842","","","","","","","","","","","","","Press SPACE,10,10,True,True,True","3","1","","","","","","",""
"instructions","57","262828","0.0-1.0-14.3-0.3-0.3","battery-v0.2","[{""page_index"":0,""viewing_time"":2713.800000011921}]","2714","","","","","","","","","","","","","","","","","","","","","",""
"pit-instructions","58","266480","0.0-1.0-14.3-1.3","battery-v0.2","[{""page_index"":0,""viewing_time"":1227.5},{""page_index"":1,""viewing_time"":211.69999998807907},{""page_index"":2,""viewing_time"":326.80000001192093},{""page_index"":3,""viewing_time"":185.39999997615814},{""page_index"":4,""viewing_time"":186.60000002384186},{""page_index"":5,""viewing_time"":203.60000002384186},{""page_index"":6,""viewing_time"":186.5999999642372},{""page_index"":7,""viewing_time"":186.60000002384186},{""page_index"":8,""viewing_time"":170.5},{""page_index"":9,""viewing_time"":178.80000001192093},{""page_index"":10,""viewing_time"":203.29999995231628},{""page_index"":11,""viewing_time"":381.60000002384186}]","3650.100000023842","","","","","","","","","","","","","","","","","","","","","",""
"pit-instructions","59","267610","0.0-1.0-14.3-2.3","battery-v0.2","[{""page_index"":0,""viewing_time"":200.69999998807907},{""page_index"":1,""viewing_time"":195.10000002384186},{""page_index"":2,""viewing_time"":186.69999998807907},{""page_index"":3,""viewing_time"":186.39999997615814},{""page_index"":4,""viewing_time"":163.10000002384186},{""page_index"":5,""viewing_time"":195}]","1128.1000000238419","","","","","","","","","","","","","","","","","","","","","",""
"pit-instructions","60","268544","0.0-1.0-14.3-3.3","battery-v0.2","[{""page_index"":0,""viewing_time"":175.5},{""page_index"":1,""viewing_time"":202.5},{""page_index"":2,""viewing_time"":187.19999998807907},{""page_index"":3,""viewing_time"":170.60000002384186},{""page_index"":4,""viewing_time"":195}]","932.0999999642372","","","","","","","","","","","","","","","","","","","","","",""
"pit-instructions","61","268918","0.0-1.0-14.3-4.3","battery-v0.2","[{""page_index"":0,""viewing_time"":183.89999997615814},{""page_index"":1,""viewing_time"":186.70000004768372}]","371.39999997615814","","","","","","","","","","","","","","","","","","","","","",""
"pit-instructions","62","270267","0.0-1.0-14.3-5.3","battery-v0.2","[{""page_index"":0,""viewing_time"":200.20000004768372},{""page_index"":1,""viewing_time"":179.5},{""page_index"":2,""viewing_time"":203.39999997615814},{""page_index"":3,""viewing_time"":179.69999998807907},{""page_index"":4,""viewing_time"":178.69999998807907},{""page_index"":5,""viewing_time"":211.10000002384186},{""page_index"":6,""viewing_time"":194.5}]","1348.1000000238419","","","","","","","","","","","","","","","","","","","","","",""
"pit-comprehension","63","279099","0.0-1.0-14.3-6.3","battery-v0.2","","8828.099999964237","","","","","","","","","","","","","Press SPACE,10,10,True,True,True","3","1","","","","","","",""
"instructions","64","280154","0.0-1.0-14.4-0.4-0.4","battery-v0.2","[{""page_index"":0,""viewing_time"":1051.5999999642372}]","1052.5999999642372","","","","","","","","","","","","","","","","","","","","","",""
"pit-instructions","65","283806","0.0-1.0-14.4-1.4","battery-v0.2","[{""page_index"":0,""viewing_time"":831.0999999642372},{""page_index"":1,""viewing_time"":473.4000000357628},{""page_index"":2,""viewing_time"":325.5999999642372},{""page_index"":3,""viewing_time"":187.4000000357628},{""page_index"":4,""viewing_time"":146.19999998807907},{""page_index"":5,""viewing_time"":146.39999997615814},{""page_index"":6,""viewing_time"":210.9000000357628},{""page_index"":7,""viewing_time"":374.69999998807907},{""page_index"":8,""viewing_time"":227},{""page_index"":9,""viewing_time"":186.30000001192093},{""page_index"":10,""viewing_time"":151.89999997615814},{""page_index"":11,""viewing_time"":385.30000001192093}]","3647.099999964237","","","","","","","","","","","","","","","","","","","","","",""
"pit-instructions","66","284870","0.0-1.0-14.4-2.4","battery-v0.2","[{""page_index"":0,""viewing_time"":159.60000002384186},{""page_index"":1,""viewing_time"":178.39999997615814},{""page_index"":2,""viewing_time"":146.30000001192093},{""page_index"":3,""viewing_time"":195.19999998807907},{""page_index"":4,""viewing_time"":195.80000001192093},{""page_index"":5,""viewing_time"":186.0999999642372}]","1061.8999999761581","","","","","","","","","","","","","","","","","","","","","",""
"pit-instructions","67","285902","0.0-1.0-14.4-3.4","battery-v0.2","[{""page_index"":0,""viewing_time"":193.29999995231628},{""page_index"":1,""viewing_time"":203.20000004768372},{""page_index"":2,""viewing_time"":212.89999997615814},{""page_index"":3,""viewing_time"":210.19999998807907},{""page_index"":4,""viewing_time"":210.69999998807907}]","1030.7999999523163","","","","","","","","","","","","","","","","","","","","","",""
"pit-instructions","68","286334","0.0-1.0-14.4-4.4","battery-v0.2","[{""page_index"":0,""viewing_time"":209.19999998807907},{""page_index"":1,""viewing_time"":220.70000004768372}]","430.69999998807907","","","","","","","","","","","","","","","","","","","","","",""
"pit-instructions","69","287763","0.0-1.0-14.4-5.4","battery-v0.2","[{""page_index"":0,""viewing_time"":199.19999998807907},{""page_index"":1,""viewing_time"":229.4000000357628},{""page_index"":2,""viewing_time"":209.69999998807907},{""page_index"":3,""viewing_time"":219.10000002384186},{""page_index"":4,""viewing_time"":195.39999997615814},{""page_index"":5,""viewing_time"":170.39999997615814},{""page_index"":6,""viewing_time"":203.4000000357628}]","1427.199999988079","","","","","","","","","","","","","","","","","","","","","",""
"pit-comprehension","70","303860","0.0-1.0-14.4-6.4","battery-v0.2","","16094.600000023842","","","","","","","","","","","","","Press SPACE,10,10,True,True,True","3","1","","","","","","",""
"instructions","71","305462","0.0-1.0-14.5-0.5-0.5","battery-v0.2","[{""page_index"":0,""viewing_time"":1598.300000011921}]","1599","","","","","","","","","","","","","","","","","","","","","",""
"pit-instructions","72","316086","0.0-1.0-14.5-1.5","battery-v0.2","[{""page_index"":0,""viewing_time"":1229.300000011921},{""page_index"":1,""viewing_time"":4880.5},{""page_index"":2,""viewing_time"":1315.2999999523163},{""page_index"":3,""viewing_time"":675.7000000476837},{""page_index"":4,""viewing_time"":292.5},{""page_index"":5,""viewing_time"":196.0999999642372},{""page_index"":6,""viewing_time"":210.9000000357628},{""page_index"":7,""viewing_time"":241.39999997615814},{""page_index"":8,""viewing_time"":286.10000002384186},{""page_index"":9,""viewing_time"":260},{""page_index"":10,""viewing_time"":802.3999999761581},{""page_index"":11,""viewing_time"":230.80000001192093}]","10622","","","","","","","","","","","","","","","","","","","","","",""
"pit-instructions","73","317516","0.0-1.0-14.5-2.5","battery-v0.2","[{""page_index"":0,""viewing_time"":328.69999998807907},{""page_index"":1,""viewing_time"":211.9000000357628},{""page_index"":2,""viewing_time"":242.5999999642372},{""page_index"":3,""viewing_time"":203.69999998807907},{""page_index"":4,""viewing_time"":210.80000001192093},{""page_index"":5,""viewing_time"":227.9000000357628}]","1426.6000000238419","","","","","","","","","","","","","","","","","","","","","",""
"pit-instructions","74","318629","0.0-1.0-14.5-3.5","battery-v0.2","[{""page_index"":0,""viewing_time"":224.89999997615814},{""page_index"":1,""viewing_time"":202.5},{""page_index"":2,""viewing_time"":195.39999997615814},{""page_index"":3,""viewing_time"":244.5},{""page_index"":4,""viewing_time"":244.10000002384186}]","1112.3999999761581","","","","","","","","","","","","","","","","","","","","","",""
"pit-instructions","75","319157","0.0-1.0-14.5-4.5","battery-v0.2","[{""page_index"":0,""viewing_time"":263.5},{""page_index"":1,""viewing_time"":260.69999998807907}]","525.1999999880791","","","","","","","","","","","","","","","","","","","","","",""
"pit-instructions","76","320975","0.0-1.0-14.5-5.5","battery-v0.2","[{""page_index"":0,""viewing_time"":231.80000001192093},{""page_index"":1,""viewing_time"":310.0999999642372},{""page_index"":2,""viewing_time"":251.60000002384186},{""page_index"":3,""viewing_time"":284.89999997615814},{""page_index"":4,""viewing_time"":235.10000002384186},{""page_index"":5,""viewing_time"":243.30000001192093},{""page_index"":6,""viewing_time"":258.89999997615814}]","1816.1000000238419","","","","","","","","","","","","","","","","","","","","","",""
"pit-comprehension","77","328613","0.0-1.0-14.5-6.5","battery-v0.2","","7634.699999988079","","","","","","","","","","","","","Press SPACE,10,10,True,True,True","3","1","","","","","","",""
"pit-instructions","78","410854","0.0-2.0","battery-v0.2","[{""page_index"":0,""viewing_time"":77583.30000001192},{""page_index"":1,""viewing_time"":1862},{""page_index"":2,""viewing_time"":2793.800000011921}]","82239.60000002384","","","","","","","","","","","","","","","","","","","","","",""
"pit-trial","79","414994","0.0-3.0","battery-v0.2","","629.8999999761581","&#9728;","elianto","#f73b6a7A","-1","32","0","-10","2130.099999964237","1","1","","","","","","001","1","0","4","lose","no-go","0"
"pit-trial","80","419345","0.0-4.0","battery-v0.2","","837.8000000119209","&#9730;","elianto","#3366ff99","32","32","1","+10","2340.199999988079","1","1","","","","","","001","2","1","1","win","go","0"
"pit-trial","81","423959","0.0-5.0","battery-v0.2","","1101.3999999761581","&#9752;","elianto","#f73b6a7A","32","32","1","0","2604.199999988079","1","1","","","","","","001","3","3","3","lose","go","0"
"pit-trial","82","428157","0.0-6.0","battery-v0.2","","691.8000000119209","&#9733;","elianto","#3366ff99","-1","32","0","0","2193.699999988079","1","1","","","","","","001","4","2","2","win","no-go","0"
"pit-trial","83","433663","0.0-7.0","battery-v0.2","","-1","&#9728;","elianto","#f73b6a7A","-1","-1","1","0","","0","1","","","","","","001","5","0","4","lose","no-go","0"
"pit-trial","84","438211","0.0-8.0","battery-v0.2","","1040.2000000476837","&#9752;","elianto","#f73b6a7A","32","32","1","0","2542.5","1","1","","","","","","001","6","3","3","lose","go","0"
"pit-trial","85","442774","0.0-9.0","battery-v0.2","","1055.8999999761581","&#9733;","elianto","#3366ff99","-1","32","0","0","2558.099999964237","1","1","","","","","","001","7","2","2","win","no-go","0"
"pit-trial","86","448287","0.0-10.0","battery-v0.2","","-1","&#9730;","elianto","#3366ff99","32","-1","0","0","","0","1","","","","","","001","8","1","1","win","go","0"
"pit-trial","87","452469","0.0-11.0","battery-v0.2","","670.5999999642372","&#9733;","elianto","#3366ff99","-1","32","0","0","2171.199999988079","1","1","","","","","","001","9","2","2","win","no-go","0"
"pit-trial","88","457533","0.0-12.0","battery-v0.2","","1555.9000000357628","&#9752;","elianto","#f73b6a7A","32","32","1","0","3056","1","1","","","","","","001","10","3","3","lose","go","0"
"pit-trial","89","461787","0.0-13.0","battery-v0.2","","745.3000000119209","&#9730;","elianto","#3366ff99","32","32","1","0","2245.800000011921","1","1","","","","","","001","11","1","1","win","go","1"
"pit-trial","90","467301","0.0-14.0","battery-v0.2","","-1","&#9728;","elianto","#f73b6a7A","-1","-1","1","0","","0","1","","","","","","001","12","0","4","lose","no-go","0"
"pit-trial","91","471723","0.0-15.0","battery-v0.2","","909.6999999880791","&#9730;","elianto","#3366ff99","32","32","1","0","2409.899999976158","1","1","","","","","","001","13","1","1","win","go","1"
"pit-trial","92","477235","0.0-16.0","battery-v0.2","","-1","&#9733;","elianto","#3366ff99","-1","-1","1","+10","","0","1","","","","","","001","14","2","2","win","no-go","0"
"pit-trial","93","482748","0.0-17.0","battery-v0.2","","-1","&#9752;","elianto","#f73b6a7A","32","-1","0","-10","","0","1","","","","","","001","15","3","3","lose","go","0"
"pit-trial","94","488256","0.0-18.0","battery-v0.2","","-1","&#9728;","elianto","#f73b6a7A","-1","-1","1","0","","0","1","","","","","","001","16","0","4","lose","no-go","0"
"pit-trial","95","493030","0.0-19.0","battery-v0.2","","1262.8999999761581","&#9733;","elianto","#3366ff99","-1","32","0","0","2763.100000023842","1","1","","","","","","001","17","2","2","win","no-go","0"
"pit-trial","96","497851","0.0-20.0","battery-v0.2","","1308.0999999642372","&#9752;","elianto","#f73b6a7A","32","32","1","-10","2810.399999976158","1","1","","","","","","001","18","3","3","lose","go","1"
"pit-trial","97","503367","0.0-21.0","battery-v0.2","","-1","&#9728;","elianto","#f73b6a7A","-1","-1","1","0","","0","1","","","","","","001","19","0","4","lose","no-go","0"
"pit-trial","98","508211","0.0-22.0","battery-v0.2","","1332.7999999523163","&#9730;","elianto","#3366ff99","32","32","1","+10","2832.899999976158","1","1","","","","","","001","20","1","1","win","go","0"
"pit-instructions","99","513246","0.0-23.0","battery-v0.2","[{""page_index"":0,""viewing_time"":3023.600000023842},{""page_index"":1,""viewing_time"":2007.699999988079}]","5032.100000023842","","","","","","","","","","","","","","","","","","","","","",""
"pit-trial","100","517987","0.0-24.0","battery-v0.2","","1227.1000000238419","N","elianto","#3366ff99","-1","32","0","0","2729.599999964237","1","2","","","","","","001","21","1","2","win","no-go","0"
"pit-trial","101","523011","0.0-25.0","battery-v0.2","","1519.1000000238419","F","elianto","#3366ff99","32","32","1","+10","3019.5","1","2","","","","","","001","22","2","1","win","go","0"
"pit-trial","102","527330","0.0-26.0","battery-v0.2","","809.8000000119209","Q","elianto","#3366ff99","-1","32","0","+10","2312.100000023842","1","2","","","","","","001","23","0","2","win","no-go","1"
"pit-trial","103","532845","0.0-27.0","battery-v0.2","","-1","X","elianto","#f73b6a7A","32","-1","0","0","3650.800000011921","1","2","","","","","","001","24","3","3","lose","go","1"
"pit-trial","104","537431","0.0-28.0","battery-v0.2","","1077.9000000357628","N","elianto","#3366ff99","-1","32","0","0","2579.5","1","2","","","","","","001","25","1","2","win","no-go","0"
"pit-trial","105","542947","0.0-29.0","battery-v0.2","","-1","X","elianto","#f73b6a7A","32","-1","0","-10","","0","2","","","","","","001","26","3","3","lose","go","0"
"pit-trial","106","547389","0.0-30.0","battery-v0.2","","930.8999999761581","Q","elianto","#3366ff99","-1","32","0","0","2432","1","2","","","","","","001","27","0","2","win","no-go","0"
"pit-trial","107","551348","0.0-31.0","battery-v0.2","","446.5","F","elianto","#3366ff99","32","32","1","+10","1947.699999988079","1","2","","","","","","001","28","2","1","win","go","0"
"pit-trial","108","555701","0.0-32.0","battery-v0.2","","840.6000000238419","F","elianto","#3366ff99","32","32","1","+10","2341.300000011921","1","2","","","","","","001","29","2","1","win","go","0"
"pit-trial","109","560237","0.0-33.0","battery-v0.2","","1029.699999988079","X","elianto","#f73b6a7A","32","32","1","-10","2529.800000011921","1","2","","","","","","001","30","3","3","lose","go","1"
"pit-trial","110","564343","0.0-34.0","battery-v0.2","","593","Q","elianto","#3366ff99","-1","32","0","0","2093.899999976158","1","2","","","","","","001","31","0","2","win","no-go","0"
"pit-trial","111","569859","0.0-35.0","battery-v0.2","","-1","N","elianto","#3366ff99","-1","-1","1","+10","","0","2","","","","","","001","32","1","2","win","no-go","0"
"pit-trial","112","573863","0.0-36.0","battery-v0.2","","491.5999999642372","F","elianto","#3366ff99","32","32","1","+10","1993.8999999761581","1","2","","","","","","001","33","2","1","win","go","0"
"pit-trial","113","579377","0.0-37.0","battery-v0.2","","-1","N","elianto","#3366ff99","-1","-1","1","+10","","0","2","","","","","","001","34","1","2","win","no-go","0"
"pit-trial","114","584892","0.0-38.0","battery-v0.2","","-1","X","elianto","#f73b6a7A","32","-1","0","-10","","0","2","","","","","","001","35","3","3","lose","go","0"
"pit-trial","115","589118","0.0-39.0","battery-v0.2","","719.5","Q","elianto","#3366ff99","-1","32","0","+10","2220.100000023842","1","2","","","","","","001","36","0","2","win","no-go","1"
"pit-trial","116","593174","0.0-40.0","battery-v0.2","","550.7000000476837","F","elianto","#3366ff99","32","32","1","+10","2050.800000011921","1","2","","","","","","001","37","2","1","win","go","0"
"pit-trial","117","597139","0.0-41.0","battery-v0.2","","453.39999997615814","Q","elianto","#3366ff99","-1","32","0","0","1955","1","2","","","","","","001","38","0","2","win","no-go","0"
"pit-trial","118","602654","0.0-42.0","battery-v0.2","","-1","N","elianto","#3366ff99","-1","-1","1","+10","","0","2","","","","","","001","39","1","2","win","no-go","0"
"pit-trial","119","608160","0.0-43.0","battery-v0.2","","-1","X","elianto","#f73b6a7A","32","-1","0","0","","0","2","","","","","","001","40","3","3","lose","go","1"
"pit-trial","120","613673","0.0-44.0","battery-v0.2","","-1","X","elianto","#f73b6a7A","32","-1","0","0","","0","2","","","","","","001","41","3","3","lose","go","1"
"pit-trial","121","619183","0.0-45.0","battery-v0.2","","-1","N","elianto","#3366ff99","-1","-1","1","+10","","0","2","","","","","","001","42","1","2","win","no-go","0"
"pit-trial","122","623300","0.0-46.0","battery-v0.2","","611.5","Q","elianto","#3366ff99","-1","32","0","0","2112.5","1","2","","","","","","001","43","0","2","win","no-go","0"
"pit-trial","123","627119","0.0-47.0","battery-v0.2","","307.89999997615814","F","elianto","#3366ff99","32","32","1","+10","1808.199999988079","1","2","","","","","","001","44","2","1","win","go","0"
"pit-trial","124","631340","0.0-48.0","battery-v0.2","","710.6000000238419","Q","elianto","#3366ff99","-1","32","0","+10","2211","1","2","","","","","","001","45","0","2","win","no-go","1"
"pit-trial","125","635218","0.0-49.0","battery-v0.2","","366.10000002384186","F","elianto","#3366ff99","32","32","1","+10","1867.4000000357628","1","2","","","","","","001","46","2","1","win","go","0"
"pit-trial","126","640733","0.0-50.0","battery-v0.2","","-1","X","elianto","#f73b6a7A","32","-1","0","-10","","0","2","","","","","","001","47","3","3","lose","go","0"
"pit-trial","127","646245","0.0-51.0","battery-v0.2","","-1","N","elianto","#3366ff99","-1","-1","1","+10","","0","2","","","","","","001","48","1","2","win","no-go","0"
"pit-trial","128","650320","0.0-52.0","battery-v0.2","","561.3999999761581","F","elianto","#3366ff99","32","32","1","0","2064","1","2","","","","","","001","49","2","1","win","go","1"
"pit-trial","129","654729","0.0-53.0","battery-v0.2","","897.6999999880791","Q","elianto","#3366ff99","-1","32","0","+10","2398.599999964237","1","2","","","","","","001","50","0","2","win","no-go","1"
"pit-trial","130","660243","0.0-54.0","battery-v0.2","","-1","X","elianto","#f73b6a7A","32","-1","0","-10","","0","2","","","","","","001","51","3","3","lose","go","0"
"pit-trial","131","665759","0.0-55.0","battery-v0.2","","-1","N","elianto","#3366ff99","-1","-1","1","+10","","0","2","","","","","","001","52","1","2","win","no-go","0"
"pit-trial","132","671210","0.0-56.0","battery-v0.2","","1941.199999988079","B","elianto","#f73b6a7A","32","32","1","0","3442.699999988079","1","2","","","","","","001","53","5","3","lose","go","0"
"pit-trial","133","675737","0.0-57.0","battery-v0.2","","1014.8999999761581","Q","elianto","#3366ff99","-1","32","0","+10","2515.399999976158","1","2","","","","","","001","54","0","2","win","no-go","1"
"pit-trial","134","680451","0.0-58.0","battery-v0.2","","1203","T","elianto","#f73b6a7A","-1","32","0","-10","2703.100000023842","1","2","","","","","","001","55","4","4","lose","no-go","0"
"pit-trial","135","684663","0.0-59.0","battery-v0.2","","701","F","elianto","#3366ff99","32","32","1","+10","2201.2000000476837","1","2","","","","","","001","56","2","1","win","go","0"
"pit-trial","136","689847","0.0-60.0","battery-v0.2","","1671.0999999642372","B","elianto","#f73b6a7A","32","32","1","-10","3172.199999988079","1","2","","","","","","001","57","5","3","lose","go","1"
"pit-trial","137","693808","0.0-61.0","battery-v0.2","","448.30000001192093","F","elianto","#3366ff99","32","32","1","+10","1949.3999999761581","1","2","","","","","","001","58","2","1","win","go","0"
"pit-trial","138","697780","0.0-62.0","battery-v0.2","","459.5999999642372","Q","elianto","#3366ff99","-1","32","0","+10","1961.199999988079","1","2","","","","","","001","59","0","2","win","no-go","1"
"pit-trial","139","703294","0.0-63.0","battery-v0.2","","-1","T","elianto","#f73b6a7A","-1","-1","1","-10","","0","2","","","","","","001","60","4","4","lose","no-go","1"
"pit-trial","140","708811","0.0-64.0","battery-v0.2","","-1","B","elianto","#f73b6a7A","32","-1","0","-10","","0","2","","","","","","001","61","5","3","lose","go","0"
"pit-trial","141","713025","0.0-65.0","battery-v0.2","","699","T","elianto","#f73b6a7A","-1","32","0","-10","2202","1","2","","","","","","001","62","4","4","lose","no-go","0"
"pit-trial","142","718302","0.0-66.0","battery-v0.2","","1766.699999988079","C","elianto","#3366ff99","-1","32","0","0","3268.800000011921","1","2","","","","","","001","63","6","2","win","no-go","0"
"pit-trial","143","722476","0.0-67.0","battery-v0.2","","662.3000000119209","F","elianto","#3366ff99","32","32","1","+10","2162.5","1","2","","","","","","001","64","2","1","win","go","0"
"pit-trial","144","726382","0.0-68.0","battery-v0.2","","390.80000001192093","F","elianto","#3366ff99","32","32","1","+10","1893.3999999761581","1","2","","","","","","001","65","2","1","win","go","0"
"pit-trial","145","731897","0.0-69.0","battery-v0.2","","-1","T","elianto","#f73b6a7A","-1","-1","1","0","","0","2","","","","","","001","66","4","4","lose","no-go","0"
"pit-trial","146","737409","0.0-70.0","battery-v0.2","","-1","C","elianto","#3366ff99","-1","-1","1","+10","","0","2","","","","","","001","67","6","2","win","no-go","0"
"pit-trial","147","742924","0.0-71.0","battery-v0.2","","-1","B","elianto","#f73b6a7A","32","-1","0","-10","","0","2","","","","","","001","68","5","3","lose","go","0"
"pit-trial","148","748252","0.0-72.0","battery-v0.2","","1817","C","elianto","#3366ff99","-1","32","0","+10","3318.600000023842","1","2","","","","","","001","69","6","2","win","no-go","1"
"pit-trial","149","753174","0.0-73.0","battery-v0.2","","1414.5","B","elianto","#f73b6a7A","32","32","1","0","2915.099999964237","1","2","","","","","","001","70","5","3","lose","go","0"
"pit-trial","150","758689","0.0-74.0","battery-v0.2","","-1","T","elianto","#f73b6a7A","-1","-1","1","0","","0","2","","","","","","001","71","4","4","lose","no-go","0"
"pit-trial","151","763827","0.0-75.0","battery-v0.2","","1628.300000011921","Z","elianto","#f73b6a7A","-1","32","0","0","3128.600000023842","1","2","","","","","","001","72","7","4","lose","no-go","1"
"pit-trial","152","768894","0.0-76.0","battery-v0.2","","1554.300000011921","Z","elianto","#f73b6a7A","-1","32","0","-10","3056.899999976158","1","2","","","","","","001","73","7","4","lose","no-go","0"
"pit-trial","153","774408","0.0-77.0","battery-v0.2","","-1","T","elianto","#f73b6a7A","-1","-1","1","0","","0","2","","","","","","001","74","4","4","lose","no-go","0"
"pit-trial","154","779751","0.0-78.0","battery-v0.2","","1830.800000011921","B","elianto","#f73b6a7A","32","32","1","-10","3332.899999976158","1","2","","","","","","001","75","5","3","lose","go","1"
"pit-trial","155","784592","0.0-79.0","battery-v0.2","","1331","C","elianto","#3366ff99","-1","32","0","0","2831.5","1","2","","","","","","001","76","6","2","win","no-go","0"
"pit-trial","156","790105","0.0-80.0","battery-v0.2","","-1","T","elianto","#f73b6a7A","-1","-1","1","0","","0","2","","","","","","001","77","4","4","lose","no-go","0"
"pit-trial","157","795621","0.0-81.0","battery-v0.2","","-1","C","elianto","#3366ff99","-1","-1","1","+10","","0","2","","","","","","001","78","6","2","win","no-go","0"
"pit-trial","158","801136","0.0-82.0","battery-v0.2","","-1","Z","elianto","#f73b6a7A","-1","-1","1","0","","0","2","","","","","","001","79","7","4","lose","no-go","0"
"pit-trial","159","806140","0.0-83.0","battery-v0.2","","1497.3999999761581","B","elianto","#f73b6a7A","32","32","1","0","2998.2999999523163","1","2","","","","","","001","80","5","3","lose","go","0"
"pit-trial","160","810700","0.0-84.0","battery-v0.2","","1048","B","elianto","#f73b6a7A","32","32","1","0","2549.699999988079","1","2","","","","","","001","81","5","3","lose","go","0"
"pit-trial","161","816212","0.0-85.0","battery-v0.2","","-1","Z","elianto","#f73b6a7A","-1","-1","1","-10","","0","2","","","","","","001","82","7","4","lose","no-go","1"
"pit-trial","162","821723","0.0-86.0","battery-v0.2","","-1","C","elianto","#3366ff99","-1","-1","1","+10","","0","2","","","","","","001","83","6","2","win","no-go","0"
"pit-trial","163","827235","0.0-87.0","battery-v0.2","","-1","T","elianto","#f73b6a7A","-1","-1","1","0","","0","2","","","","","","001","84","4","4","lose","no-go","0"
"pit-trial","164","832473","0.0-88.0","battery-v0.2","","1726.2000000476837","B","elianto","#f73b6a7A","32","32","1","-10","3226.800000011921","1","2","","","","","","001","85","5","3","lose","go","1"
"pit-trial","165","837989","0.0-89.0","battery-v0.2","","-1","T","elianto","#f73b6a7A","-1","-1","1","0","","0","2","","","","","","001","86","4","4","lose","no-go","0"
"pit-trial","166","843506","0.0-90.0","battery-v0.2","","-1","C","elianto","#3366ff99","-1","-1","1","0","","0","2","","","","","","001","87","6","2","win","no-go","1"
"pit-trial","167","849022","0.0-91.0","battery-v0.2","","-1","Z","elianto","#f73b6a7A","-1","-1","1","0","","0","2","","","","","","001","88","7","4","lose","no-go","0"
"pit-trial","168","854014","0.0-92.0","battery-v0.2","","1481.9000000357628","B","elianto","#f73b6a7A","32","32","1","-10","2983.100000023842","1","2","","","","","","001","89","5","3","lose","go","1"
"pit-trial","169","859527","0.0-93.0","battery-v0.2","","-1","T","elianto","#f73b6a7A","-1","-1","1","0","","0","2","","","","","","001","90","4","4","lose","no-go","0"
"pit-trial","170","865042","0.0-94.0","battery-v0.2","","-1","C","elianto","#3366ff99","-1","-1","1","+10","","0","2","","","","","","001","91","6","2","win","no-go","0"
"pit-trial","171","870558","0.0-95.0","battery-v0.2","","-1","Z","elianto","#f73b6a7A","-1","-1","1","0","","0","2","","","","","","001","92","7","4","lose","no-go","0"
"pit-trial","172","876075","0.0-96.0","battery-v0.2","","-1","Z","elianto","#f73b6a7A","-1","-1","1","0","","0","2","","","","","","001","93","7","4","lose","no-go","0"
"pit-trial","173","881128","0.0-97.0","battery-v0.2","","1539.300000011921","H","elianto","#f73b6a7A","-1","32","0","-10","3041.2000000476837","1","2","","","","","","001","94","8","4","lose","no-go","0"
"pit-trial","174","886645","0.0-98.0","battery-v0.2","","-1","C","elianto","#3366ff99","-1","-1","1","+10","","0","2","","","","","","001","95","6","2","win","no-go","0"
"pit-trial","175","892153","0.0-99.0","battery-v0.2","","-1","B","elianto","#f73b6a7A","32","-1","0","-10","","0","2","","","","","","001","96","5","3","lose","go","0"
"pit-trial","176","897671","0.0-100.0","battery-v0.2","","-1","H","elianto","#f73b6a7A","-1","-1","1","0","","0","2","","","","","","001","97","8","4","lose","no-go","0"
"pit-trial","177","903181","0.0-101.0","battery-v0.2","","-1","C","elianto","#3366ff99","-1","-1","1","+10","","0","2","","","","","","001","98","6","2","win","no-go","0"
"pit-trial","178","908696","0.0-102.0","battery-v0.2","","-1","B","elianto","#f73b6a7A","32","-1","0","-10","","0","2","","","","","","001","99","5","3","lose","go","0"
"pit-trial","179","914209","0.0-103.0","battery-v0.2","","-1","Z","elianto","#f73b6a7A","-1","-1","1","0","","0","2","","","","","","001","100","7","4","lose","no-go","0"
"pit-trial","180","919720","0.0-104.0","battery-v0.2","","-1","R","elianto","#f73b6a7A","32","-1","0","0","","0","2","","","","","","001","101","10","3","lose","go","1"
"pit-trial","181","925235","0.0-105.0","battery-v0.2","","-1","C","elianto","#3366ff99","-1","-1","1","+10","","0","2","","","","","","001","102","6","2","win","no-go","0"
"pit-trial","182","930750","0.0-106.0","battery-v0.2","","-1","H","elianto","#f73b6a7A","-1","-1","1","0","","0","2","","","","","","001","103","8","4","lose","no-go","0"
"pit-trial","183","936264","0.0-107.0","battery-v0.2","","-1","Y","elianto","#3366ff99","32","-1","0","0","","0","2","","","","","","001","104","9","1","win","go","0"
"pit-trial","184","941776","0.0-108.0","battery-v0.2","","-1","R","elianto","#f73b6a7A","32","-1","0","-10","","0","2","","","","","","001","105","10","3","lose","go","0"
"pit-trial","185","946334","0.0-109.0","battery-v0.2","","1045.199999988079","Y","elianto","#3366ff99","32","32","1","+10","2548.099999964237","1","2","","","","","","001","106","9","1","win","go","0"
"pit-trial","186","951849","0.0-110.0","battery-v0.2","","-1","C","elianto","#3366ff99","-1","-1","1","+10","","0","2","","","","","","001","107","6","2","win","no-go","0"
"pit-trial","187","957362","0.0-111.0","battery-v0.2","","-1","H","elianto","#f73b6a7A","-1","-1","1","0","","0","2","","","","","","001","108","8","4","lose","no-go","0"
"pit-trial","188","962877","0.0-112.0","battery-v0.2","","-1","H","elianto","#f73b6a7A","-1","-1","1","-10","","0","2","","","","","","001","109","8","4","lose","no-go","1"
"pit-trial","189","967561","0.0-113.0","battery-v0.2","","1176.2999999523163","R","elianto","#f73b6a7A","32","32","1","0","2678.800000011921","1","2","","","","","","001","110","10","3","lose","go","0"
"pit-trial","190","973072","0.0-114.0","battery-v0.2","","-1","M","elianto","#3366ff99","32","-1","0","0","","0","2","","","","","","001","111","11","1","win","go","0"
"pit-trial","191","978580","0.0-115.0","battery-v0.2","","-1","Y","elianto","#3366ff99","32","-1","0","0","","0","2","","","","","","001","112","9","1","win","go","0"
"pit-trial","192","984090","0.0-116.0","battery-v0.2","","-1","R","elianto","#f73b6a7A","32","-1","0","0","","0","2","","","","","","001","113","10","3","lose","go","1"
"pit-trial","193","989599","0.0-117.0","battery-v0.2","","-1","H","elianto","#f73b6a7A","-1","-1","1","0","","0","2","","","","","","001","114","8","4","lose","no-go","0"
"pit-trial","194","993763","0.0-118.0","battery-v0.2","","653.1999999880791","Y","elianto","#3366ff99","32","32","1","0","2153.300000011921","1","2","","","","","","001","115","9","1","win","go","1"
"pit-trial","195","999271","0.0-119.0","battery-v0.2","","-1","M","elianto","#3366ff99","32","-1","0","0","","0","2","","","","","","001","116","11","1","win","go","0"
"pit-trial","196","1004782","0.0-120.0","battery-v0.2","","-1","Y","elianto","#3366ff99","32","-1","0","0","","0","2","","","","","","001","117","9","1","win","go","0"
"pit-trial","197","1009243","0.0-121.0","battery-v0.2","","952.7000000476837","M","elianto","#3366ff99","32","32","1","0","2453.400000035763","1","2","","","","","","001","118","11","1","win","go","1"
"pit-trial","198","1014756","0.0-122.0","battery-v0.2","","-1","H","elianto","#f73b6a7A","-1","-1","1","-10","","0","2","","","","","","001","119","8","4","lose","no-go","1"
"pit-trial","199","1020269","0.0-123.0","battery-v0.2","","-1","R","elianto","#f73b6a7A","32","-1","0","-10","","0","2","","","","","","001","120","10","3","lose","go","0"
"pit-trial","200","1025784","0.0-124.0","battery-v0.2","","-1","M","elianto","#3366ff99","32","-1","0","0","","0","2","","","","","","001","121","11","1","win","go","0"
"pit-trial","201","1030418","0.0-125.0","battery-v0.2","","1128.199999988079","Y","elianto","#3366ff99","32","32","1","+10","2628.300000011921","1","2","","","","","","001","122","9","1","win","go","0"
"pit-trial","202","1035932","0.0-126.0","battery-v0.2","","-1","H","elianto","#f73b6a7A","-1","-1","1","0","","0","2","","","","","","001","123","8","4","lose","no-go","0"
"pit-trial","203","1040703","0.0-127.0","battery-v0.2","","1264.699999988079","R","elianto","#f73b6a7A","32","32","1","-10","2765","1","2","","","","","","001","124","10","3","lose","go","1"
"pit-trial","204","1045425","0.0-128.0","battery-v0.2","","1209.3999999761581","Y","elianto","#3366ff99","32","32","1","0","2710.5","1","2","","","","","","001","125","9","1","win","go","1"
"pit-trial","205","1050938","0.0-129.0","battery-v0.2","","-1","H","elianto","#f73b6a7A","-1","-1","1","-10","","0","2","","","","","","001","126","8","4","lose","no-go","1"
"pit-trial","206","1056449","0.0-130.0","battery-v0.2","","-1","R","elianto","#f73b6a7A","32","-1","0","-10","","0","2","","","","","","001","127","10","3","lose","go","0"
"pit-trial","207","1060973","0.0-131.0","battery-v0.2","","1015.5999999642372","M","elianto","#3366ff99","32","32","1","+10","2515.699999988079","1","2","","","","","","001","128","11","1","win","go","0"
"pit-trial","208","1064987","0.0-132.0","battery-v0.2","","501.69999998807907","M","elianto","#3366ff99","32","32","1","+10","2003.8999999761581","1","2","","","","","","001","129","11","1","win","go","0"
"pit-trial","209","1070501","0.0-133.0","battery-v0.2","","-1","H","elianto","#f73b6a7A","-1","-1","1","-10","","0","2","","","","","","001","130","8","4","lose","no-go","1"
"pit-trial","210","1075141","0.0-134.0","battery-v0.2","","1128.7999999523163","R","elianto","#f73b6a7A","32","32","1","0","2628.7999999523163","1","2","","","","","","001","131","10","3","lose","go","0"
"pit-trial","211","1079314","0.0-135.0","battery-v0.2","","660.1999999880791","Y","elianto","#3366ff99","32","32","1","+10","2162.399999976158","1","2","","","","","","001","132","9","1","win","go","0"
"pit-trial","212","1084828","0.0-136.0","battery-v0.2","","-1","H","elianto","#f73b6a7A","-1","-1","1","0","","0","2","","","","","","001","133","8","4","lose","no-go","0"
"pit-trial","213","1089149","0.0-137.0","battery-v0.2","","811.9000000357628","R","elianto","#f73b6a7A","32","32","1","0","2314.100000023842","1","2","","","","","","001","134","10","3","lose","go","0"
"pit-trial","214","1093267","0.0-138.0","battery-v0.2","","608.8000000119209","Y","elianto","#3366ff99","32","32","1","+10","2108.800000011921","1","2","","","","","","001","135","9","1","win","go","0"
"pit-trial","215","1098782","0.0-139.0","battery-v0.2","","-1","M","elianto","#3366ff99","32","-1","0","0","","0","2","","","","","","001","136","11","1","win","go","0"
"pit-trial","216","1102723","0.0-140.0","battery-v0.2","","437","Y","elianto","#3366ff99","32","32","1","+10","1937.5","1","2","","","","","","001","137","9","1","win","go","0"
"pit-trial","217","1107736","0.0-141.0","battery-v0.2","","1504.5","R","elianto","#f73b6a7A","32","32","1","0","3004.600000023842","1","2","","","","","","001","138","10","3","lose","go","0"
"pit-trial","218","1113242","0.0-142.0","battery-v0.2","","-1","H","elianto","#f73b6a7A","-1","-1","1","-10","","0","2","","","","","","001","139","8","4","lose","no-go","1"
"pit-trial","219","1117382","0.0-143.0","battery-v0.2","","629.6999999880791","M","elianto","#3366ff99","32","32","1","0","2131.300000011921","1","2","","","","","","001","140","11","1","win","go","1"
"pit-instructions","220","1123167","0.0-144.0","battery-v0.2","[{""page_index"":0,""viewing_time"":2269.599999964237},{""page_index"":1,""viewing_time"":3510.900000035763}]","5781.699999988079","","","","","","","","","","","","","","","","","","","","","",""
"pit-trial","221","1127980","0.0-145.0","battery-v0.2","","1301.699999988079","K","elianto","#3366ff99","32","32","1","+10","2802.899999976158","1","3","","","","","","001","141","3","1","win","go","0"
"pit-trial","222","1132702","0.0-146.0","battery-v0.2","","1211.699999988079","J","elianto","#f73b6a7A","32","32","1","0","2712.5","1","3","","","","","","001","142","1","3","lose","go","0"
"pit-trial","223","1137392","0.0-147.0","battery-v0.2","","1179.9000000357628","D","elianto","#f73b6a7A","-1","32","0","-10","2680.300000011921","1","3","","","","","","001","143","2","4","lose","no-go","0"
"pit-trial","224","1142904","0.0-148.0","battery-v0.2","","-1","V","elianto","#3366ff99","-1","-1","1","0","","0","3","","","","","","001","144","0","2","win","no-go","1"
"pit-trial","225","1147173","0.0-149.0","battery-v0.2","","758.6999999880791","K","elianto","#3366ff99","32","32","1","+10","2259.2999999523163","1","3","","","","","","001","145","3","1","win","go","0"
"pit-trial","226","1151363","0.0-150.0","battery-v0.2","","680.8999999761581","V","elianto","#3366ff99","-1","32","0","0","2182.5","1","3","","","","","","001","146","0","2","win","no-go","0"
"pit-trial","227","1156256","0.0-151.0","battery-v0.2","","1383.800000011921","D","elianto","#f73b6a7A","-1","32","0","0","2886","1","3","","","","","","001","147","2","4","lose","no-go","1"
"pit-trial","228","1160835","0.0-152.0","battery-v0.2","","1066.1000000238419","J","elianto","#f73b6a7A","32","32","1","-10","2568","1","3","","","","","","001","148","1","3","lose","go","1"
"pit-trial","229","1165880","0.0-153.0","battery-v0.2","","1534.5999999642372","V","elianto","#3366ff99","-1","32","0","0","3035.300000011921","1","3","","","","","","001","149","0","2","win","no-go","0"
"pit-trial","230","1170905","0.0-154.0","battery-v0.2","","1518.199999988079","K","elianto","#3366ff99","32","32","1","+10","3018.399999976158","1","3","","","","","","001","150","3","1","win","go","0"
"pit-trial","231","1176417","0.0-155.0","battery-v0.2","","-1","J","elianto","#f73b6a7A","32","-1","0","-10","","0","3","","","","","","001","151","1","3","lose","go","0"
"pit-trial","232","1181184","0.0-156.0","battery-v0.2","","1259","D","elianto","#f73b6a7A","-1","32","0","0","2759.5","1","3","","","","","","001","152","2","4","lose","no-go","1"
"pit-trial","233","1186256","0.0-157.0","battery-v0.2","","1564.699999988079","D","elianto","#f73b6a7A","-1","32","0","-10","3064.800000011921","1","3","","","","","","001","153","2","4","lose","no-go","0"
"pit-trial","234","1190323","0.0-158.0","battery-v0.2","","558.5999999642372","K","elianto","#3366ff99","32","32","1","0","2060.599999964237","1","3","","","","","","001","154","3","1","win","go","1"
"pit-trial","235","1194815","0.0-159.0","battery-v0.2","","980.8999999761581","J","elianto","#f73b6a7A","32","32","1","0","2482.2999999523163","1","3","","","","","","001","155","1","3","lose","go","0"
"pit-trial","236","1199823","0.0-160.0","battery-v0.2","","1497.300000011921","V","elianto","#3366ff99","-1","32","0","0","2998,3467","2","3","","","","","","001","156","0","2","win","no-go","0"
"pit-trial","237","1204138","0.0-161.0","battery-v0.2","","804.5","J","elianto","#f73b6a7A","32","32","1","0","2305.300000011921","1","3","","","","","","001","157","1","3","lose","go","0"
"pit-trial","238","1208656","0.0-162.0","battery-v0.2","","1005.6999999880791","K","elianto","#3366ff99","32","32","1","+10","2507.099999964237","1","3","","","","","","001","158","3","1","win","go","0"
"pit-trial","239","1214167","0.0-163.0","battery-v0.2","","-1","V","elianto","#3366ff99","-1","-1","1","+10","","0","3","","","","","","001","159","0","2","win","no-go","0"
"pit-trial","240","1219679","0.0-164.0","battery-v0.2","","-1","D","elianto","#f73b6a7A","-1","-1","1","0","","0","3","","","","","","001","160","2","4","lose","no-go","0"
"pit-trial","241","1225190","0.0-165.0","battery-v0.2","","-1","J","elianto","#f73b6a7A","32","-1","0","-10","","0","3","","","","","","001","161","1","3","lose","go","0"
"pit-trial","242","1229960","0.0-166.0","battery-v0.2","","1258.6000000238419","D","elianto","#f73b6a7A","-1","32","0","-10","2760.900000035763","1","3","","","","","","001","162","2","4","lose","no-go","0"
"pit-trial","243","1234932","0.0-167.0","battery-v0.2","","1461.5","K","elianto","#3366ff99","32","32","1","0","2962.300000011921","1","3","","","","","","001","163","3","1","win","go","1"
"pit-trial","244","1240137","0.0-168.0","battery-v0.2","","1698.199999988079","V","elianto","#3366ff99","-1","32","0","+10","3199.7999999523163","1","3","","","","","","001","164","0","2","win","no-go","1"
"pit-trial","245","1245647","0.0-169.0","battery-v0.2","","-1","D","elianto","#f73b6a7A","-1","-1","1","0","","0","3","","","","","","001","165","2","4","lose","no-go","0"
"pit-trial","246","1251158","0.0-170.0","battery-v0.2","","-1","J","elianto","#f73b6a7A","32","-1","0","-10","","0","3","","","","","","001","166","1","3","lose","go","0"
"pit-trial","247","1256668","0.0-171.0","battery-v0.2","","-1","K","elianto","#3366ff99","32","-1","0","0","","0","3","","","","","","001","167","3","1","win","go","0"
"pit-trial","248","1262177","0.0-172.0","battery-v0.2","","-1","V","elianto","#3366ff99","-1","-1","1","+10","","0","3","","","","","","001","168","0","2","win","no-go","0"
"pit-trial","249","1266573","0.0-173.0","battery-v0.2","","889.1000000238419","J","elianto","#f73b6a7A","32","32","1","0","2391.300000011921","1","3","","","","","","001","169","1","3","lose","go","0"
"pit-trial","250","1272084","0.0-174.0","battery-v0.2","","-1","K","elianto","#3366ff99","32","-1","0","0","","0","3","","","","","","001","170","3","1","win","go","0"
"pit-trial","251","1277592","0.0-175.0","battery-v0.2","","-1","D","elianto","#f73b6a7A","-1","-1","1","-10","","0","3","","","","","","001","171","2","4","lose","no-go","1"
"pit-trial","252","1283103","0.0-176.0","battery-v0.2","","-1","V","elianto","#3366ff99","-1","-1","1","0","","0","3","","","","","","001","172","0","2","win","no-go","1"
"pit-trial","253","1287861","0.0-177.0","battery-v0.2","","1248.5","E","elianto","#f73b6a7A","32","32","1","-10","2749","1","3","","","","","","001","173","4","3","lose","go","1"
"pit-trial","254","1292551","0.0-178.0","battery-v0.2","","1180","D","elianto","#f73b6a7A","-1","32","0","-10","2682.300000011921","1","3","","","","","","001","174","2","4","lose","no-go","0"
"pit-trial","255","1297071","0.0-179.0","battery-v0.2","","1012.5","J","elianto","#f73b6a7A","32","32","1","0","2513.199999988079","1","3","","","","","","001","175","1","3","lose","go","0"
"pit-trial","256","1302010","0.0-180.0","battery-v0.2","","1428.199999988079","W","elianto","#f73b6a7A","-1","32","0","-10","2929.399999976158","1","3","","","","","","001","176","5","4","lose","no-go","0"
"pit-trial","257","1307349","0.0-181.0","battery-v0.2","","1830.0999999642372","J","elianto","#f73b6a7A","32","32","1","-10","3332.399999976158","1","3","","","","","","001","177","1","3","lose","go","1"
"pit-trial","258","1312256","0.0-182.0","battery-v0.2","","1403","E","elianto","#f73b6a7A","32","32","1","0","2903.099999964237","1","3","","","","","","001","178","4","3","lose","go","0"
"pit-trial","259","1316471","0.0-183.0","battery-v0.2","","711.2000000476837","D","elianto","#f73b6a7A","-1","32","0","-10","2211.800000011921","1","3","","","","","","001","179","2","4","lose","no-go","0"
"pit-trial","260","1321315","0.0-184.0","battery-v0.2","","1337.1000000238419","W","elianto","#f73b6a7A","-1","32","0","-10","2838.099999964237","1","3","","","","","","001","180","5","4","lose","no-go","0"
"pit-trial","261","1326383","0.0-185.0","battery-v0.2","","1558.300000011921","E","elianto","#f73b6a7A","32","32","1","0","3058.300000011921","1","3","","","","","","001","181","4","3","lose","go","0"
"pit-trial","262","1331895","0.0-186.0","battery-v0.2","","-1","D","elianto","#f73b6a7A","-1","-1","1","0","","0","3","","","","","","001","182","2","4","lose","no-go","0"
"pit-trial","263","1336399","0.0-187.0","battery-v0.2","","991.5","S","elianto","#3366ff99","-1","32","0","0","2493.300000011921","1","3","","","","","","001","183","6","2","win","no-go","0"
"pit-trial","264","1341911","0.0-188.0","battery-v0.2","","-1","W","elianto","#f73b6a7A","-1","-1","1","0","","0","3","","","","","","001","184","5","4","lose","no-go","0"
"pit-trial","265","1347424","0.0-189.0","battery-v0.2","","-1","W","elianto","#f73b6a7A","-1","-1","1","-10","","0","3","","","","","","001","185","5","4","lose","no-go","1"
"pit-trial","266","1352935","0.0-190.0","battery-v0.2","","-1","E","elianto","#f73b6a7A","32","-1","0","0","","0","3","","","","","","001","186","4","3","lose","go","1"
"pit-trial","267","1357534","0.0-191.0","battery-v0.2","","1088.300000011921","D","elianto","#f73b6a7A","-1","32","0","-10","2588.900000035763","1","3","","","","","","001","187","2","4","lose","no-go","0"
"pit-trial","268","1363047","0.0-192.0","battery-v0.2","","-1","S","elianto","#3366ff99","-1","-1","1","0","","0","3","","","","","","001","188","6","2","win","no-go","1"
"pit-trial","269","1368559","0.0-193.0","battery-v0.2","","-1","W","elianto","#f73b6a7A","-1","-1","1","-10","","0","3","","","","","","001","189","5","4","lose","no-go","1"
"pit-trial","270","1374073","0.0-194.0","battery-v0.2","","-1","E","elianto","#f73b6a7A","32","-1","0","-10","","0","3","","","","","","001","190","4","3","lose","go","0"
"pit-trial","271","1378990","0.0-195.0","battery-v0.2","","1403.8999999761581","S","elianto","#3366ff99","-1","32","0","0","2906.300000011921","1","3","","","","","","001","191","6","2","win","no-go","0"
"pit-trial","272","1383899","0.0-196.0","battery-v0.2","","1397.8999999761581","P","elianto","#3366ff99","32","32","1","+10","2900","1","3","","","","","","001","192","7","1","win","go","0"
"pit-trial","273","1389409","0.0-197.0","battery-v0.2","","-1","S","elianto","#3366ff99","-1","-1","1","+10","","0","3","","","","","","001","193","6","2","win","no-go","0"
"pit-trial","274","1394923","0.0-198.0","battery-v0.2","","-1","E","elianto","#f73b6a7A","32","-1","0","-10","","0","3","","","","","","001","194","4","3","lose","go","0"
"pit-trial","275","1399380","0.0-199.0","battery-v0.2","","948.3999999761581","P","elianto","#3366ff99","32","32","1","+10","2449.300000011921","1","3","","","","","","001","195","7","1","win","go","0"
"pit-trial","276","1404890","0.0-200.0","battery-v0.2","","-1","W","elianto","#f73b6a7A","-1","-1","1","0","","0","3","","","","","","001","196","5","4","lose","no-go","0"
"pit-trial","277","1409262","0.0-201.0","battery-v0.2","","861.6000000238419","E","elianto","#f73b6a7A","32","32","1","0","2363.900000035763","1","3","","","","","","001","197","4","3","lose","go","0"
"pit-trial","278","1414770","0.0-202.0","battery-v0.2","","-1","S","elianto","#3366ff99","-1","-1","1","+10","","0","3","","","","","","001","198","6","2","win","no-go","0"
"pit-trial","279","1419341","0.0-203.0","battery-v0.2","","1061.199999988079","P","elianto","#3366ff99","32","32","1","+10","2562.400000035763","1","3","","","","","","001","199","7","1","win","go","0"
"pit-trial","280","1424848","0.0-204.0","battery-v0.2","","-1","W","elianto","#f73b6a7A","-1","-1","1","0","","0","3","","","","","","001","200","5","4","lose","no-go","0"
"pit-trial","281","1430356","0.0-205.0","battery-v0.2","","-1","W","elianto","#f73b6a7A","-1","-1","1","0","","0","3","","","","","","001","201","5","4","lose","no-go","0"
"pit-trial","282","1435866","0.0-206.0","battery-v0.2","","-1","S","elianto","#3366ff99","-1","-1","1","0","","0","3","","","","","","001","202","6","2","win","no-go","1"
"pit-trial","283","1441376","0.0-207.0","battery-v0.2","","-1","P","elianto","#3366ff99","32","-1","0","0","","0","3","","","","","","001","203","7","1","win","go","0"
"pit-trial","284","1446885","0.0-208.0","battery-v0.2","","-1","E","elianto","#f73b6a7A","32","-1","0","-10","","0","3","","","","","","001","204","4","3","lose","go","0"
"pit-trial","285","1451613","0.0-209.0","battery-v0.2","","1219.699999988079","P","elianto","#3366ff99","32","32","1","+10","2720.5","1","3","","","","","","001","205","7","1","win","go","0"
"pit-trial","286","1455611","0.0-210.0","battery-v0.2","","486.5","S","elianto","#3366ff99","-1","32","0","0","1988.300000011921","1","3","","","","","","001","206","6","2","win","no-go","0"
"pit-trial","287","1461123","0.0-211.0","battery-v0.2","","-1","E","elianto","#f73b6a7A","32","-1","0","-10","","0","3","","","","","","001","207","4","3","lose","go","0"
"pit-trial","288","1466636","0.0-212.0","battery-v0.2","","-1","W","elianto","#f73b6a7A","-1","-1","1","0","","0","3","","","","","","001","208","5","4","lose","no-go","0"
"pit-trial","289","1472150","0.0-213.0","battery-v0.2","","-1","W","elianto","#f73b6a7A","-1","-1","1","0","","0","3","","","","","","001","209","5","4","lose","no-go","0"
"pit-trial","290","1477660","0.0-214.0","battery-v0.2","","-1","E","elianto","#f73b6a7A","32","-1","0","0","","0","3","","","","","","001","210","4","3","lose","go","1"
"pit-trial","291","1483168","0.0-215.0","battery-v0.2","","-1","P","elianto","#3366ff99","32","-1","0","0","","0","3","","","","","","001","211","7","1","win","go","0"
"pit-trial","292","1488676","0.0-216.0","battery-v0.2","","-1","S","elianto","#3366ff99","-1","-1","1","+10","","0","3","","","","","","001","212","6","2","win","no-go","0"
"pit-trial","293","1493203","0.0-217.0","battery-v0.2","","1017.1000000238419","G","elianto","#3366ff99","32","32","1","+10","2518.900000035763","1","3","","","","","","001","213","8","1","win","go","0"
"pit-trial","294","1498713","0.0-218.0","battery-v0.2","","-1","E","elianto","#f73b6a7A","32","-1","0","-10","1213.8999999761581","1","3","","","","","","001","214","4","3","lose","go","0"
"pit-trial","295","1504183","0.0-219.0","battery-v0.2","","1961","P","elianto","#3366ff99","32","32","1","+10","3461.699999988079","1","3","","","","","","001","215","7","1","win","go","0"
"pit-trial","296","1509693","0.0-220.0","battery-v0.2","","-1","S","elianto","#3366ff99","-1","-1","1","0","4815.900000035763","1","3","","","","","","001","216","6","2","win","no-go","1"
"pit-trial","297","1513839","0.0-221.0","battery-v0.2","","635.8999999761581","P","elianto","#3366ff99","32","32","1","0","2137.100000023842","1","3","","","","","","001","217","7","1","win","go","1"
"pit-trial","298","1519346","0.0-222.0","battery-v0.2","","-1","S","elianto","#3366ff99","-1","-1","1","+10","","0","3","","","","","","001","218","6","2","win","no-go","0"
"pit-trial","299","1524598","0.0-223.0","battery-v0.2","","1744.699999988079","G","elianto","#3366ff99","32","32","1","+10","3245.5","1","3","","","","","","001","219","8","1","win","go","0"
"pit-trial","300","1530110","0.0-224.0","battery-v0.2","","-1","E","elianto","#f73b6a7A","32","-1","0","-10","","0","3","","","","","","001","220","4","3","lose","go","0"
"pit-trial","301","1535175","0.0-225.0","battery-v0.2","","1553.800000011921","A","elianto","#3366ff99","-1","32","0","0","3055.899999976158","1","3","","","","","","001","221","9","2","win","no-go","0"
"pit-trial","302","1540128","0.0-226.0","battery-v0.2","","1444.6000000238419","P","elianto","#3366ff99","32","32","1","0","2947","1","3","","","","","","001","222","7","1","win","go","1"
"pit-trial","303","1544621","0.0-227.0","battery-v0.2","","985.6999999880791","G","elianto","#3366ff99","32","32","1","+10","2487.100000023842","1","3","","","","","","001","223","8","1","win","go","0"
"pit-trial","304","1550128","0.0-228.0","battery-v0.2","","-1","S","elianto","#3366ff99","-1","-1","1","+10","","0","3","","","","","","001","224","6","2","win","no-go","0"
"pit-trial","305","1555641","0.0-229.0","battery-v0.2","","-1","S","elianto","#3366ff99","-1","-1","1","+10","","0","3","","","","","","001","225","6","2","win","no-go","0"
"pit-trial","306","1560125","0.0-230.0","battery-v0.2","","974.1000000238419","A","elianto","#3366ff99","-1","32","0","0","2476.800000011921","1","3","","","","","","001","226","9","2","win","no-go","0"
"pit-trial","307","1564514","0.0-231.0","battery-v0.2","","876.6000000238419","G","elianto","#3366ff99","32","32","1","0","2379.300000011921","1","3","","","","","","001","227","8","1","win","go","1"
"pit-trial","308","1569435","0.0-232.0","battery-v0.2","","1413.800000011921","P","elianto","#3366ff99","32","32","1","+10","2913.800000011921","1","3","","","","","","001","228","7","1","win","go","0"
"pit-trial","309","1574946","0.0-233.0","battery-v0.2","","-1","A","elianto","#3366ff99","-1","-1","1","+10","","0","3","","","","","","001","229","9","2","win","no-go","0"
"pit-trial","310","1580458","0.0-234.0","battery-v0.2","","-1","U","elianto","#f73b6a7A","-1","-1","1","-10","","0","3","","","","","","001","230","11","4","lose","no-go","1"
"pit-trial","311","1585703","0.0-235.0","battery-v0.2","","1737.699999988079","L","elianto","#f73b6a7A","32","32","1","0","3240.600000023842","1","3","","","","","","001","231","10","3","lose","go","0"
"pit-trial","312","1591211","0.0-236.0","battery-v0.2","","-1","G","elianto","#3366ff99","32","-1","0","0","","0","3","","","","","","001","232","8","1","win","go","0"
"pit-trial","313","1595659","0.0-237.0","battery-v0.2","","937.5","G","elianto","#3366ff99","32","32","1","+10","2438.399999976158","1","3","","","","","","001","233","8","1","win","go","0"
"pit-trial","314","1600263","0.0-238.0","battery-v0.2","","1095.199999988079","U","elianto","#f73b6a7A","-1","32","0","-10","2597.100000023842","1","3","","","","","","001","234","11","4","lose","no-go","0"
"pit-trial","315","1605376","0.0-239.0","battery-v0.2","","1605.199999988079","L","elianto","#f73b6a7A","32","32","1","0","3105.800000011921","1","3","","","","","","001","235","10","3","lose","go","0"
"pit-trial","316","1610890","0.0-240.0","battery-v0.2","","-1","A","elianto","#3366ff99","-1","-1","1","+10","","0","3","","","","","","001","236","9","2","win","no-go","0"
"pit-trial","317","1616401","0.0-241.0","battery-v0.2","","-1","G","elianto","#3366ff99","32","-1","0","0","","0","3","","","","","","001","237","8","1","win","go","0"
"pit-trial","318","1621912","0.0-242.0","battery-v0.2","","-1","A","elianto","#3366ff99","-1","-1","1","+10","","0","3","","","","","","001","238","9","2","win","no-go","0"
"pit-trial","319","1627423","0.0-243.0","battery-v0.2","","-1","U","elianto","#f73b6a7A","-1","-1","1","0","","0","3","","","","","","001","239","11","4","lose","no-go","0"
"pit-trial","320","1632938","0.0-244.0","battery-v0.2","","-1","L","elianto","#f73b6a7A","32","-1","0","-10","","0","3","","","","","","001","240","10","3","lose","go","0"
"pit-trial","321","1637352","0.0-245.0","battery-v0.2","","903.6999999880791","G","elianto","#3366ff99","32","32","1","+10","2405.599999964237","1","3","","","","","","001","241","8","1","win","go","0"
"pit-trial","322","1641962","0.0-246.0","battery-v0.2","","1099.199999988079","U","elianto","#f73b6a7A","-1","32","0","-10","2600.800000011921","1","3","","","","","","001","242","11","4","lose","no-go","0"
"pit-trial","323","1645932","0.0-247.0","battery-v0.2","","460.89999997615814","A","elianto","#3366ff99","-1","32","0","+10","1961.699999988079","1","3","","","","","","001","243","9","2","win","no-go","1"
"pit-trial","324","1651441","0.0-248.0","battery-v0.2","","-1","L","elianto","#f73b6a7A","32","-1","0","0","354","1","3","","","","","","001","244","10","3","lose","go","1"
"pit-trial","325","1655654","0.0-249.0","battery-v0.2","","700.5","U","elianto","#f73b6a7A","-1","32","0","-10","2203.199999988079","1","3","","","","","","001","245","11","4","lose","no-go","0"
"pit-trial","326","1659966","0.0-250.0","battery-v0.2","","804","L","elianto","#f73b6a7A","32","32","1","0","2304.400000035763","1","3","","","","","","001","246","10","3","lose","go","0"
"pit-trial","327","1664635","0.0-251.0","battery-v0.2","","1162.199999988079","G","elianto","#3366ff99","32","32","1","+10","2662.7999999523163","1","3","","","","","","001","247","8","1","win","go","0"
"pit-trial","328","1670149","0.0-252.0","battery-v0.2","","-1","A","elianto","#3366ff99","-1","-1","1","+10","","0","3","","","","","","001","248","9","2","win","no-go","0"
"pit-trial","329","1674493","0.0-253.0","battery-v0.2","","832.3999999761581","G","elianto","#3366ff99","32","32","1","+10","2333.199999988079","1","3","","","","","","001","249","8","1","win","go","0"
"pit-trial","330","1680006","0.0-254.0","battery-v0.2","","-1","A","elianto","#3366ff99","-1","-1","1","0","","0","3","","","","","","001","250","9","2","win","no-go","1"
"pit-trial","331","1685518","0.0-255.0","battery-v0.2","","-1","L","elianto","#f73b6a7A","32","-1","0","-10","","0","3","","","","","","001","251","10","3","lose","go","0"
"pit-trial","332","1691031","0.0-256.0","battery-v0.2","","-1","U","elianto","#f73b6a7A","-1","-1","1","0","","0","3","","","","","","001","252","11","4","lose","no-go","0"
"pit-trial","333","1695428","0.0-257.0","battery-v0.2","","889.1000000238419","L","elianto","#f73b6a7A","32","32","1","0","2389.5","1","3","","","","","","001","253","10","3","lose","go","0"
"pit-trial","334","1700936","0.0-258.0","battery-v0.2","","-1","A","elianto","#3366ff99","-1","-1","1","+10","","0","3","","","","","","001","254","9","2","win","no-go","0"
"pit-trial","335","1706451","0.0-259.0","battery-v0.2","","-1","U","elianto","#f73b6a7A","-1","-1","1","0","","0","3","","","","","","001","255","11","4","lose","no-go","0"
"pit-trial","336","1710752","0.0-260.0","battery-v0.2","","791.1999999880791","G","elianto","#3366ff99","32","32","1","+10","2291.699999988079","1","3","","","","","","001","256","8","1","win","go","0"
"pit-trial","337","1716266","0.0-261.0","battery-v0.2","","-1","U","elianto","#f73b6a7A","-1","-1","1","-10","","0","3","","","","","","001","257","11","4","lose","no-go","1"
"pit-trial","338","1721783","0.0-262.0","battery-v0.2","","-1","A","elianto","#3366ff99","-1","-1","1","0","","0","3","","","","","","001","258","9","2","win","no-go","1"
"pit-trial","339","1725773","0.0-263.0","battery-v0.2","","481.5","G","elianto","#3366ff99","32","32","1","+10","1982.5","1","3","","","","","","001","259","8","1","win","go","0"
"pit-trial","340","1730347","0.0-264.0","battery-v0.2","","1061.6000000238419","L","elianto","#f73b6a7A","32","32","1","0","2564.400000035763","1","3","","","","","","001","260","10","3","lose","go","0"
