"trial_type","trial_index","time_elapsed","internal_node_id","task_version","view_history","rt","rune","rune_set","hex","correct","choice","accuracy","outcome","keys","total_keys","block","practice","value","responses","num_errors","sub","trial","stimulus","robot","valence","action","sham"
"pavlovia","0","22","0.0-0.0","battery-v0.2","","","","","","","","","","","","","","","","","","","","","","",""
"pit-instructions","1","173248","0.0-1.0-0.0","battery-v0.2","[{""page_index"":0,""viewing_time"":76171.79999995232},{""page_index"":1,""viewing_time"":9965.799999952316},{""page_index"":2,""viewing_time"":6186.700000047684},{""page_index"":3,""viewing_time"":7809.899999856949},{""page_index"":4,""viewing_time"":7882.600000143051},{""page_index"":5,""viewing_time"":12112.099999904633},{""page_index"":6,""viewing_time"":22084.5},{""page_index"":7,""viewing_time"":20373.200000047684},{""page_index"":8,""viewing_time"":7003.299999952316},{""page_index"":9,""viewing_time"":3633.100000143051}]","173225","","","","","","","","","","","","","","","","","","","","",""
"pit-trial","2","176799","0.0-1.0-1.0-0.0","battery-v0.2","","844.9000000953674","1","elianto","#3366ff99","32","32","1","+10","2345.2000000476837","1","0","1","","","","","","","","","",""
"pit-trial","3","180160","0.0-1.0-1.1-0.1","battery-v0.2","","654","1","elianto","#3366ff99","32","32","1","+10","2154","1","0","1","","","","","","","","","",""
"pit-trial","4","183645","0.0-1.0-1.2-0.2","battery-v0.2","","779.5999999046326","1","elianto","#3366ff99","32","32","1","+10","2280.399999856949","1","0","1","","","","","","","","","",""
"pit-trial","5","187345","0.0-1.0-1.3-0.3","battery-v0.2","","993.4000000953674","1","elianto","#3366ff99","32","32","1","+10","2494.5999999046326","1","0","1","","","","","","","","","",""
"call-function","6","187347","0.0-1.0-2.0","battery-v0.2","","","","","","","","","","","","","","","","","","","","","","",""
"pit-instructions","7","209618","0.0-1.0-3.0","battery-v0.2","[{""page_index"":0,""viewing_time"":17344.299999952316},{""page_index"":1,""viewing_time"":4925.799999952316}]","22270.599999904633","","","","","","","","","","","","","","","","","","","","",""
"pit-trial","8","213627","0.0-1.0-4.0-0.0","battery-v0.2","","-1","2","elianto","#3366ff99","-1","-1","1","+10","","0","0","2","","","","","","","","","",""
"pit-trial","9","217635","0.0-1.0-4.1-0.1","battery-v0.2","","-1","2","elianto","#3366ff99","-1","-1","1","+10","","0","0","2","","","","","","","","","",""
"pit-trial","10","221642","0.0-1.0-4.2-0.2","battery-v0.2","","-1","2","elianto","#3366ff99","-1","-1","1","+10","3250.7000000476837","1","0","2","","","","","","","","","",""
"pit-trial","11","224727","0.0-1.0-4.3-0.3","battery-v0.2","","379.80000019073486","2","elianto","#3366ff99","-1","32","0","+1","1881","1","0","2","","","","","","","","","",""
"pit-trial","12","228738","0.0-1.0-4.4-0.4","battery-v0.2","","-1","2","elianto","#3366ff99","-1","-1","1","+10","","0","0","2","","","","","","","","","",""
"pit-trial","13","232434","0.0-1.0-4.5-0.5","battery-v0.2","","986.7999999523163","2","elianto","#3366ff99","-1","32","0","+1","2489.0999999046326","1","0","2","","","","","","","","","",""
"pit-trial","14","236440","0.0-1.0-4.6-0.6","battery-v0.2","","-1","2","elianto","#3366ff99","-1","-1","1","+10","","0","0","2","","","","","","","","","",""
"pit-trial","15","240444","0.0-1.0-4.7-0.7","battery-v0.2","","-1","2","elianto","#3366ff99","-1","-1","1","+10","","0","0","2","","","","","","","","","",""
"pit-trial","16","244449","0.0-1.0-4.8-0.8","battery-v0.2","","-1","2","elianto","#3366ff99","-1","-1","1","+10","","0","0","2","","","","","","","","","",""
"call-function","17","244450","0.0-1.0-5.0","battery-v0.2","","","","","","","","","","","","","","","","","","","","","","",""
"pit-instructions","18","826222","0.0-1.0-6.0","battery-v0.2","[{""page_index"":0,""viewing_time"":101535.5},{""page_index"":1,""viewing_time"":480239.90000009537}]","581775.7000000477","","","","","","","","","","","","","","","","","","","","",""
"pit-trial","19","830229","0.0-1.0-7.0-0.0","battery-v0.2","","-1","3","elianto","#f73b6a7A","-1","-1","1","-1","2873.7999999523163","1","0","3","","","","","","","","","",""
"pit-trial","20","834237","0.0-1.0-7.1-0.1","battery-v0.2","","-1","3","elianto","#f73b6a7A","-1","-1","1","-1","3529.600000143051","1","0","3","","","","","","","","","",""
"pit-trial","21","838245","0.0-1.0-7.2-0.2","battery-v0.2","","-1","3","elianto","#f73b6a7A","-1","-1","1","-1","","0","0","3","","","","","","","","","",""
"pit-trial","22","842254","0.0-1.0-7.3-0.3","battery-v0.2","","-1","3","elianto","#f73b6a7A","-1","-1","1","-1","1089.5","1","0","3","","","","","","","","","",""
"call-function","23","842255","0.0-1.0-8.0","battery-v0.2","","","","","","","","","","","","","","","","","","","","","","",""
"pit-instructions","24","903592","0.0-1.0-9.0","battery-v0.2","[{""page_index"":0,""viewing_time"":49162.90000009537},{""page_index"":1,""viewing_time"":12173.199999809265}]","61336.5","","","","","","","","","","","","","","","","","","","","",""
"pit-trial","25","907599","0.0-1.0-10.0-0.0","battery-v0.2","","-1","4","elianto","#f73b6a7A","32","-1","0","-10","","0","0","4","","","","","","","","","",""
"pit-trial","26","911606","0.0-1.0-10.1-0.1","battery-v0.2","","-1","4","elianto","#f73b6a7A","32","-1","0","-10","1358.2999999523163","1","0","4","","","","","","","","","",""
"pit-trial","27","915617","0.0-1.0-10.2-0.2","battery-v0.2","","-1","4","elianto","#f73b6a7A","32","-1","0","-10","","0","0","4","","","","","","","","","",""
"pit-trial","28","919626","0.0-1.0-10.3-0.3","battery-v0.2","","-1","4","elianto","#f73b6a7A","32","-1","0","-10","731.5","1","0","4","","","","","","","","","",""
"pit-trial","29","922826","0.0-1.0-10.4-0.4","battery-v0.2","","495.59999990463257","4","elianto","#f73b6a7A","32","32","1","-1","1996.9000000953674","1","0","4","","","","","","","","","",""
"pit-trial","30","925903","0.0-1.0-10.5-0.5","battery-v0.2","","368.7000000476837","4","elianto","#f73b6a7A","32","32","1","-1","1869.9000000953674","1","0","4","","","","","","","","","",""
"pit-trial","31","929911","0.0-1.0-10.6-0.6","battery-v0.2","","-1","4","elianto","#f73b6a7A","32","-1","0","-10","","0","0","4","","","","","","","","","",""
"pit-trial","32","933919","0.0-1.0-10.7-0.7","battery-v0.2","","-1","4","elianto","#f73b6a7A","32","-1","0","-10","886.2999999523163,3591.2999999523163","2","0","4","","","","","","","","","",""
"pit-trial","33","937930","0.0-1.0-10.8-0.8","battery-v0.2","","-1","4","elianto","#f73b6a7A","32","-1","0","-10","1121","1","0","4","","","","","","","","","",""
"pit-trial","34","941938","0.0-1.0-10.9-0.9","battery-v0.2","","-1","4","elianto","#f73b6a7A","32","-1","0","-10","1077.7000000476837","1","0","4","","","","","","","","","",""
"pit-trial","35","945946","0.0-1.0-10.10-0.10","battery-v0.2","","-1","4","elianto","#f73b6a7A","32","-1","0","-10","","0","0","4","","","","","","","","","",""
"pit-trial","36","949954","0.0-1.0-10.11-0.11","battery-v0.2","","-1","4","elianto","#f73b6a7A","32","-1","0","-10","1034","1","0","4","","","","","","","","","",""
"pit-trial","37","953964","0.0-1.0-10.12-0.12","battery-v0.2","","-1","4","elianto","#f73b6a7A","32","-1","0","-10","1058.3000001907349","1","0","4","","","","","","","","","",""
"pit-trial","38","957974","0.0-1.0-10.13-0.13","battery-v0.2","","-1","4","elianto","#f73b6a7A","32","-1","0","-10","1391.3000001907349","1","0","4","","","","","","","","","",""
"pit-trial","39","961984","0.0-1.0-10.14-0.14","battery-v0.2","","-1","4","elianto","#f73b6a7A","32","-1","0","-10","1451.3000001907349","1","0","4","","","","","","","","","",""
"pit-trial","40","964758","0.0-1.0-10.15-0.15","battery-v0.2","","68","4","elianto","#f73b6a7A","32","32","1","-1","1568.7000000476837","1","0","4","","","","","","","","","",""
"pit-trial","41","967825","0.0-1.0-10.16-0.16","battery-v0.2","","361.40000009536743","4","elianto","#f73b6a7A","32","32","1","-1","1862.5","1","0","4","","","","","","","","","",""
"pit-trial","42","971834","0.0-1.0-10.17-0.17","battery-v0.2","","-1","4","elianto","#f73b6a7A","32","-1","0","-10","","0","0","4","","","","","","","","","",""
"pit-trial","43","975843","0.0-1.0-10.18-0.18","battery-v0.2","","-1","4","elianto","#f73b6a7A","32","-1","0","-10","941.9000000953674","1","0","4","","","","","","","","","",""
"pit-trial","44","979854","0.0-1.0-10.19-0.19","battery-v0.2","","-1","4","elianto","#f73b6a7A","32","-1","0","-10","1053.5999999046326","1","0","4","","","","","","","","","",""
"pit-trial","45","983860","0.0-1.0-10.20-0.20","battery-v0.2","","-1","4","elianto","#f73b6a7A","32","-1","0","-10","1301.7000000476837","1","0","4","","","","","","","","","",""
"pit-trial","46","987867","0.0-1.0-10.21-0.21","battery-v0.2","","-1","4","elianto","#f73b6a7A","32","-1","0","-10","","0","0","4","","","","","","","","","",""
"pit-trial","47","991877","0.0-1.0-10.22-0.22","battery-v0.2","","-1","4","elianto","#f73b6a7A","32","-1","0","-10","","0","0","4","","","","","","","","","",""
"pit-trial","48","995889","0.0-1.0-10.23-0.23","battery-v0.2","","-1","4","elianto","#f73b6a7A","32","-1","0","-10","","0","0","4","","","","","","","","","",""
"pit-trial","49","999899","0.0-1.0-10.24-0.24","battery-v0.2","","-1","4","elianto","#f73b6a7A","32","-1","0","-10","","0","0","4","","","","","","","","","",""
"pit-trial","50","1002785","0.0-1.0-10.25-0.25","battery-v0.2","","179.80000019073486","4","elianto","#f73b6a7A","32","32","1","-1","1680.7000000476837","1","0","4","","","","","","","","","",""
"pit-trial","51","1005655","0.0-1.0-10.26-0.26","battery-v0.2","","159.90000009536743","4","elianto","#f73b6a7A","32","32","1","-1","1662.2999999523163","1","0","4","","","","","","","","","",""
"pit-trial","52","1008581","0.0-1.0-10.27-0.27","battery-v0.2","","217.09999990463257","4","elianto","#f73b6a7A","32","32","1","-1","1718.5","1","0","4","","","","","","","","","",""
"call-function","53","1008582","0.0-1.0-11.0","battery-v0.2","","","","","","","","","","","","","","","","","","","","","","",""
"pit-instructions","54","1193047","0.0-1.0-12.0","battery-v0.2","[{""page_index"":0,""viewing_time"":22283.700000047684},{""page_index"":1,""viewing_time"":7783.699999809265},{""page_index"":2,""viewing_time"":1810.9000000953674},{""page_index"":1,""viewing_time"":140895.20000004768},{""page_index"":2,""viewing_time"":2382},{""page_index"":3,""viewing_time"":3330.5},{""page_index"":4,""viewing_time"":4598.899999856949},{""page_index"":5,""viewing_time"":1380}]","184465.20000004768","","","","","","","","","","","","","","","","","","","","",""
"pit-comprehension","55","1233436","0.0-1.0-13.0","battery-v0.2","","40386.299999952316","","","","","","","","","","","","","Press SPACE,+10,-10,True,True","1","","","","","","",""
"pit-instructions","56","1281948","0.0-2.0","battery-v0.2","[{""page_index"":0,""viewing_time"":1839.7000000476837},{""page_index"":1,""viewing_time"":6048.099999904633},{""page_index"":0,""viewing_time"":4944.5},{""page_index"":1,""viewing_time"":35677}]","48509.700000047684","","","","","","","","","","","","","","","","","","","","",""
"pit-trial","57","1285244","0.0-3.0","battery-v0.2","","590.2000000476837","G","elianto","#f73b6a7A","32","32","1","-1","2091","1","1","","","","","test","1","3","3","lose","go","0"
"pit-trial","58","1289253","0.0-4.0","battery-v0.2","","-1","L","elianto","#3366ff99","-1","-1","1","+10","","0","1","","","","","test","2","1","2","win","no-go","0"
"pit-trial","59","1293263","0.0-5.0","battery-v0.2","","-1","A","elianto","#3366ff99","32","-1","0","+1","","0","1","","","","","test","3","2","1","win","go","0"
"pit-trial","60","1296859","0.0-6.0","battery-v0.2","","890.2000000476837","U","elianto","#3366ff99","-1","32","0","+1","2391.2000000476837","1","1","","","","","test","4","0","2","win","no-go","0"
"pit-trial","61","1300868","0.0-7.0","battery-v0.2","","-1","A","elianto","#3366ff99","32","-1","0","+1","","0","1","","","","","test","5","2","1","win","go","0"
"pit-trial","62","1304877","0.0-8.0","battery-v0.2","","-1","L","elianto","#3366ff99","-1","-1","1","+10","","0","1","","","","","test","6","1","2","win","no-go","0"
"pit-trial","63","1308884","0.0-9.0","battery-v0.2","","-1","U","elianto","#3366ff99","-1","-1","1","+10","","0","1","","","","","test","7","0","2","win","no-go","0"
"pit-trial","64","1312892","0.0-10.0","battery-v0.2","","-1","G","elianto","#f73b6a7A","32","-1","0","-10","","0","1","","","","","test","8","3","3","lose","go","0"
"pit-trial","65","1316903","0.0-11.0","battery-v0.2","","-1","U","elianto","#3366ff99","-1","-1","1","+10","","0","1","","","","","test","9","0","2","win","no-go","0"
"pit-trial","66","1320646","0.0-12.0","battery-v0.2","","1035.4000000953674","G","elianto","#f73b6a7A","32","32","1","-10","2537","1","1","","","","","test","10","3","3","lose","go","1"
"pit-trial","67","1323879","0.0-13.0","battery-v0.2","","524.9000000953674","A","elianto","#3366ff99","32","32","1","+10","2025.3999998569489","1","1","","","","","test","11","2","1","win","go","0"
"pit-trial","68","1326876","0.0-14.0","battery-v0.2","","292.7999999523163","L","elianto","#3366ff99","-1","32","0","+1","1793.4000000953674","1","1","","","","","test","12","1","2","win","no-go","0"
"pit-trial","69","1329935","0.0-15.0","battery-v0.2","","354.2000000476837","A","elianto","#3366ff99","32","32","1","+1","1855.5","1","1","","","","","test","13","2","1","win","go","1"
"pit-trial","70","1332805","0.0-16.0","battery-v0.2","","164.10000014305115","L","elianto","#3366ff99","-1","32","0","+10","1665","1","1","","","","","test","14","1","2","win","no-go","1"
"pit-trial","71","1335612","0.0-17.0","battery-v0.2","","104.69999980926514","U","elianto","#3366ff99","-1","32","0","+1","1604.5999999046326","1","1","","","","","test","15","0","2","win","no-go","0"
"pit-trial","72","1339620","0.0-18.0","battery-v0.2","","-1","G","elianto","#f73b6a7A","32","-1","0","-1","1374.5","1","1","","","","","test","16","3","3","lose","go","1"
"pit-trial","73","1343630","0.0-19.0","battery-v0.2","","-1","U","elianto","#3366ff99","-1","-1","1","+10","1413.5","1","1","","","","","test","17","0","2","win","no-go","0"
"pit-trial","74","1346893","0.0-20.0","battery-v0.2","","555.1999998092651","G","elianto","#f73b6a7A","32","32","1","-1","2056.7999999523163","1","1","","","","","test","18","3","3","lose","go","0"
"pit-trial","75","1350287","0.0-21.0","battery-v0.2","","687.1000001430511","L","elianto","#3366ff99","-1","32","0","+1","2188","1","1","","","","","test","19","1","2","win","no-go","0"
"pit-trial","76","1353523","0.0-22.0","battery-v0.2","","529.5","A","elianto","#3366ff99","32","32","1","+10","2030.2000000476837","1","1","","","","","test","20","2","1","win","go","0"
"pit-trial","77","1356643","0.0-23.0","battery-v0.2","","416.2999999523163","U","elianto","#3366ff99","-1","32","0","+1","1916.7000000476837","1","1","","","","","test","21","0","2","win","no-go","0"
"pit-trial","78","1360650","0.0-24.0","battery-v0.2","","-1","L","elianto","#3366ff99","-1","-1","1","+10","","0","1","","","","","test","22","1","2","win","no-go","0"
"pit-trial","79","1363892","0.0-25.0","battery-v0.2","","534.7999999523163","G","elianto","#f73b6a7A","32","32","1","-1","2035.2999999523163","1","1","","","","","test","23","3","3","lose","go","0"
"pit-trial","80","1367017","0.0-26.0","battery-v0.2","","419.60000014305115","A","elianto","#3366ff99","32","32","1","+10","1919.5999999046326","1","1","","","","","test","24","2","1","win","go","0"
"pit-trial","81","1370021","0.0-27.0","battery-v0.2","","296.7999999523163","L","elianto","#3366ff99","-1","32","0","+10","1797.5","1","1","","","","","test","25","1","2","win","no-go","1"
"pit-trial","82","1373490","0.0-28.0","battery-v0.2","","759.9000000953674","A","elianto","#3366ff99","32","32","1","+10","2262.2999999523163","1","1","","","","","test","26","2","1","win","go","0"
"pit-trial","83","1376859","0.0-29.0","battery-v0.2","","659.9000000953674","G","elianto","#f73b6a7A","32","32","1","-1","2161.5","1","1","","","","","test","27","3","3","lose","go","0"
"pit-trial","84","1380871","0.0-30.0","battery-v0.2","","-1","U","elianto","#3366ff99","-1","-1","1","+10","","0","1","","","","","test","28","0","2","win","no-go","0"
"pit-trial","85","1383930","0.0-31.0","battery-v0.2","","352.2000000476837","A","elianto","#3366ff99","32","32","1","+1","1852.5999999046326","1","1","","","","","test","29","2","1","win","go","1"
"pit-trial","86","1387935","0.0-32.0","battery-v0.2","","-1","U","elianto","#3366ff99","-1","-1","1","+10","","0","1","","","","","test","30","0","2","win","no-go","0"
"pit-trial","87","1391197","0.0-33.0","battery-v0.2","","556.2000000476837","G","elianto","#f73b6a7A","32","32","1","-1","2056.4000000953674","1","1","","","","","test","31","3","3","lose","go","0"
"pit-trial","88","1395206","0.0-34.0","battery-v0.2","","-1","L","elianto","#3366ff99","-1","-1","1","+10","","0","1","","","","","test","32","1","2","win","no-go","0"
"pit-trial","89","1398495","0.0-35.0","battery-v0.2","","582.5999999046326","P","elianto","#f73b6a7A","-1","32","0","-10","2084.199999809265","1","1","","","","","test","33","4","4","lose","no-go","0"
"pit-trial","90","1401734","0.0-36.0","battery-v0.2","","534.2000000476837","U","elianto","#3366ff99","-1","32","0","+1","2035.0999999046326","1","1","","","","","test","34","0","2","win","no-go","0"
"pit-trial","91","1405738","0.0-37.0","battery-v0.2","","-1","S","elianto","#f73b6a7A","32","-1","0","-1","","0","1","","","","","test","35","5","3","lose","go","1"
"pit-trial","92","1409287","0.0-38.0","battery-v0.2","","844.2000000476837","A","elianto","#3366ff99","32","32","1","+10","2344.7999999523163","1","1","","","","","test","36","2","1","win","go","0"
"pit-trial","93","1413295","0.0-39.0","battery-v0.2","","-1","A","elianto","#3366ff99","32","-1","0","+1","","0","1","","","","","test","37","2","1","win","go","0"
"pit-trial","94","1416468","0.0-40.0","battery-v0.2","","468.5","U","elianto","#3366ff99","-1","32","0","+10","1968.7999999523163","1","1","","","","","test","38","0","2","win","no-go","1"
"pit-trial","95","1420475","0.0-41.0","battery-v0.2","","-1","S","elianto","#f73b6a7A","32","-1","0","-10","","0","1","","","","","test","39","5","3","lose","go","0"
"pit-trial","96","1423449","0.0-42.0","battery-v0.2","","267.59999990463257","P","elianto","#f73b6a7A","-1","32","0","-1","1768","1","1","","","","","test","40","4","4","lose","no-go","1"
"pit-trial","97","1426937","0.0-43.0","battery-v0.2","","781.7000000476837","A","elianto","#3366ff99","32","32","1","+10","2282.7000000476837","1","1","","","","","test","41","2","1","win","go","0"
"pit-trial","98","1430132","0.0-44.0","battery-v0.2","","489.7999999523163","S","elianto","#f73b6a7A","32","32","1","-1","1989.7000000476837","1","1","","","","","test","42","5","3","lose","go","0"
"pit-trial","99","1434142","0.0-45.0","battery-v0.2","","-1","W","elianto","#3366ff99","-1","-1","1","+10","3308.5999999046326","1","1","","","","","test","43","6","2","win","no-go","0"
"pit-trial","100","1437368","0.0-46.0","battery-v0.2","","521.2999999523163","P","elianto","#f73b6a7A","-1","32","0","-10","2022.3999998569489","1","1","","","","","test","44","4","4","lose","no-go","0"
"pit-trial","101","1440453","0.0-47.0","battery-v0.2","","377.89999985694885","S","elianto","#f73b6a7A","32","32","1","-1","1878","1","1","","","","","test","45","5","3","lose","go","0"
"pit-trial","102","1443732","0.0-48.0","battery-v0.2","","572","A","elianto","#3366ff99","32","32","1","+10","2072.0999999046326","1","1","","","","","test","46","2","1","win","go","0"
"pit-trial","103","1447738","0.0-49.0","battery-v0.2","","-1","P","elianto","#f73b6a7A","-1","-1","1","-10","","0","1","","","","","test","47","4","4","lose","no-go","1"
"pit-trial","104","1450549","0.0-50.0","battery-v0.2","","108.29999995231628","W","elianto","#3366ff99","-1","32","0","+1","1608.3999998569489","1","1","","","","","test","48","6","2","win","no-go","0"
"pit-trial","105","1453739","0.0-51.0","battery-v0.2","","486.10000014305115","P","elianto","#f73b6a7A","-1","32","0","-10","1986.2999999523163","1","1","","","","","test","49","4","4","lose","no-go","0"
"pit-trial","106","1456816","0.0-52.0","battery-v0.2","","371.7999999523163","E","elianto","#f73b6a7A","-1","32","0","-1","1872.2000000476837","1","1","","","","","test","50","7","4","lose","no-go","1"
"pit-trial","107","1460244","0.0-53.0","battery-v0.2","","719.1999998092651","S","elianto","#f73b6a7A","32","32","1","-10","2221.399999856949","1","1","","","","","test","51","5","3","lose","go","1"
"pit-trial","108","1463445","0.0-54.0","battery-v0.2","","494.90000009536743","W","elianto","#3366ff99","-1","32","0","+1","1995.6000001430511","1","1","","","","","test","52","6","2","win","no-go","0"
"pit-trial","109","1466676","0.0-55.0","battery-v0.2","","523","E","elianto","#f73b6a7A","-1","32","0","-10","2024.6000001430511","1","1","","","","","test","53","7","4","lose","no-go","0"
"pit-trial","110","1470046","0.0-56.0","battery-v0.2","","663.2999999523163","W","elianto","#3366ff99","-1","32","0","+1","2164.699999809265","1","1","","","","","test","54","6","2","win","no-go","0"
"pit-trial","111","1472767","0.0-57.0","battery-v0.2","","18.40000009536743","P","elianto","#f73b6a7A","-1","32","0","-1","1518.3999998569489","1","1","","","","","test","55","4","4","lose","no-go","1"
"pit-trial","112","1476778","0.0-58.0","battery-v0.2","","-1","S","elianto","#f73b6a7A","32","-1","0","-10","","0","1","","","","","test","56","5","3","lose","go","0"
"pit-trial","113","1480783","0.0-59.0","battery-v0.2","","-1","S","elianto","#f73b6a7A","32","-1","0","-10","","0","1","","","","","test","57","5","3","lose","go","0"
"pit-trial","114","1484792","0.0-60.0","battery-v0.2","","-1","E","elianto","#f73b6a7A","-1","-1","1","-1","","0","1","","","","","test","58","7","4","lose","no-go","0"
"pit-trial","115","1488802","0.0-61.0","battery-v0.2","","-1","P","elianto","#f73b6a7A","-1","-1","1","-1","","0","1","","","","","test","59","4","4","lose","no-go","0"
"pit-trial","116","1492811","0.0-62.0","battery-v0.2","","-1","W","elianto","#3366ff99","-1","-1","1","+10","","0","1","","","","","test","60","6","2","win","no-go","0"
"pit-trial","117","1496820","0.0-63.0","battery-v0.2","","-1","S","elianto","#f73b6a7A","32","-1","0","-10","","0","1","","","","","test","61","5","3","lose","go","0"
"pit-trial","118","1500830","0.0-64.0","battery-v0.2","","-1","W","elianto","#3366ff99","-1","-1","1","+10","","0","1","","","","","test","62","6","2","win","no-go","0"
"pit-trial","119","1504839","0.0-65.0","battery-v0.2","","-1","P","elianto","#f73b6a7A","-1","-1","1","-1","","0","1","","","","","test","63","4","4","lose","no-go","0"
"pit-trial","120","1508849","0.0-66.0","battery-v0.2","","-1","E","elianto","#f73b6a7A","-1","-1","1","-1","","0","1","","","","","test","64","7","4","lose","no-go","0"
"pit-trial","121","1512857","0.0-67.0","battery-v0.2","","-1","P","elianto","#f73b6a7A","-1","-1","1","-10","","0","1","","","","","test","65","4","4","lose","no-go","1"
"pit-trial","122","1516868","0.0-68.0","battery-v0.2","","-1","S","elianto","#f73b6a7A","32","-1","0","-1","","0","1","","","","","test","66","5","3","lose","go","1"
"pit-trial","123","1520879","0.0-69.0","battery-v0.2","","-1","W","elianto","#3366ff99","-1","-1","1","+10","","0","1","","","","","test","67","6","2","win","no-go","0"
"pit-trial","124","1524892","0.0-70.0","battery-v0.2","","-1","E","elianto","#f73b6a7A","-1","-1","1","-1","","0","1","","","","","test","68","7","4","lose","no-go","0"
"pit-trial","125","1528899","0.0-71.0","battery-v0.2","","-1","P","elianto","#f73b6a7A","-1","-1","1","-1","","0","1","","","","","test","69","4","4","lose","no-go","0"
"pit-trial","126","1532908","0.0-72.0","battery-v0.2","","-1","S","elianto","#f73b6a7A","32","-1","0","-10","","0","1","","","","","test","70","5","3","lose","go","0"
"pit-trial","127","1536919","0.0-73.0","battery-v0.2","","-1","E","elianto","#f73b6a7A","-1","-1","1","-1","","0","1","","","","","test","71","7","4","lose","no-go","0"
"pit-trial","128","1540930","0.0-74.0","battery-v0.2","","-1","W","elianto","#3366ff99","-1","-1","1","+10","","0","1","","","","","test","72","6","2","win","no-go","0"
"pit-trial","129","1544938","0.0-75.0","battery-v0.2","","-1","K","elianto","#f73b6a7A","-1","-1","1","-1","","0","1","","","","","test","73","8","4","lose","no-go","0"
"pit-trial","130","1548949","0.0-76.0","battery-v0.2","","-1","S","elianto","#f73b6a7A","32","-1","0","-10","","0","1","","","","","test","74","5","3","lose","go","0"
"pit-trial","131","1552960","0.0-77.0","battery-v0.2","","-1","W","elianto","#3366ff99","-1","-1","1","+10","","0","1","","","","","test","75","6","2","win","no-go","0"
"pit-trial","132","1556964","0.0-78.0","battery-v0.2","","-1","E","elianto","#f73b6a7A","-1","-1","1","-1","","0","1","","","","","test","76","7","4","lose","no-go","0"
"pit-trial","133","1560972","0.0-79.0","battery-v0.2","","-1","W","elianto","#3366ff99","-1","-1","1","+1","","0","1","","","","","test","77","6","2","win","no-go","1"
"pit-trial","134","1564985","0.0-80.0","battery-v0.2","","-1","E","elianto","#f73b6a7A","-1","-1","1","-1","","0","1","","","","","test","78","7","4","lose","no-go","0"
"pit-trial","135","1568996","0.0-81.0","battery-v0.2","","-1","S","elianto","#f73b6a7A","32","-1","0","-1","","0","1","","","","","test","79","5","3","lose","go","1"
"pit-trial","136","1573007","0.0-82.0","battery-v0.2","","-1","K","elianto","#f73b6a7A","-1","-1","1","-1","","0","1","","","","","test","80","8","4","lose","no-go","0"
"pit-trial","137","1577013","0.0-83.0","battery-v0.2","","-1","D","elianto","#3366ff99","32","-1","0","+1","","0","1","","","","","test","81","9","1","win","go","0"
"pit-trial","138","1581020","0.0-84.0","battery-v0.2","","-1","J","elianto","#f73b6a7A","32","-1","0","-10","","0","1","","","","","test","82","10","3","lose","go","0"
"pit-trial","139","1585029","0.0-85.0","battery-v0.2","","-1","K","elianto","#f73b6a7A","-1","-1","1","-1","","0","1","","","","","test","83","8","4","lose","no-go","0"
"pit-trial","140","1589038","0.0-86.0","battery-v0.2","","-1","W","elianto","#3366ff99","-1","-1","1","+1","","0","1","","","","","test","84","6","2","win","no-go","1"
"pit-trial","141","1593050","0.0-87.0","battery-v0.2","","-1","K","elianto","#f73b6a7A","-1","-1","1","-1","","0","1","","","","","test","85","8","4","lose","no-go","0"
"pit-trial","142","1597059","0.0-88.0","battery-v0.2","","-1","J","elianto","#f73b6a7A","32","-1","0","-10","","0","1","","","","","test","86","10","3","lose","go","0"
"pit-trial","143","1601068","0.0-89.0","battery-v0.2","","-1","W","elianto","#3366ff99","-1","-1","1","+10","","0","1","","","","","test","87","6","2","win","no-go","0"
"pit-trial","144","1605080","0.0-90.0","battery-v0.2","","-1","D","elianto","#3366ff99","32","-1","0","+1","","0","1","","","","","test","88","9","1","win","go","0"
"pit-trial","145","1609088","0.0-91.0","battery-v0.2","","-1","K","elianto","#f73b6a7A","-1","-1","1","-1","","0","1","","","","","test","89","8","4","lose","no-go","0"
"pit-trial","146","1613100","0.0-92.0","battery-v0.2","","-1","D","elianto","#3366ff99","32","-1","0","+1","","0","1","","","","","test","90","9","1","win","go","0"
"pit-trial","147","1617111","0.0-93.0","battery-v0.2","","-1","V","elianto","#3366ff99","32","-1","0","+1","","0","1","","","","","test","91","11","1","win","go","0"
"pit-trial","148","1621117","0.0-94.0","battery-v0.2","","-1","J","elianto","#f73b6a7A","32","-1","0","-10","","0","1","","","","","test","92","10","3","lose","go","0"
"pit-trial","149","1625128","0.0-95.0","battery-v0.2","","-1","V","elianto","#3366ff99","32","-1","0","+1","","0","1","","","","","test","93","11","1","win","go","0"
"pit-trial","150","1629134","0.0-96.0","battery-v0.2","","-1","D","elianto","#3366ff99","32","-1","0","+10","","0","1","","","","","test","94","9","1","win","go","1"
"pit-trial","151","1633145","0.0-97.0","battery-v0.2","","-1","K","elianto","#f73b6a7A","-1","-1","1","-1","","0","1","","","","","test","95","8","4","lose","no-go","0"
"pit-trial","152","1637155","0.0-98.0","battery-v0.2","","-1","J","elianto","#f73b6a7A","32","-1","0","-1","","0","1","","","","","test","96","10","3","lose","go","1"
"pit-trial","153","1641166","0.0-99.0","battery-v0.2","","-1","J","elianto","#f73b6a7A","32","-1","0","-10","","0","1","","","","","test","97","10","3","lose","go","0"
"pit-trial","154","1645172","0.0-100.0","battery-v0.2","","-1","V","elianto","#3366ff99","32","-1","0","+1","","0","1","","","","","test","98","11","1","win","go","0"
"pit-trial","155","1649182","0.0-101.0","battery-v0.2","","-1","K","elianto","#f73b6a7A","-1","-1","1","-10","","0","1","","","","","test","99","8","4","lose","no-go","1"
"pit-trial","156","1653190","0.0-102.0","battery-v0.2","","-1","D","elianto","#3366ff99","32","-1","0","+1","","0","1","","","","","test","100","9","1","win","go","0"
"pit-trial","157","1657201","0.0-103.0","battery-v0.2","","-1","V","elianto","#3366ff99","32","-1","0","+10","","0","1","","","","","test","101","11","1","win","go","1"
"pit-trial","158","1661210","0.0-104.0","battery-v0.2","","-1","J","elianto","#f73b6a7A","32","-1","0","-10","","0","1","","","","","test","102","10","3","lose","go","0"
"pit-trial","159","1665220","0.0-105.0","battery-v0.2","","-1","K","elianto","#f73b6a7A","-1","-1","1","-1","","0","1","","","","","test","103","8","4","lose","no-go","0"
"pit-trial","160","1669231","0.0-106.0","battery-v0.2","","-1","D","elianto","#3366ff99","32","-1","0","+1","","0","1","","","","","test","104","9","1","win","go","0"
"pit-trial","161","1673238","0.0-107.0","battery-v0.2","","-1","V","elianto","#3366ff99","32","-1","0","+10","","0","1","","","","","test","105","11","1","win","go","1"
"pit-trial","162","1677244","0.0-108.0","battery-v0.2","","-1","D","elianto","#3366ff99","32","-1","0","+1","","0","1","","","","","test","106","9","1","win","go","0"
"pit-trial","163","1681253","0.0-109.0","battery-v0.2","","-1","K","elianto","#f73b6a7A","-1","-1","1","-1","","0","1","","","","","test","107","8","4","lose","no-go","0"
"pit-trial","164","1685260","0.0-110.0","battery-v0.2","","-1","J","elianto","#f73b6a7A","32","-1","0","-1","","0","1","","","","","test","108","10","3","lose","go","1"
"pit-trial","165","1689270","0.0-111.0","battery-v0.2","","-1","J","elianto","#f73b6a7A","32","-1","0","-10","","0","1","","","","","test","109","10","3","lose","go","0"
"pit-trial","166","1693277","0.0-112.0","battery-v0.2","","-1","V","elianto","#3366ff99","32","-1","0","+1","","0","1","","","","","test","110","11","1","win","go","0"
"pit-trial","167","1697283","0.0-113.0","battery-v0.2","","-1","K","elianto","#f73b6a7A","-1","-1","1","-1","","0","1","","","","","test","111","8","4","lose","no-go","0"
"pit-trial","168","1701293","0.0-114.0","battery-v0.2","","-1","D","elianto","#3366ff99","32","-1","0","+1","","0","1","","","","","test","112","9","1","win","go","0"
"pit-trial","169","1705301","0.0-115.0","battery-v0.2","","-1","K","elianto","#f73b6a7A","-1","-1","1","-1","","0","1","","","","","test","113","8","4","lose","no-go","0"
"pit-trial","170","1709310","0.0-116.0","battery-v0.2","","-1","D","elianto","#3366ff99","32","-1","0","+1","","0","1","","","","","test","114","9","1","win","go","0"
"pit-trial","171","1713319","0.0-117.0","battery-v0.2","","-1","J","elianto","#f73b6a7A","32","-1","0","-10","","0","1","","","","","test","115","10","3","lose","go","0"
"pit-trial","172","1717329","0.0-118.0","battery-v0.2","","-1","V","elianto","#3366ff99","32","-1","0","+1","","0","1","","","","","test","116","11","1","win","go","0"
"pit-trial","173","1721336","0.0-119.0","battery-v0.2","","-1","V","elianto","#3366ff99","32","-1","0","+1","","0","1","","","","","test","117","11","1","win","go","0"
"pit-trial","174","1725346","0.0-120.0","battery-v0.2","","-1","J","elianto","#f73b6a7A","32","-1","0","-1","","0","1","","","","","test","118","10","3","lose","go","1"
"pit-trial","175","1729356","0.0-121.0","battery-v0.2","","-1","K","elianto","#f73b6a7A","-1","-1","1","-1","","0","1","","","","","test","119","8","4","lose","no-go","0"
"pit-trial","176","1733361","0.0-122.0","battery-v0.2","","-1","D","elianto","#3366ff99","32","-1","0","+1","","0","1","","","","","test","120","9","1","win","go","0"
"pit-instructions","177","1744450","0.0-123.0","battery-v0.2","[{""page_index"":0,""viewing_time"":9078.699999809265},{""page_index"":1,""viewing_time"":2006.9000000953674}]","11086.299999952316","","","","","","","","","","","","","","","","","","","","",""
"pit-trial","178","1748459","0.0-124.0","battery-v0.2","","-1","Q","elianto","#3366ff99","-1","-1","1","+10","","0","2","","","","","test","121","0","2","win","no-go","0"
"pit-trial","179","1752463","0.0-125.0","battery-v0.2","","-1","F","elianto","#f73b6a7A","-1","-1","1","-1","","0","2","","","","","test","122","2","4","lose","no-go","0"
"pit-trial","180","1756472","0.0-126.0","battery-v0.2","","-1","N","elianto","#f73b6a7A","32","-1","0","-10","","0","2","","","","","test","123","1","3","lose","go","0"
"pit-trial","181","1760480","0.0-127.0","battery-v0.2","","-1","X","elianto","#3366ff99","32","-1","0","+10","","0","2","","","","","test","124","3","1","win","go","1"
"pit-trial","182","1764085","0.0-128.0","battery-v0.2","","902.5999999046326","Q","elianto","#3366ff99","-1","32","0","+1","2402.9000000953674","1","2","","","","","test","125","0","2","win","no-go","0"
"pit-trial","183","1766945","0.0-129.0","battery-v0.2","","153.90000009536743","N","elianto","#f73b6a7A","32","32","1","-1","1654.5","1","2","","","","","test","126","1","3","lose","go","0"
"pit-trial","184","1770599","0.0-130.0","battery-v0.2","","946.2000000476837","F","elianto","#f73b6a7A","-1","32","0","-10","1214.8999998569489,2447.5999999046326","2","2","","","","","test","127","2","4","lose","no-go","0"
"pit-trial","185","1773847","0.0-131.0","battery-v0.2","","541","X","elianto","#3366ff99","32","32","1","+10","2041.5","1","2","","","","","test","128","3","1","win","go","0"
"pit-trial","186","1777857","0.0-132.0","battery-v0.2","","-1","F","elianto","#f73b6a7A","-1","-1","1","-1","","0","2","","","","","test","129","2","4","lose","no-go","0"
"pit-trial","187","1780925","0.0-133.0","battery-v0.2","","359.39999985694885","X","elianto","#3366ff99","32","32","1","+10","1860.8999998569489","1","2","","","","","test","130","3","1","win","go","0"
"pit-trial","188","1784936","0.0-134.0","battery-v0.2","","-1","Q","elianto","#3366ff99","-1","-1","1","+10","","0","2","","","","","test","131","0","2","win","no-go","0"
"pit-trial","189","1788414","0.0-135.0","battery-v0.2","","772.5999999046326","N","elianto","#f73b6a7A","32","32","1","-1","2273.5999999046326","1","2","","","","","test","132","1","3","lose","go","0"
"pit-trial","190","1791667","0.0-136.0","battery-v0.2","","546.4000000953674","N","elianto","#f73b6a7A","32","32","1","-1","2046.6000001430511","1","2","","","","","test","133","1","3","lose","go","0"
"pit-trial","191","1795675","0.0-137.0","battery-v0.2","","-1","F","elianto","#f73b6a7A","-1","-1","1","-1","","0","2","","","","","test","134","2","4","lose","no-go","0"
"pit-trial","192","1798943","0.0-138.0","battery-v0.2","","562.8000001907349","X","elianto","#3366ff99","32","32","1","+10","2063.5","1","2","","","","","test","135","3","1","win","go","0"
"pit-trial","193","1802950","0.0-139.0","battery-v0.2","","-1","Q","elianto","#3366ff99","-1","-1","1","+10","","0","2","","","","","test","136","0","2","win","no-go","0"
"pit-trial","194","1806254","0.0-140.0","battery-v0.2","","596.7000000476837","N","elianto","#f73b6a7A","32","32","1","-10","2098.300000190735","1","2","","","","","test","137","1","3","lose","go","1"
"pit-trial","195","1810262","0.0-141.0","battery-v0.2","","-1","Q","elianto","#3366ff99","-1","-1","1","+10","","0","2","","","","","test","138","0","2","win","no-go","0"
"pit-trial","196","1813716","0.0-142.0","battery-v0.2","","747.2999999523163","X","elianto","#3366ff99","32","32","1","+10","2247.5,2390.2000000476837","2","2","","","","","test","139","3","1","win","go","0"
"pit-trial","197","1817726","0.0-143.0","battery-v0.2","","-1","F","elianto","#f73b6a7A","-1","-1","1","-1","","0","2","","","","","test","140","2","4","lose","no-go","0"
"pit-trial","198","1821316","0.0-144.0","battery-v0.2","","881.5","Q","elianto","#3366ff99","-1","32","0","+1","2381.7000000476837","1","2","","","","","test","141","0","2","win","no-go","0"
"pit-trial","199","1825328","0.0-145.0","battery-v0.2","","-1","X","elianto","#3366ff99","32","-1","0","+10","","0","2","","","","","test","142","3","1","win","go","1"
"pit-trial","200","1829334","0.0-146.0","battery-v0.2","","-1","N","elianto","#f73b6a7A","32","-1","0","-10","","0","2","","","","","test","143","1","3","lose","go","0"
"pit-trial","201","1833341","0.0-147.0","battery-v0.2","","-1","F","elianto","#f73b6a7A","-1","-1","1","-10","","0","2","","","","","test","144","2","4","lose","no-go","1"
"pit-trial","202","1837349","0.0-148.0","battery-v0.2","","-1","N","elianto","#f73b6a7A","32","-1","0","-10","","0","2","","","","","test","145","1","3","lose","go","0"
"pit-trial","203","1841357","0.0-149.0","battery-v0.2","","-1","Q","elianto","#3366ff99","-1","-1","1","+10","","0","2","","","","","test","146","0","2","win","no-go","0"
"pit-trial","204","1845362","0.0-150.0","battery-v0.2","","-1","X","elianto","#3366ff99","32","-1","0","+1","","0","2","","","","","test","147","3","1","win","go","0"
"pit-trial","205","1849370","0.0-151.0","battery-v0.2","","-1","F","elianto","#f73b6a7A","-1","-1","1","-1","","0","2","","","","","test","148","2","4","lose","no-go","0"
"pit-trial","206","1853377","0.0-152.0","battery-v0.2","","-1","F","elianto","#f73b6a7A","-1","-1","1","-1","","0","2","","","","","test","149","2","4","lose","no-go","0"
"pit-trial","207","1857386","0.0-153.0","battery-v0.2","","-1","Q","elianto","#3366ff99","-1","-1","1","+10","","0","2","","","","","test","150","0","2","win","no-go","0"
"pit-trial","208","1861393","0.0-154.0","battery-v0.2","","-1","X","elianto","#3366ff99","32","-1","0","+1","","0","2","","","","","test","151","3","1","win","go","0"
"pit-trial","209","1865400","0.0-155.0","battery-v0.2","","-1","N","elianto","#f73b6a7A","32","-1","0","-10","","0","2","","","","","test","152","1","3","lose","go","0"
"pit-trial","210","1868470","0.0-156.0","battery-v0.2","","363.09999990463257","T","elianto","#f73b6a7A","32","32","1","-1","986.5,1863.5","2","2","","","","","test","153","4","3","lose","go","0"
"pit-trial","211","1872475","0.0-157.0","battery-v0.2","","-1","N","elianto","#f73b6a7A","32","-1","0","-10","","0","2","","","","","test","154","1","3","lose","go","0"
"pit-trial","212","1876481","0.0-158.0","battery-v0.2","","-1","B","elianto","#f73b6a7A","-1","-1","1","-1","","0","2","","","","","test","155","5","4","lose","no-go","0"
"pit-trial","213","1880490","0.0-159.0","battery-v0.2","","-1","F","elianto","#f73b6a7A","-1","-1","1","-10","","0","2","","","","","test","156","2","4","lose","no-go","1"
"pit-trial","214","1884499","0.0-160.0","battery-v0.2","","-1","F","elianto","#f73b6a7A","-1","-1","1","-1","","0","2","","","","","test","157","2","4","lose","no-go","0"
"pit-trial","215","1888511","0.0-161.0","battery-v0.2","","-1","B","elianto","#f73b6a7A","-1","-1","1","-1","","0","2","","","","","test","158","5","4","lose","no-go","0"
"pit-trial","216","1892518","0.0-162.0","battery-v0.2","","-1","T","elianto","#f73b6a7A","32","-1","0","-10","","0","2","","","","","test","159","4","3","lose","go","0"
"pit-trial","217","1896524","0.0-163.0","battery-v0.2","","-1","N","elianto","#f73b6a7A","32","-1","0","-10","","0","2","","","","","test","160","1","3","lose","go","0"
"pit-trial","218","1900534","0.0-164.0","battery-v0.2","","-1","T","elianto","#f73b6a7A","32","-1","0","-10","","0","2","","","","","test","161","4","3","lose","go","0"
"pit-trial","219","1904541","0.0-165.0","battery-v0.2","","-1","F","elianto","#f73b6a7A","-1","-1","1","-1","","0","2","","","","","test","162","2","4","lose","no-go","0"
"pit-trial","220","1908550","0.0-166.0","battery-v0.2","","-1","B","elianto","#f73b6a7A","-1","-1","1","-1","","0","2","","","","","test","163","5","4","lose","no-go","0"
"pit-trial","221","1912558","0.0-167.0","battery-v0.2","","-1","C","elianto","#3366ff99","-1","-1","1","+10","","0","2","","","","","test","164","6","2","win","no-go","0"
"pit-trial","222","1916567","0.0-168.0","battery-v0.2","","-1","B","elianto","#f73b6a7A","-1","-1","1","-10","","0","2","","","","","test","165","5","4","lose","no-go","1"
"pit-trial","223","1920576","0.0-169.0","battery-v0.2","","-1","F","elianto","#f73b6a7A","-1","-1","1","-1","","0","2","","","","","test","166","2","4","lose","no-go","0"
"pit-trial","224","1924582","0.0-170.0","battery-v0.2","","-1","C","elianto","#3366ff99","-1","-1","1","+10","","0","2","","","","","test","167","6","2","win","no-go","0"
"pit-trial","225","1928589","0.0-171.0","battery-v0.2","","-1","T","elianto","#f73b6a7A","32","-1","0","-10","","0","2","","","","","test","168","4","3","lose","go","0"
"pit-trial","226","1932599","0.0-172.0","battery-v0.2","","-1","Z","elianto","#3366ff99","32","-1","0","+10","","0","2","","","","","test","169","7","1","win","go","1"
"pit-trial","227","1936610","0.0-173.0","battery-v0.2","","-1","T","elianto","#f73b6a7A","32","-1","0","-1","","0","2","","","","","test","170","4","3","lose","go","1"
"pit-trial","228","1940621","0.0-174.0","battery-v0.2","","-1","B","elianto","#f73b6a7A","-1","-1","1","-1","","0","2","","","","","test","171","5","4","lose","no-go","0"
"pit-trial","229","1944630","0.0-175.0","battery-v0.2","","-1","C","elianto","#3366ff99","-1","-1","1","+10","","0","2","","","","","test","172","6","2","win","no-go","0"
"pit-trial","230","1948641","0.0-176.0","battery-v0.2","","-1","T","elianto","#f73b6a7A","32","-1","0","-10","","0","2","","","","","test","173","4","3","lose","go","0"
"pit-trial","231","1952646","0.0-177.0","battery-v0.2","","-1","C","elianto","#3366ff99","-1","-1","1","+10","","0","2","","","","","test","174","6","2","win","no-go","0"
"pit-trial","232","1956655","0.0-178.0","battery-v0.2","","-1","Z","elianto","#3366ff99","32","-1","0","+1","","0","2","","","","","test","175","7","1","win","go","0"
"pit-trial","233","1960664","0.0-179.0","battery-v0.2","","-1","B","elianto","#f73b6a7A","-1","-1","1","-1","","0","2","","","","","test","176","5","4","lose","no-go","0"
"pit-trial","234","1964672","0.0-180.0","battery-v0.2","","-1","Z","elianto","#3366ff99","32","-1","0","+1","","0","2","","","","","test","177","7","1","win","go","0"
"pit-trial","235","1968682","0.0-181.0","battery-v0.2","","-1","T","elianto","#f73b6a7A","32","-1","0","-10","","0","2","","","","","test","178","4","3","lose","go","0"
"pit-trial","236","1972691","0.0-182.0","battery-v0.2","","-1","B","elianto","#f73b6a7A","-1","-1","1","-1","","0","2","","","","","test","179","5","4","lose","no-go","0"
"pit-trial","237","1976702","0.0-183.0","battery-v0.2","","-1","C","elianto","#3366ff99","-1","-1","1","+10","","0","2","","","","","test","180","6","2","win","no-go","0"
"pit-trial","238","1980710","0.0-184.0","battery-v0.2","","-1","T","elianto","#f73b6a7A","32","-1","0","-10","","0","2","","","","","test","181","4","3","lose","go","0"
"pit-trial","239","1984721","0.0-185.0","battery-v0.2","","-1","B","elianto","#f73b6a7A","-1","-1","1","-1","","0","2","","","","","test","182","5","4","lose","no-go","0"
"pit-trial","240","1988730","0.0-186.0","battery-v0.2","","-1","Z","elianto","#3366ff99","32","-1","0","+1","","0","2","","","","","test","183","7","1","win","go","0"
"pit-trial","241","1992740","0.0-187.0","battery-v0.2","","-1","C","elianto","#3366ff99","-1","-1","1","+10","","0","2","","","","","test","184","6","2","win","no-go","0"
"pit-trial","242","1996749","0.0-188.0","battery-v0.2","","-1","B","elianto","#f73b6a7A","-1","-1","1","-1","","0","2","","","","","test","185","5","4","lose","no-go","0"
"pit-trial","243","2000757","0.0-189.0","battery-v0.2","","-1","T","elianto","#f73b6a7A","32","-1","0","-10","","0","2","","","","","test","186","4","3","lose","go","0"
"pit-trial","244","2004767","0.0-190.0","battery-v0.2","","-1","Z","elianto","#3366ff99","32","-1","0","+1","","0","2","","","","","test","187","7","1","win","go","0"
"pit-trial","245","2008780","0.0-191.0","battery-v0.2","","-1","C","elianto","#3366ff99","-1","-1","1","+10","","0","2","","","","","test","188","6","2","win","no-go","0"
"pit-trial","246","2012788","0.0-192.0","battery-v0.2","","-1","C","elianto","#3366ff99","-1","-1","1","+1","","0","2","","","","","test","189","6","2","win","no-go","1"
"pit-trial","247","2016796","0.0-193.0","battery-v0.2","","-1","Z","elianto","#3366ff99","32","-1","0","+1","","0","2","","","","","test","190","7","1","win","go","0"
"pit-trial","248","2020804","0.0-194.0","battery-v0.2","","-1","B","elianto","#f73b6a7A","-1","-1","1","-1","","0","2","","","","","test","191","5","4","lose","no-go","0"
"pit-trial","249","2024812","0.0-195.0","battery-v0.2","","-1","T","elianto","#f73b6a7A","32","-1","0","-10","","0","2","","","","","test","192","4","3","lose","go","0"
"pit-trial","250","2028822","0.0-196.0","battery-v0.2","","-1","H","elianto","#3366ff99","32","-1","0","+1","","0","2","","","","","test","193","8","1","win","go","0"
"pit-trial","251","2032830","0.0-197.0","battery-v0.2","","-1","T","elianto","#f73b6a7A","32","-1","0","-10","","0","2","","","","","test","194","4","3","lose","go","0"
"pit-trial","252","2036840","0.0-198.0","battery-v0.2","","-1","Z","elianto","#3366ff99","32","-1","0","+1","","0","2","","","","","test","195","7","1","win","go","0"
"pit-trial","253","2040850","0.0-199.0","battery-v0.2","","-1","C","elianto","#3366ff99","-1","-1","1","+10","","0","2","","","","","test","196","6","2","win","no-go","0"
"pit-trial","254","2044856","0.0-200.0","battery-v0.2","","-1","C","elianto","#3366ff99","-1","-1","1","+10","","0","2","","","","","test","197","6","2","win","no-go","0"
"pit-trial","255","2048870","0.0-201.0","battery-v0.2","","-1","Z","elianto","#3366ff99","32","-1","0","+1","","0","2","","","","","test","198","7","1","win","go","0"
"pit-trial","256","2052879","0.0-202.0","battery-v0.2","","-1","H","elianto","#3366ff99","32","-1","0","+1","","0","2","","","","","test","199","8","1","win","go","0"
"pit-trial","257","2056890","0.0-203.0","battery-v0.2","","-1","T","elianto","#f73b6a7A","32","-1","0","-10","","0","2","","","","","test","200","4","3","lose","go","0"
"pit-trial","258","2060903","0.0-204.0","battery-v0.2","","-1","Z","elianto","#3366ff99","32","-1","0","+1","","0","2","","","","","test","201","7","1","win","go","0"
"pit-trial","259","2064913","0.0-205.0","battery-v0.2","","-1","Y","elianto","#3366ff99","-1","-1","1","+10","","0","2","","","","","test","202","9","2","win","no-go","0"
"pit-trial","260","2068921","0.0-206.0","battery-v0.2","","-1","C","elianto","#3366ff99","-1","-1","1","+10","","0","2","","","","","test","203","6","2","win","no-go","0"
"pit-trial","261","2072928","0.0-207.0","battery-v0.2","","-1","H","elianto","#3366ff99","32","-1","0","+10","","0","2","","","","","test","204","8","1","win","go","1"
"pit-trial","262","2076935","0.0-208.0","battery-v0.2","","-1","H","elianto","#3366ff99","32","-1","0","+1","","0","2","","","","","test","205","8","1","win","go","0"
"pit-trial","263","2080941","0.0-209.0","battery-v0.2","","-1","C","elianto","#3366ff99","-1","-1","1","+10","","0","2","","","","","test","206","6","2","win","no-go","0"
"pit-trial","264","2084950","0.0-210.0","battery-v0.2","","-1","Y","elianto","#3366ff99","-1","-1","1","+1","","0","2","","","","","test","207","9","2","win","no-go","1"
"pit-trial","265","2088957","0.0-211.0","battery-v0.2","","-1","Z","elianto","#3366ff99","32","-1","0","+1","","0","2","","","","","test","208","7","1","win","go","0"
"pit-trial","266","2092967","0.0-212.0","battery-v0.2","","-1","Y","elianto","#3366ff99","-1","-1","1","+10","","0","2","","","","","test","209","9","2","win","no-go","0"
"pit-trial","267","2096978","0.0-213.0","battery-v0.2","","-1","R","elianto","#f73b6a7A","32","-1","0","-1","","0","2","","","","","test","210","10","3","lose","go","1"
"pit-trial","268","2100987","0.0-214.0","battery-v0.2","","-1","H","elianto","#3366ff99","32","-1","0","+1","","0","2","","","","","test","211","8","1","win","go","0"
"pit-trial","269","2104994","0.0-215.0","battery-v0.2","","-1","M","elianto","#f73b6a7A","-1","-1","1","-1","","0","2","","","","","test","212","11","4","lose","no-go","0"
"pit-trial","270","2109001","0.0-216.0","battery-v0.2","","-1","Y","elianto","#3366ff99","-1","-1","1","+10","","0","2","","","","","test","213","9","2","win","no-go","0"
"pit-trial","271","2113008","0.0-217.0","battery-v0.2","","-1","H","elianto","#3366ff99","32","-1","0","+1","","0","2","","","","","test","214","8","1","win","go","0"
"pit-trial","272","2117013","0.0-218.0","battery-v0.2","","-1","M","elianto","#f73b6a7A","-1","-1","1","-1","","0","2","","","","","test","215","11","4","lose","no-go","0"
"pit-trial","273","2121023","0.0-219.0","battery-v0.2","","-1","R","elianto","#f73b6a7A","32","-1","0","-10","","0","2","","","","","test","216","10","3","lose","go","0"
"pit-trial","274","2125034","0.0-220.0","battery-v0.2","","-1","Y","elianto","#3366ff99","-1","-1","1","+1","","0","2","","","","","test","217","9","2","win","no-go","1"
"pit-trial","275","2129045","0.0-221.0","battery-v0.2","","-1","R","elianto","#f73b6a7A","32","-1","0","-10","","0","2","","","","","test","218","10","3","lose","go","0"
"pit-trial","276","2133055","0.0-222.0","battery-v0.2","","-1","H","elianto","#3366ff99","32","-1","0","+10","","0","2","","","","","test","219","8","1","win","go","1"
"pit-trial","277","2137064","0.0-223.0","battery-v0.2","","-1","M","elianto","#f73b6a7A","-1","-1","1","-1","","0","2","","","","","test","220","11","4","lose","no-go","0"
"pit-trial","278","2141073","0.0-224.0","battery-v0.2","","-1","Y","elianto","#3366ff99","-1","-1","1","+10","","0","2","","","","","test","221","9","2","win","no-go","0"
"pit-trial","279","2145082","0.0-225.0","battery-v0.2","","-1","H","elianto","#3366ff99","32","-1","0","+1","","0","2","","","","","test","222","8","1","win","go","0"
"pit-trial","280","2149092","0.0-226.0","battery-v0.2","","-1","M","elianto","#f73b6a7A","-1","-1","1","-10","","0","2","","","","","test","223","11","4","lose","no-go","1"
"pit-trial","281","2153101","0.0-227.0","battery-v0.2","","-1","R","elianto","#f73b6a7A","32","-1","0","-10","","0","2","","","","","test","224","10","3","lose","go","0"
"pit-trial","282","2157107","0.0-228.0","battery-v0.2","","-1","M","elianto","#f73b6a7A","-1","-1","1","-1","","0","2","","","","","test","225","11","4","lose","no-go","0"
"pit-trial","283","2161118","0.0-229.0","battery-v0.2","","-1","Y","elianto","#3366ff99","-1","-1","1","+10","","0","2","","","","","test","226","9","2","win","no-go","0"
"pit-trial","284","2165125","0.0-230.0","battery-v0.2","","-1","H","elianto","#3366ff99","32","-1","0","+1","","0","2","","","","","test","227","8","1","win","go","0"
"pit-trial","285","2169134","0.0-231.0","battery-v0.2","","-1","R","elianto","#f73b6a7A","32","-1","0","-10","","0","2","","","","","test","228","10","3","lose","go","0"
"pit-trial","286","2173142","0.0-232.0","battery-v0.2","","-1","Y","elianto","#3366ff99","-1","-1","1","+10","","0","2","","","","","test","229","9","2","win","no-go","0"
"pit-trial","287","2177152","0.0-233.0","battery-v0.2","","-1","R","elianto","#f73b6a7A","32","-1","0","-10","","0","2","","","","","test","230","10","3","lose","go","0"
"pit-trial","288","2181163","0.0-234.0","battery-v0.2","","-1","M","elianto","#f73b6a7A","-1","-1","1","-1","","0","2","","","","","test","231","11","4","lose","no-go","0"
"pit-trial","289","2185172","0.0-235.0","battery-v0.2","","-1","H","elianto","#3366ff99","32","-1","0","+10","","0","2","","","","","test","232","8","1","win","go","1"
"pit-trial","290","2189183","0.0-236.0","battery-v0.2","","-1","M","elianto","#f73b6a7A","-1","-1","1","-1","","0","2","","","","","test","233","11","4","lose","no-go","0"
"pit-trial","291","2193192","0.0-237.0","battery-v0.2","","-1","Y","elianto","#3366ff99","-1","-1","1","+10","","0","2","","","","","test","234","9","2","win","no-go","0"
"pit-trial","292","2197204","0.0-238.0","battery-v0.2","","-1","R","elianto","#f73b6a7A","32","-1","0","-10","","0","2","","","","","test","235","10","3","lose","go","0"
"pit-trial","293","2201215","0.0-239.0","battery-v0.2","","-1","H","elianto","#3366ff99","32","-1","0","+1","","0","2","","","","","test","236","8","1","win","go","0"
"pit-trial","294","2205226","0.0-240.0","battery-v0.2","","-1","R","elianto","#f73b6a7A","32","-1","0","-10","","0","2","","","","","test","237","10","3","lose","go","0"
"pit-trial","295","2209238","0.0-241.0","battery-v0.2","","-1","M","elianto","#f73b6a7A","-1","-1","1","-1","","0","2","","","","","test","238","11","4","lose","no-go","0"
"pit-trial","296","2213246","0.0-242.0","battery-v0.2","","-1","H","elianto","#3366ff99","32","-1","0","+1","","0","2","","","","","test","239","8","1","win","go","0"
"pit-trial","297","2217250","0.0-243.0","battery-v0.2","","-1","Y","elianto","#3366ff99","-1","-1","1","+1","","0","2","","","","","test","240","9","2","win","no-go","1"
