"trial_type","trial_index","time_elapsed","internal_node_id","task_version","rune","rune_set","hex","correct","choice","rt","accuracy","outcome","keys","total_keys","sub","block","trial","stimulus","robot","valence","action","sham"
"pavlovia","0","6","0.0-0.0","battery-v0.2","","","","","","","","","","","","","","","","","",""
"pit-trial","1","4866","0.0-1.0","battery-v0.2","&#9733;","elianto","#3366ff99","-1","-1","-1","1","+10","[]","0","3&age=8&participant_ID=5&order=1","1","1","2","2","win","no-go","0"
"pit-trial","2","9725","0.0-2.0","battery-v0.2","&#9728;","elianto","#f73b6a7A","-1","-1","-1","1","0","[]","0","3&age=8&participant_ID=5&order=1","1","2","0","4","lose","no-go","0"
"pit-trial","3","14585","0.0-3.0","battery-v0.2","&#9752;","elianto","#f73b6a7A","32","-1","-1","0","-10","[]","0","3&age=8&participant_ID=5&order=1","1","3","3","3","lose","go","0"
"pit-trial","4","19440","0.0-4.0","battery-v0.2","&#9730;","elianto","#3366ff99","32","-1","-1","0","+10","[]","0","3&age=8&participant_ID=5&order=1","1","4","1","1","win","go","1"
"pit-trial","5","24297","0.0-5.0","battery-v0.2","&#9752;","elianto","#f73b6a7A","32","-1","-1","0","-10","[]","0","3&age=8&participant_ID=5&order=1","1","5","3","3","lose","go","0"
"pit-trial","6","29154","0.0-6.0","battery-v0.2","&#9730;","elianto","#3366ff99","32","-1","-1","0","+10","[]","0","3&age=8&participant_ID=5&order=1","1","6","1","1","win","go","1"
"pit-trial","7","34082","0.0-7.0","battery-v0.2","&#9728;","elianto","#f73b6a7A","-1","-1","-1","1","0","[]","0","3&age=8&participant_ID=5&order=1","1","7","0","4","lose","no-go","0"
"pit-trial","8","38942","0.0-8.0","battery-v0.2","&#9733;","elianto","#3366ff99","-1","-1","-1","1","+10","[]","0","3&age=8&participant_ID=5&order=1","1","8","2","2","win","no-go","0"
"pit-trial","9","43800","0.0-9.0","battery-v0.2","&#9728;","elianto","#f73b6a7A","-1","-1","-1","1","0","[]","0","3&age=8&participant_ID=5&order=1","1","9","0","4","lose","no-go","0"
"pit-trial","10","48659","0.0-10.0","battery-v0.2","&#9752;","elianto","#f73b6a7A","32","-1","-1","0","-10","[]","0","3&age=8&participant_ID=5&order=1","1","10","3","3","lose","go","0"
"pit-trial","11","53522","0.0-11.0","battery-v0.2","&#9730;","elianto","#3366ff99","32","-1","-1","0","0","[]","0","3&age=8&participant_ID=5&order=1","1","11","1","1","win","go","0"
"pit-trial","12","58383","0.0-12.0","battery-v0.2","&#9733;","elianto","#3366ff99","-1","-1","-1","1","+10","[]","0","3&age=8&participant_ID=5&order=1","1","12","2","2","win","no-go","0"
"pit-trial","13","63246","0.0-13.0","battery-v0.2","&#9752;","elianto","#f73b6a7A","32","-1","-1","0","-10","[]","0","3&age=8&participant_ID=5&order=1","1","13","3","3","lose","go","0"
"pit-trial","14","68106","0.0-14.0","battery-v0.2","&#9730;","elianto","#3366ff99","32","-1","-1","0","+10","[]","0","3&age=8&participant_ID=5&order=1","1","14","1","1","win","go","1"
"pit-trial","15","72966","0.0-15.0","battery-v0.2","&#9733;","elianto","#3366ff99","-1","-1","-1","1","+10","[]","0","3&age=8&participant_ID=5&order=1","1","15","2","2","win","no-go","0"
"pit-trial","16","77828","0.0-16.0","battery-v0.2","&#9728;","elianto","#f73b6a7A","-1","-1","-1","1","0","[]","0","3&age=8&participant_ID=5&order=1","1","16","0","4","lose","no-go","0"
"pit-trial","17","82689","0.0-17.0","battery-v0.2","&#9752;","elianto","#f73b6a7A","32","-1","-1","0","-10","[]","0","3&age=8&participant_ID=5&order=1","1","17","3","3","lose","go","0"
"pit-trial","18","87550","0.0-18.0","battery-v0.2","&#9730;","elianto","#3366ff99","32","-1","-1","0","0","[]","0","3&age=8&participant_ID=5&order=1","1","18","1","1","win","go","0"
"pit-trial","19","92411","0.0-19.0","battery-v0.2","&#9733;","elianto","#3366ff99","-1","-1","-1","1","+10","[]","0","3&age=8&participant_ID=5&order=1","1","19","2","2","win","no-go","0"
"pit-trial","20","97271","0.0-20.0","battery-v0.2","&#9728;","elianto","#f73b6a7A","-1","-1","-1","1","-10","[]","0","3&age=8&participant_ID=5&order=1","1","20","0","4","lose","no-go","1"
"pit-trial","21","102128","0.0-21.0","battery-v0.2","l","elianto","#f73b6a7A","32","-1","-1","0","-10","[]","0","3&age=8&participant_ID=5&order=1","2","21","1","3","lose","go","0"
"pit-trial","22","106986","0.0-22.0","battery-v0.2","u","elianto","#3366ff99","-1","-1","-1","1","+10","[]","0","3&age=8&participant_ID=5&order=1","2","22","0","2","win","no-go","0"
"pit-trial","23","111847","0.0-23.0","battery-v0.2","g","elianto","#3366ff99","32","-1","-1","0","0","[]","0","3&age=8&participant_ID=5&order=1","2","23","3","1","win","go","0"
"pit-trial","24","116707","0.0-24.0","battery-v0.2","a","elianto","#f73b6a7A","-1","-1","-1","1","0","[]","0","3&age=8&participant_ID=5&order=1","2","24","2","4","lose","no-go","0"
"pit-trial","25","121566","0.0-25.0","battery-v0.2","a","elianto","#f73b6a7A","-1","-1","-1","1","-10","[]","0","3&age=8&participant_ID=5&order=1","2","25","2","4","lose","no-go","1"
"pit-trial","26","126427","0.0-26.0","battery-v0.2","l","elianto","#f73b6a7A","32","-1","-1","0","-10","[]","0","3&age=8&participant_ID=5&order=1","2","26","1","3","lose","go","0"
"pit-trial","27","131287","0.0-27.0","battery-v0.2","u","elianto","#3366ff99","-1","-1","-1","1","+10","[]","0","3&age=8&participant_ID=5&order=1","2","27","0","2","win","no-go","0"
"pit-trial","28","136149","0.0-28.0","battery-v0.2","g","elianto","#3366ff99","32","-1","-1","0","+10","[]","0","3&age=8&participant_ID=5&order=1","2","28","3","1","win","go","1"
"pit-trial","29","141007","0.0-29.0","battery-v0.2","l","elianto","#f73b6a7A","32","-1","-1","0","-10","[]","0","3&age=8&participant_ID=5&order=1","2","29","1","3","lose","go","0"
"pit-trial","30","145865","0.0-30.0","battery-v0.2","g","elianto","#3366ff99","32","-1","-1","0","0","[]","0","3&age=8&participant_ID=5&order=1","2","30","3","1","win","go","0"
"pit-trial","31","150724","0.0-31.0","battery-v0.2","u","elianto","#3366ff99","-1","-1","-1","1","+10","[]","0","3&age=8&participant_ID=5&order=1","2","31","0","2","win","no-go","0"
"pit-trial","32","155583","0.0-32.0","battery-v0.2","a","elianto","#f73b6a7A","-1","-1","-1","1","0","[]","0","3&age=8&participant_ID=5&order=1","2","32","2","4","lose","no-go","0"
"pit-trial","33","160439","0.0-33.0","battery-v0.2","l","elianto","#f73b6a7A","32","-1","-1","0","-10","[]","0","3&age=8&participant_ID=5&order=1","2","33","1","3","lose","go","0"
"pit-trial","34","165297","0.0-34.0","battery-v0.2","g","elianto","#3366ff99","32","-1","-1","0","0","[]","0","3&age=8&participant_ID=5&order=1","2","34","3","1","win","go","0"
"pit-trial","35","170157","0.0-35.0","battery-v0.2","u","elianto","#3366ff99","-1","-1","-1","1","+10","[]","0","3&age=8&participant_ID=5&order=1","2","35","0","2","win","no-go","0"
"pit-trial","36","175019","0.0-36.0","battery-v0.2","a","elianto","#f73b6a7A","-1","-1","-1","1","0","[]","0","3&age=8&participant_ID=5&order=1","2","36","2","4","lose","no-go","0"
"pit-trial","37","179874","0.0-37.0","battery-v0.2","a","elianto","#f73b6a7A","-1","-1","-1","1","0","[]","0","3&age=8&participant_ID=5&order=1","2","37","2","4","lose","no-go","0"
"pit-trial","38","184735","0.0-38.0","battery-v0.2","u","elianto","#3366ff99","-1","-1","-1","1","+10","[]","0","3&age=8&participant_ID=5&order=1","2","38","0","2","win","no-go","0"
"pit-trial","39","189592","0.0-39.0","battery-v0.2","g","elianto","#3366ff99","32","-1","-1","0","0","[]","0","3&age=8&participant_ID=5&order=1","2","39","3","1","win","go","0"
"pit-trial","40","194449","0.0-40.0","battery-v0.2","l","elianto","#f73b6a7A","32","-1","-1","0","-10","[]","0","3&age=8&participant_ID=5&order=1","2","40","1","3","lose","go","0"
"pit-trial","41","199308","0.0-41.0","battery-v0.2","g","elianto","#3366ff99","32","-1","-1","0","0","[]","0","3&age=8&participant_ID=5&order=1","2","41","3","1","win","go","0"
"pit-trial","42","204166","0.0-42.0","battery-v0.2","u","elianto","#3366ff99","-1","-1","-1","1","+10","[]","0","3&age=8&participant_ID=5&order=1","2","42","0","2","win","no-go","0"
"pit-trial","43","209023","0.0-43.0","battery-v0.2","l","elianto","#f73b6a7A","32","-1","-1","0","-10","[]","0","3&age=8&participant_ID=5&order=1","2","43","1","3","lose","go","0"
"pit-trial","44","213884","0.0-44.0","battery-v0.2","a","elianto","#f73b6a7A","-1","-1","-1","1","0","[]","0","3&age=8&participant_ID=5&order=1","2","44","2","4","lose","no-go","0"
"pit-trial","45","218742","0.0-45.0","battery-v0.2","g","elianto","#3366ff99","32","-1","-1","0","0","[]","0","3&age=8&participant_ID=5&order=1","2","45","3","1","win","go","0"
"pit-trial","46","223604","0.0-46.0","battery-v0.2","a","elianto","#f73b6a7A","-1","-1","-1","1","0","[]","0","3&age=8&participant_ID=5&order=1","2","46","2","4","lose","no-go","0"
"pit-trial","47","228461","0.0-47.0","battery-v0.2","u","elianto","#3366ff99","-1","-1","-1","1","+10","[]","0","3&age=8&participant_ID=5&order=1","2","47","0","2","win","no-go","0"
"pit-trial","48","233319","0.0-48.0","battery-v0.2","l","elianto","#f73b6a7A","32","-1","-1","0","-10","[]","0","3&age=8&participant_ID=5&order=1","2","48","1","3","lose","go","0"
"pit-trial","49","238177","0.0-49.0","battery-v0.2","u","elianto","#3366ff99","-1","-1","-1","1","+10","[]","0","3&age=8&participant_ID=5&order=1","2","49","0","2","win","no-go","0"
"pit-trial","50","243035","0.0-50.0","battery-v0.2","a","elianto","#f73b6a7A","-1","-1","-1","1","0","[]","0","3&age=8&participant_ID=5&order=1","2","50","2","4","lose","no-go","0"
"pit-trial","51","247893","0.0-51.0","battery-v0.2","g","elianto","#3366ff99","32","-1","-1","0","0","[]","0","3&age=8&participant_ID=5&order=1","2","51","3","1","win","go","0"
"pit-trial","52","252750","0.0-52.0","battery-v0.2","l","elianto","#f73b6a7A","32","-1","-1","0","-10","[]","0","3&age=8&participant_ID=5&order=1","2","52","1","3","lose","go","0"
"pit-trial","53","257609","0.0-53.0","battery-v0.2","a","elianto","#f73b6a7A","-1","-1","-1","1","0","[]","0","3&age=8&participant_ID=5&order=1","2","53","2","4","lose","no-go","0"
"pit-trial","54","262467","0.0-54.0","battery-v0.2","l","elianto","#f73b6a7A","32","-1","-1","0","-10","[]","0","3&age=8&participant_ID=5&order=1","2","54","1","3","lose","go","0"
"pit-trial","55","267324","0.0-55.0","battery-v0.2","s","elianto","#f73b6a7A","-1","-1","-1","1","0","[]","0","3&age=8&participant_ID=5&order=1","2","55","5","4","lose","no-go","0"
"pit-trial","56","272182","0.0-56.0","battery-v0.2","p","elianto","#f73b6a7A","32","-1","-1","0","-10","[]","0","3&age=8&participant_ID=5&order=1","2","56","4","3","lose","go","0"
"pit-trial","57","277040","0.0-57.0","battery-v0.2","l","elianto","#f73b6a7A","32","-1","-1","0","-10","[]","0","3&age=8&participant_ID=5&order=1","2","57","1","3","lose","go","0"
"pit-trial","58","281899","0.0-58.0","battery-v0.2","p","elianto","#f73b6a7A","32","-1","-1","0","-10","[]","0","3&age=8&participant_ID=5&order=1","2","58","4","3","lose","go","0"
"pit-trial","59","286756","0.0-59.0","battery-v0.2","a","elianto","#f73b6a7A","-1","-1","-1","1","0","[]","0","3&age=8&participant_ID=5&order=1","2","59","2","4","lose","no-go","0"
"pit-trial","60","291617","0.0-60.0","battery-v0.2","s","elianto","#f73b6a7A","-1","-1","-1","1","0","[]","0","3&age=8&participant_ID=5&order=1","2","60","5","4","lose","no-go","0"
"pit-trial","61","296477","0.0-61.0","battery-v0.2","s","elianto","#f73b6a7A","-1","-1","-1","1","-10","[]","0","3&age=8&participant_ID=5&order=1","2","61","5","4","lose","no-go","1"
"pit-trial","62","301338","0.0-62.0","battery-v0.2","a","elianto","#f73b6a7A","-1","-1","-1","1","0","[]","0","3&age=8&participant_ID=5&order=1","2","62","2","4","lose","no-go","0"
"pit-trial","63","306196","0.0-63.0","battery-v0.2","p","elianto","#f73b6a7A","32","-1","-1","0","-10","[]","0","3&age=8&participant_ID=5&order=1","2","63","4","3","lose","go","0"
"pit-trial","64","311058","0.0-64.0","battery-v0.2","w","elianto","#3366ff99","-1","-1","-1","1","0","[]","0","3&age=8&participant_ID=5&order=1","2","64","6","2","win","no-go","1"
"pit-trial","65","315920","0.0-65.0","battery-v0.2","a","elianto","#f73b6a7A","-1","-1","-1","1","0","[]","0","3&age=8&participant_ID=5&order=1","2","65","2","4","lose","no-go","0"
"pit-trial","66","320778","0.0-66.0","battery-v0.2","p","elianto","#f73b6a7A","32","-1","-1","0","-10","[]","0","3&age=8&participant_ID=5&order=1","2","66","4","3","lose","go","0"
"pit-trial","67","325636","0.0-67.0","battery-v0.2","s","elianto","#f73b6a7A","-1","-1","-1","1","0","[]","0","3&age=8&participant_ID=5&order=1","2","67","5","4","lose","no-go","0"
"pit-trial","68","330497","0.0-68.0","battery-v0.2","w","elianto","#3366ff99","-1","-1","-1","1","0","[]","0","3&age=8&participant_ID=5&order=1","2","68","6","2","win","no-go","1"
"pit-trial","69","335358","0.0-69.0","battery-v0.2","w","elianto","#3366ff99","-1","-1","-1","1","+10","[]","0","3&age=8&participant_ID=5&order=1","2","69","6","2","win","no-go","0"
"pit-trial","70","340220","0.0-70.0","battery-v0.2","e","elianto","#3366ff99","32","-1","-1","0","0","[]","0","3&age=8&participant_ID=5&order=1","2","70","7","1","win","go","0"
"pit-trial","71","345079","0.0-71.0","battery-v0.2","s","elianto","#f73b6a7A","-1","-1","-1","1","0","[]","0","3&age=8&participant_ID=5&order=1","2","71","5","4","lose","no-go","0"
"pit-trial","72","349942","0.0-72.0","battery-v0.2","p","elianto","#f73b6a7A","32","-1","-1","0","0","[]","0","3&age=8&participant_ID=5&order=1","2","72","4","3","lose","go","1"
"pit-trial","73","354800","0.0-73.0","battery-v0.2","w","elianto","#3366ff99","-1","-1","-1","1","+10","[]","0","3&age=8&participant_ID=5&order=1","2","73","6","2","win","no-go","0"
"pit-trial","74","359659","0.0-74.0","battery-v0.2","s","elianto","#f73b6a7A","-1","-1","-1","1","-10","[]","0","3&age=8&participant_ID=5&order=1","2","74","5","4","lose","no-go","1"
"pit-trial","75","364517","0.0-75.0","battery-v0.2","p","elianto","#f73b6a7A","32","-1","-1","0","-10","[]","0","3&age=8&participant_ID=5&order=1","2","75","4","3","lose","go","0"
"pit-trial","76","369379","0.0-76.0","battery-v0.2","e","elianto","#3366ff99","32","-1","-1","0","0","[]","0","3&age=8&participant_ID=5&order=1","2","76","7","1","win","go","0"
"pit-trial","77","374236","0.0-77.0","battery-v0.2","p","elianto","#f73b6a7A","32","-1","-1","0","-10","[]","0","3&age=8&participant_ID=5&order=1","2","77","4","3","lose","go","0"
"pit-trial","78","379100","0.0-78.0","battery-v0.2","s","elianto","#f73b6a7A","-1","-1","-1","1","0","[]","0","3&age=8&participant_ID=5&order=1","2","78","5","4","lose","no-go","0"
"pit-trial","79","385313","0.0-79.0","battery-v0.2","e","elianto","#3366ff99","32","-1","-1","0","0","[]","0","3&age=8&participant_ID=5&order=1","2","79","7","1","win","go","0"
"pit-trial","80","392049","0.0-80.0","battery-v0.2","w","elianto","#3366ff99","-1","-1","-1","1","+10","[]","0","3&age=8&participant_ID=5&order=1","2","80","6","2","win","no-go","0"
"pit-trial","81","398526","0.0-81.0","battery-v0.2","e","elianto","#3366ff99","32","-1","-1","0","0","[]","0","3&age=8&participant_ID=5&order=1","2","81","7","1","win","go","0"
"pit-trial","82","405501","0.0-82.0","battery-v0.2","s","elianto","#f73b6a7A","-1","-1","-1","1","0","[]","0","3&age=8&participant_ID=5&order=1","2","82","5","4","lose","no-go","0"
"pit-trial","83","412584","0.0-83.0","battery-v0.2","w","elianto","#3366ff99","-1","-1","-1","1","+10","[]","0","3&age=8&participant_ID=5&order=1","2","83","6","2","win","no-go","0"
"pit-trial","84","419685","0.0-84.0","battery-v0.2","p","elianto","#f73b6a7A","32","-1","-1","0","-10","[]","0","3&age=8&participant_ID=5&order=1","2","84","4","3","lose","go","0"
"pit-trial","85","426891","0.0-85.0","battery-v0.2","p","elianto","#f73b6a7A","32","-1","-1","0","-10","[]","0","3&age=8&participant_ID=5&order=1","2","85","4","3","lose","go","0"
"pit-trial","86","433823","0.0-86.0","battery-v0.2","e","elianto","#3366ff99","32","-1","-1","0","0","[]","0","3&age=8&participant_ID=5&order=1","2","86","7","1","win","go","0"
"pit-trial","87","440014","0.0-87.0","battery-v0.2","s","elianto","#f73b6a7A","-1","-1","-1","1","-10","[]","0","3&age=8&participant_ID=5&order=1","2","87","5","4","lose","no-go","1"
"pit-trial","88","446378","0.0-88.0","battery-v0.2","w","elianto","#3366ff99","-1","-1","-1","1","0","[]","0","3&age=8&participant_ID=5&order=1","2","88","6","2","win","no-go","1"
"pit-trial","89","453257","0.0-89.0","battery-v0.2","s","elianto","#f73b6a7A","-1","-1","-1","1","0","[]","0","3&age=8&participant_ID=5&order=1","2","89","5","4","lose","no-go","0"
"pit-trial","90","460019","0.0-90.0","battery-v0.2","e","elianto","#3366ff99","32","-1","-1","0","0","[]","0","3&age=8&participant_ID=5&order=1","2","90","7","1","win","go","0"
"pit-trial","91","466901","0.0-91.0","battery-v0.2","w","elianto","#3366ff99","-1","-1","-1","1","+10","[]","0","3&age=8&participant_ID=5&order=1","2","91","6","2","win","no-go","0"
"pit-trial","92","473793","0.0-92.0","battery-v0.2","p","elianto","#f73b6a7A","32","-1","-1","0","-10","[]","0","3&age=8&participant_ID=5&order=1","2","92","4","3","lose","go","0"
"pit-trial","93","480206","0.0-93.0","battery-v0.2","w","elianto","#3366ff99","-1","-1","-1","1","+10","[]","0","3&age=8&participant_ID=5&order=1","2","93","6","2","win","no-go","0"
"pit-trial","94","487950","0.0-94.0","battery-v0.2","k","elianto","#3366ff99","32","-1","-1","0","0","[]","0","3&age=8&participant_ID=5&order=1","2","94","8","1","win","go","0"
"pit-trial","95","494746","0.0-95.0","battery-v0.2","e","elianto","#3366ff99","32","-1","-1","0","0","[]","0","3&age=8&participant_ID=5&order=1","2","95","7","1","win","go","0"
"pit-trial","96","501014","0.0-96.0","battery-v0.2","p","elianto","#f73b6a7A","32","-1","-1","0","-10","[]","0","3&age=8&participant_ID=5&order=1","2","96","4","3","lose","go","0"
"pit-trial","97","507014","0.0-97.0","battery-v0.2","p","elianto","#f73b6a7A","32","-1","-1","0","-10","[]","0","3&age=8&participant_ID=5&order=1","2","97","4","3","lose","go","0"
"pit-trial","98","513917","0.0-98.0","battery-v0.2","k","elianto","#3366ff99","32","-1","-1","0","+10","[]","0","3&age=8&participant_ID=5&order=1","2","98","8","1","win","go","1"
"pit-trial","99","518778","0.0-99.0","battery-v0.2","w","elianto","#3366ff99","-1","-1","-1","1","0","[]","0","3&age=8&participant_ID=5&order=1","2","99","6","2","win","no-go","1"
"pit-trial","100","523637","0.0-100.0","battery-v0.2","e","elianto","#3366ff99","32","-1","-1","0","0","[]","0","3&age=8&participant_ID=5&order=1","2","100","7","1","win","go","0"
"pit-trial","101","528496","0.0-101.0","battery-v0.2","e","elianto","#3366ff99","32","-1","-1","0","0","[]","0","3&age=8&participant_ID=5&order=1","2","101","7","1","win","go","0"
"pit-trial","102","533356","0.0-102.0","battery-v0.2","k","elianto","#3366ff99","32","-1","-1","0","0","[]","0","3&age=8&participant_ID=5&order=1","2","102","8","1","win","go","0"
"pit-trial","103","538218","0.0-103.0","battery-v0.2","d","elianto","#3366ff99","-1","-1","-1","1","+10","[]","0","3&age=8&participant_ID=5&order=1","2","103","9","2","win","no-go","0"
"pit-trial","104","543077","0.0-104.0","battery-v0.2","w","elianto","#3366ff99","-1","-1","-1","1","0","[]","0","3&age=8&participant_ID=5&order=1","2","104","6","2","win","no-go","1"
"pit-trial","105","547937","0.0-105.0","battery-v0.2","e","elianto","#3366ff99","32","-1","-1","0","0","[]","0","3&age=8&participant_ID=5&order=1","2","105","7","1","win","go","0"
"pit-trial","106","552795","0.0-106.0","battery-v0.2","w","elianto","#3366ff99","-1","-1","-1","1","+10","[]","0","3&age=8&participant_ID=5&order=1","2","106","6","2","win","no-go","0"
"pit-trial","107","557655","0.0-107.0","battery-v0.2","d","elianto","#3366ff99","-1","-1","-1","1","+10","[]","0","3&age=8&participant_ID=5&order=1","2","107","9","2","win","no-go","0"
"pit-trial","108","562519","0.0-108.0","battery-v0.2","k","elianto","#3366ff99","32","-1","-1","0","0","[]","0","3&age=8&participant_ID=5&order=1","2","108","8","1","win","go","0"
"pit-trial","109","567382","0.0-109.0","battery-v0.2","v","elianto","#f73b6a7A","-1","-1","-1","1","0","[]","0","3&age=8&participant_ID=5&order=1","2","109","11","4","lose","no-go","0"
"pit-trial","110","572245","0.0-110.0","battery-v0.2","d","elianto","#3366ff99","-1","-1","-1","1","+10","[]","0","3&age=8&participant_ID=5&order=1","2","110","9","2","win","no-go","0"
"pit-trial","111","577109","0.0-111.0","battery-v0.2","j","elianto","#f73b6a7A","32","-1","-1","0","-10","[]","0","3&age=8&participant_ID=5&order=1","2","111","10","3","lose","go","0"
"pit-trial","112","581968","0.0-112.0","battery-v0.2","k","elianto","#3366ff99","32","-1","-1","0","+10","[]","0","3&age=8&participant_ID=5&order=1","2","112","8","1","win","go","1"
"pit-trial","113","586825","0.0-113.0","battery-v0.2","d","elianto","#3366ff99","-1","-1","-1","1","0","[]","0","3&age=8&participant_ID=5&order=1","2","113","9","2","win","no-go","1"
"pit-trial","114","591687","0.0-114.0","battery-v0.2","k","elianto","#3366ff99","32","-1","-1","0","0","[]","0","3&age=8&participant_ID=5&order=1","2","114","8","1","win","go","0"
"pit-trial","115","596537","0.0-115.0","battery-v0.2","v","elianto","#f73b6a7A","-1","-1","-1","1","0","[]","0","3&age=8&participant_ID=5&order=1","2","115","11","4","lose","no-go","0"
"pit-trial","116","601393","0.0-116.0","battery-v0.2","j","elianto","#f73b6a7A","32","-1","-1","0","0","[]","0","3&age=8&participant_ID=5&order=1","2","116","10","3","lose","go","1"
"pit-trial","117","606251","0.0-117.0","battery-v0.2","d","elianto","#3366ff99","-1","-1","-1","1","+10","[]","0","3&age=8&participant_ID=5&order=1","2","117","9","2","win","no-go","0"
"pit-trial","118","611110","0.0-118.0","battery-v0.2","k","elianto","#3366ff99","32","-1","-1","0","0","[]","0","3&age=8&participant_ID=5&order=1","2","118","8","1","win","go","0"
"pit-trial","119","615963","0.0-119.0","battery-v0.2","j","elianto","#f73b6a7A","32","-1","-1","0","-10","[]","0","3&age=8&participant_ID=5&order=1","2","119","10","3","lose","go","0"
"pit-trial","120","620821","0.0-120.0","battery-v0.2","v","elianto","#f73b6a7A","-1","-1","-1","1","0","[]","0","3&age=8&participant_ID=5&order=1","2","120","11","4","lose","no-go","0"
"pit-trial","121","625682","0.0-121.0","battery-v0.2","d","elianto","#3366ff99","-1","-1","-1","1","+10","[]","0","3&age=8&participant_ID=5&order=1","2","121","9","2","win","no-go","0"
"pit-trial","122","630541","0.0-122.0","battery-v0.2","k","elianto","#3366ff99","32","-1","-1","0","0","[]","0","3&age=8&participant_ID=5&order=1","2","122","8","1","win","go","0"
"pit-trial","123","635401","0.0-123.0","battery-v0.2","v","elianto","#f73b6a7A","-1","-1","-1","1","0","[]","0","3&age=8&participant_ID=5&order=1","2","123","11","4","lose","no-go","0"
"pit-trial","124","640259","0.0-124.0","battery-v0.2","j","elianto","#f73b6a7A","32","-1","-1","0","-10","[]","0","3&age=8&participant_ID=5&order=1","2","124","10","3","lose","go","0"
"pit-trial","125","645115","0.0-125.0","battery-v0.2","v","elianto","#f73b6a7A","-1","-1","-1","1","0","[]","0","3&age=8&participant_ID=5&order=1","2","125","11","4","lose","no-go","0"
"pit-trial","126","649974","0.0-126.0","battery-v0.2","k","elianto","#3366ff99","32","-1","-1","0","+10","[]","0","3&age=8&participant_ID=5&order=1","2","126","8","1","win","go","1"
"pit-trial","127","654835","0.0-127.0","battery-v0.2","j","elianto","#f73b6a7A","32","-1","-1","0","-10","[]","0","3&age=8&participant_ID=5&order=1","2","127","10","3","lose","go","0"
"pit-trial","128","659697","0.0-128.0","battery-v0.2","d","elianto","#3366ff99","-1","-1","-1","1","+10","[]","0","3&age=8&participant_ID=5&order=1","2","128","9","2","win","no-go","0"
"pit-trial","129","664554","0.0-129.0","battery-v0.2","v","elianto","#f73b6a7A","-1","-1","-1","1","0","[]","0","3&age=8&participant_ID=5&order=1","2","129","11","4","lose","no-go","0"
"pit-trial","130","669412","0.0-130.0","battery-v0.2","j","elianto","#f73b6a7A","32","-1","-1","0","-10","[]","0","3&age=8&participant_ID=5&order=1","2","130","10","3","lose","go","0"
"pit-trial","131","674274","0.0-131.0","battery-v0.2","k","elianto","#3366ff99","32","-1","-1","0","0","[]","0","3&age=8&participant_ID=5&order=1","2","131","8","1","win","go","0"
"pit-trial","132","679133","0.0-132.0","battery-v0.2","d","elianto","#3366ff99","-1","-1","-1","1","0","[]","0","3&age=8&participant_ID=5&order=1","2","132","9","2","win","no-go","1"
"pit-trial","133","683994","0.0-133.0","battery-v0.2","j","elianto","#f73b6a7A","32","-1","-1","0","0","[]","0","3&age=8&participant_ID=5&order=1","2","133","10","3","lose","go","1"
"pit-trial","134","688854","0.0-134.0","battery-v0.2","d","elianto","#3366ff99","-1","-1","-1","1","+10","[]","0","3&age=8&participant_ID=5&order=1","2","134","9","2","win","no-go","0"
"pit-trial","135","693718","0.0-135.0","battery-v0.2","v","elianto","#f73b6a7A","-1","-1","-1","1","0","[]","0","3&age=8&participant_ID=5&order=1","2","135","11","4","lose","no-go","0"
"pit-trial","136","698581","0.0-136.0","battery-v0.2","k","elianto","#3366ff99","32","-1","-1","0","+10","[]","0","3&age=8&participant_ID=5&order=1","2","136","8","1","win","go","1"
"pit-trial","137","703439","0.0-137.0","battery-v0.2","v","elianto","#f73b6a7A","-1","-1","-1","1","0","[]","0","3&age=8&participant_ID=5&order=1","2","137","11","4","lose","no-go","0"
"pit-trial","138","708299","0.0-138.0","battery-v0.2","d","elianto","#3366ff99","-1","-1","-1","1","+10","[]","0","3&age=8&participant_ID=5&order=1","2","138","9","2","win","no-go","0"
"pit-trial","139","713156","0.0-139.0","battery-v0.2","j","elianto","#f73b6a7A","32","-1","-1","0","-10","[]","0","3&age=8&participant_ID=5&order=1","2","139","10","3","lose","go","0"
"pit-trial","140","718020","0.0-140.0","battery-v0.2","k","elianto","#3366ff99","32","-1","-1","0","0","[]","0","3&age=8&participant_ID=5&order=1","2","140","8","1","win","go","0"
"pit-trial","141","722880","0.0-141.0","battery-v0.2","r","elianto","#3366ff99","-1","-1","-1","1","+10","[]","0","3&age=8&participant_ID=5&order=1","3","141","1","2","win","no-go","0"
"pit-trial","142","727740","0.0-142.0","battery-v0.2","m","elianto","#3366ff99","-1","-1","-1","1","0","[]","0","3&age=8&participant_ID=5&order=1","3","142","0","2","win","no-go","1"
"pit-trial","143","732604","0.0-143.0","battery-v0.2","h","elianto","#f73b6a7A","32","-1","-1","0","-10","[]","0","3&age=8&participant_ID=5&order=1","3","143","3","3","lose","go","0"
"pit-trial","144","737464","0.0-144.0","battery-v0.2","y","elianto","#3366ff99","32","-1","-1","0","0","[]","0","3&age=8&participant_ID=5&order=1","3","144","2","1","win","go","0"
"pit-trial","145","742327","0.0-145.0","battery-v0.2","m","elianto","#3366ff99","-1","-1","-1","1","+10","[]","0","3&age=8&participant_ID=5&order=1","3","145","0","2","win","no-go","0"
"pit-trial","146","747191","0.0-146.0","battery-v0.2","r","elianto","#3366ff99","-1","-1","-1","1","+10","[]","0","3&age=8&participant_ID=5&order=1","3","146","1","2","win","no-go","0"
"pit-trial","147","752049","0.0-147.0","battery-v0.2","h","elianto","#f73b6a7A","32","-1","-1","0","-10","[]","0","3&age=8&participant_ID=5&order=1","3","147","3","3","lose","go","0"
"pit-trial","148","756913","0.0-148.0","battery-v0.2","y","elianto","#3366ff99","32","-1","-1","0","0","[]","0","3&age=8&participant_ID=5&order=1","3","148","2","1","win","go","0"
"pit-trial","149","761779","0.0-149.0","battery-v0.2","r","elianto","#3366ff99","-1","-1","-1","1","+10","[]","0","3&age=8&participant_ID=5&order=1","3","149","1","2","win","no-go","0"
"pit-trial","150","766647","0.0-150.0","battery-v0.2","h","elianto","#f73b6a7A","32","-1","-1","0","0","[]","0","3&age=8&participant_ID=5&order=1","3","150","3","3","lose","go","1"
"pit-trial","151","771511","0.0-151.0","battery-v0.2","y","elianto","#3366ff99","32","-1","-1","0","0","[]","0","3&age=8&participant_ID=5&order=1","3","151","2","1","win","go","0"
"pit-trial","152","778306","0.0-152.0","battery-v0.2","m","elianto","#3366ff99","-1","-1","-1","1","+10","[]","0","3&age=8&participant_ID=5&order=1","3","152","0","2","win","no-go","0"
"pit-trial","153","785301","0.0-153.0","battery-v0.2","h","elianto","#f73b6a7A","32","-1","-1","0","-10","[]","0","3&age=8&participant_ID=5&order=1","3","153","3","3","lose","go","0"
"pit-trial","154","792450","0.0-154.0","battery-v0.2","r","elianto","#3366ff99","-1","-1","-1","1","+10","[]","0","3&age=8&participant_ID=5&order=1","3","154","1","2","win","no-go","0"
"pit-trial","155","799675","0.0-155.0","battery-v0.2","m","elianto","#3366ff99","-1","-1","-1","1","+10","[]","0","3&age=8&participant_ID=5&order=1","3","155","0","2","win","no-go","0"
"pit-trial","156","806770","0.0-156.0","battery-v0.2","y","elianto","#3366ff99","32","-1","-1","0","0","[]","0","3&age=8&participant_ID=5&order=1","3","156","2","1","win","go","0"
"pit-trial","157","813899","0.0-157.0","battery-v0.2","y","elianto","#3366ff99","32","-1","-1","0","0","[]","0","3&age=8&participant_ID=5&order=1","3","157","2","1","win","go","0"
"pit-trial","158","820711","0.0-158.0","battery-v0.2","r","elianto","#3366ff99","-1","-1","-1","1","+10","[]","0","3&age=8&participant_ID=5&order=1","3","158","1","2","win","no-go","0"
"pit-trial","159","827490","0.0-159.0","battery-v0.2","m","elianto","#3366ff99","-1","-1","-1","1","+10","[]","0","3&age=8&participant_ID=5&order=1","3","159","0","2","win","no-go","0"
"pit-trial","160","834635","0.0-160.0","battery-v0.2","h","elianto","#f73b6a7A","32","-1","-1","0","0","[]","0","3&age=8&participant_ID=5&order=1","3","160","3","3","lose","go","1"
"pit-trial","161","841214","0.0-161.0","battery-v0.2","r","elianto","#3366ff99","-1","-1","-1","1","+10","[]","0","3&age=8&participant_ID=5&order=1","3","161","1","2","win","no-go","0"
"pit-trial","162","848876","0.0-162.0","battery-v0.2","m","elianto","#3366ff99","-1","-1","-1","1","+10","[]","0","3&age=8&participant_ID=5&order=1","3","162","0","2","win","no-go","0"
"pit-trial","163","855555","0.0-163.0","battery-v0.2","h","elianto","#f73b6a7A","32","-1","-1","0","0","[]","0","3&age=8&participant_ID=5&order=1","3","163","3","3","lose","go","1"
"pit-trial","164","862683","0.0-164.0","battery-v0.2","y","elianto","#3366ff99","32","-1","-1","0","0","[]","0","3&age=8&participant_ID=5&order=1","3","164","2","1","win","go","0"
"pit-trial","165","869712","0.0-165.0","battery-v0.2","y","elianto","#3366ff99","32","-1","-1","0","0","[]","0","3&age=8&participant_ID=5&order=1","3","165","2","1","win","go","0"
"pit-trial","166","876907","0.0-166.0","battery-v0.2","m","elianto","#3366ff99","-1","-1","-1","1","+10","[]","0","3&age=8&participant_ID=5&order=1","3","166","0","2","win","no-go","0"
"pit-trial","167","883696","0.0-167.0","battery-v0.2","h","elianto","#f73b6a7A","32","-1","-1","0","0","[]","0","3&age=8&participant_ID=5&order=1","3","167","3","3","lose","go","1"
"pit-trial","168","890748","0.0-168.0","battery-v0.2","r","elianto","#3366ff99","-1","-1","-1","1","0","[]","0","3&age=8&participant_ID=5&order=1","3","168","1","2","win","no-go","1"
"pit-trial","169","897950","0.0-169.0","battery-v0.2","m","elianto","#3366ff99","-1","-1","-1","1","+10","[]","0","3&age=8&participant_ID=5&order=1","3","169","0","2","win","no-go","0"
"pit-trial","170","903979","0.0-170.0","battery-v0.2","h","elianto","#f73b6a7A","32","-1","-1","0","0","[]","0","3&age=8&participant_ID=5&order=1","3","170","3","3","lose","go","1"
"pit-trial","171","910215","0.0-171.0","battery-v0.2","r","elianto","#3366ff99","-1","-1","-1","1","0","[]","0","3&age=8&participant_ID=5&order=1","3","171","1","2","win","no-go","1"
"pit-trial","172","917880","0.0-172.0","battery-v0.2","y","elianto","#3366ff99","32","-1","-1","0","0","[]","0","3&age=8&participant_ID=5&order=1","3","172","2","1","win","go","0"
"pit-trial","173","924758","0.0-173.0","battery-v0.2","m","elianto","#3366ff99","-1","-1","-1","1","0","[]","0","3&age=8&participant_ID=5&order=1","3","173","0","2","win","no-go","1"
"pit-trial","174","931954","0.0-174.0","battery-v0.2","y","elianto","#3366ff99","32","-1","-1","0","0","[]","0","3&age=8&participant_ID=5&order=1","3","174","2","1","win","go","0"
"pit-trial","175","938649","0.0-175.0","battery-v0.2","z","elianto","#f73b6a7A","-1","-1","-1","1","-10","[]","0","3&age=8&participant_ID=5&order=1","3","175","4","4","lose","no-go","1"
"pit-trial","176","945698","0.0-176.0","battery-v0.2","c","elianto","#f73b6a7A","32","-1","-1","0","-10","[]","0","3&age=8&participant_ID=5&order=1","3","176","5","3","lose","go","0"
"pit-trial","177","952850","0.0-177.0","battery-v0.2","c","elianto","#f73b6a7A","32","-1","-1","0","-10","[]","0","3&age=8&participant_ID=5&order=1","3","177","5","3","lose","go","0"
"pit-trial","178","959769","0.0-178.0","battery-v0.2","m","elianto","#3366ff99","-1","-1","-1","1","0","[]","0","3&age=8&participant_ID=5&order=1","3","178","0","2","win","no-go","1"
"pit-trial","179","966901","0.0-179.0","battery-v0.2","z","elianto","#f73b6a7A","-1","-1","-1","1","0","[]","0","3&age=8&participant_ID=5&order=1","3","179","4","4","lose","no-go","0"
"pit-trial","180","973709","0.0-180.0","battery-v0.2","y","elianto","#3366ff99","32","-1","-1","0","0","[]","0","3&age=8&participant_ID=5&order=1","3","180","2","1","win","go","0"
"pit-trial","181","980905","0.0-181.0","battery-v0.2","y","elianto","#3366ff99","32","-1","-1","0","0","[]","0","3&age=8&participant_ID=5&order=1","3","181","2","1","win","go","0"
"pit-trial","182","987656","0.0-182.0","battery-v0.2","z","elianto","#f73b6a7A","-1","-1","-1","1","0","[]","0","3&age=8&participant_ID=5&order=1","3","182","4","4","lose","no-go","0"
"pit-trial","183","994712","0.0-183.0","battery-v0.2","b","elianto","#3366ff99","-1","-1","-1","1","0","[]","0","3&age=8&participant_ID=5&order=1","3","183","6","2","win","no-go","1"
"pit-trial","184","1001807","0.0-184.0","battery-v0.2","c","elianto","#f73b6a7A","32","-1","-1","0","-10","[]","0","3&age=8&participant_ID=5&order=1","3","184","5","3","lose","go","0"
"pit-trial","185","1008174","0.0-185.0","battery-v0.2","b","elianto","#3366ff99","-1","-1","-1","1","+10","[]","0","3&age=8&participant_ID=5&order=1","3","185","6","2","win","no-go","0"
"pit-trial","186","1015898","0.0-186.0","battery-v0.2","z","elianto","#f73b6a7A","-1","-1","-1","1","0","[]","0","3&age=8&participant_ID=5&order=1","3","186","4","4","lose","no-go","0"
"pit-trial","187","1022710","0.0-187.0","battery-v0.2","y","elianto","#3366ff99","32","-1","-1","0","+10","[]","0","3&age=8&participant_ID=5&order=1","3","187","2","1","win","go","1"
"pit-trial","188","1029905","0.0-188.0","battery-v0.2","c","elianto","#f73b6a7A","32","-1","-1","0","-10","[]","0","3&age=8&participant_ID=5&order=1","3","188","5","3","lose","go","0"
"pit-trial","189","1036701","0.0-189.0","battery-v0.2","c","elianto","#f73b6a7A","32","-1","-1","0","-10","[]","0","3&age=8&participant_ID=5&order=1","3","189","5","3","lose","go","0"
"pit-trial","190","1043879","0.0-190.0","battery-v0.2","b","elianto","#3366ff99","-1","-1","-1","1","+10","[]","0","3&age=8&participant_ID=5&order=1","3","190","6","2","win","no-go","0"
"pit-trial","191","1050750","0.0-191.0","battery-v0.2","t","elianto","#f73b6a7A","-1","-1","-1","1","0","[]","0","3&age=8&participant_ID=5&order=1","3","191","7","4","lose","no-go","0"
"pit-trial","192","1057943","0.0-192.0","battery-v0.2","z","elianto","#f73b6a7A","-1","-1","-1","1","-10","[]","0","3&age=8&participant_ID=5&order=1","3","192","4","4","lose","no-go","1"
"pit-trial","193","1064865","0.0-193.0","battery-v0.2","t","elianto","#f73b6a7A","-1","-1","-1","1","-10","[]","0","3&age=8&participant_ID=5&order=1","3","193","7","4","lose","no-go","1"
"pit-trial","194","1071678","0.0-194.0","battery-v0.2","z","elianto","#f73b6a7A","-1","-1","-1","1","0","[]","0","3&age=8&participant_ID=5&order=1","3","194","4","4","lose","no-go","0"
"pit-trial","195","1185869","0.0-195.0","battery-v0.2","c","elianto","#f73b6a7A","32","-1","-1","0","-10","[]","0","3&age=8&participant_ID=5&order=1","3","195","5","3","lose","go","0"
"pit-trial","196","1307315","0.0-196.0","battery-v0.2","b","elianto","#3366ff99","-1","-1","-1","1","+10","[]","0","3&age=8&participant_ID=5&order=1","3","196","6","2","win","no-go","0"
"pit-trial","197","1340972","0.0-197.0","battery-v0.2","t","elianto","#f73b6a7A","-1","-1","-1","1","0","[]","0","3&age=8&participant_ID=5&order=1","3","197","7","4","lose","no-go","0"
"pit-trial","198","1345830","0.0-198.0","battery-v0.2","b","elianto","#3366ff99","-1","-1","-1","1","0","[]","0","3&age=8&participant_ID=5&order=1","3","198","6","2","win","no-go","1"
"pit-trial","199","1350692","0.0-199.0","battery-v0.2","c","elianto","#f73b6a7A","32","-1","-1","0","-10","[]","0","3&age=8&participant_ID=5&order=1","3","199","5","3","lose","go","0"
"pit-trial","200","1355553","0.0-200.0","battery-v0.2","z","elianto","#f73b6a7A","-1","-1","-1","1","0","[]","0","3&age=8&participant_ID=5&order=1","3","200","4","4","lose","no-go","0"
"pit-trial","201","1360406","0.0-201.0","battery-v0.2","b","elianto","#3366ff99","-1","-1","-1","1","+10","[]","0","3&age=8&participant_ID=5&order=1","3","201","6","2","win","no-go","0"
"pit-trial","202","1365267","0.0-202.0","battery-v0.2","c","elianto","#f73b6a7A","32","-1","-1","0","0","[]","0","3&age=8&participant_ID=5&order=1","3","202","5","3","lose","go","1"
"pit-trial","203","1370125","0.0-203.0","battery-v0.2","z","elianto","#f73b6a7A","-1","-1","-1","1","0","[]","0","3&age=8&participant_ID=5&order=1","3","203","4","4","lose","no-go","0"
"pit-trial","204","1374981","0.0-204.0","battery-v0.2","t","elianto","#f73b6a7A","-1","-1","-1","1","0","[]","0","3&age=8&participant_ID=5&order=1","3","204","7","4","lose","no-go","0"
"pit-trial","205","1379840","0.0-205.0","battery-v0.2","t","elianto","#f73b6a7A","-1","-1","-1","1","-10","[]","0","3&age=8&participant_ID=5&order=1","3","205","7","4","lose","no-go","1"
"pit-trial","206","1384699","0.0-206.0","battery-v0.2","z","elianto","#f73b6a7A","-1","-1","-1","1","0","[]","0","3&age=8&participant_ID=5&order=1","3","206","4","4","lose","no-go","0"
"pit-trial","207","1389556","0.0-207.0","battery-v0.2","c","elianto","#f73b6a7A","32","-1","-1","0","0","[]","0","3&age=8&participant_ID=5&order=1","3","207","5","3","lose","go","1"
"pit-trial","208","1394419","0.0-208.0","battery-v0.2","b","elianto","#3366ff99","-1","-1","-1","1","+10","[]","0","3&age=8&participant_ID=5&order=1","3","208","6","2","win","no-go","0"
"pit-trial","209","1399281","0.0-209.0","battery-v0.2","c","elianto","#f73b6a7A","32","-1","-1","0","-10","[]","0","3&age=8&participant_ID=5&order=1","3","209","5","3","lose","go","0"
"pit-trial","210","1404141","0.0-210.0","battery-v0.2","b","elianto","#3366ff99","-1","-1","-1","1","0","[]","0","3&age=8&participant_ID=5&order=1","3","210","6","2","win","no-go","1"
"pit-trial","211","1409004","0.0-211.0","battery-v0.2","t","elianto","#f73b6a7A","-1","-1","-1","1","0","[]","0","3&age=8&participant_ID=5&order=1","3","211","7","4","lose","no-go","0"
"pit-trial","212","1413864","0.0-212.0","battery-v0.2","z","elianto","#f73b6a7A","-1","-1","-1","1","0","[]","0","3&age=8&participant_ID=5&order=1","3","212","4","4","lose","no-go","0"
"pit-trial","213","1418726","0.0-213.0","battery-v0.2","x","elianto","#f73b6a7A","-1","-1","-1","1","0","[]","0","3&age=8&participant_ID=5&order=1","3","213","8","4","lose","no-go","0"
"pit-trial","214","1423586","0.0-214.0","battery-v0.2","c","elianto","#f73b6a7A","32","-1","-1","0","-10","[]","0","3&age=8&participant_ID=5&order=1","3","214","5","3","lose","go","0"
"pit-trial","215","1428444","0.0-215.0","battery-v0.2","t","elianto","#f73b6a7A","-1","-1","-1","1","0","[]","0","3&age=8&participant_ID=5&order=1","3","215","7","4","lose","no-go","0"
"pit-trial","216","1433305","0.0-216.0","battery-v0.2","b","elianto","#3366ff99","-1","-1","-1","1","+10","[]","0","3&age=8&participant_ID=5&order=1","3","216","6","2","win","no-go","0"
"pit-trial","217","1438163","0.0-217.0","battery-v0.2","c","elianto","#f73b6a7A","32","-1","-1","0","-10","[]","0","3&age=8&participant_ID=5&order=1","3","217","5","3","lose","go","0"
"pit-trial","218","1443022","0.0-218.0","battery-v0.2","b","elianto","#3366ff99","-1","-1","-1","1","+10","[]","0","3&age=8&participant_ID=5&order=1","3","218","6","2","win","no-go","0"
"pit-trial","219","1447883","0.0-219.0","battery-v0.2","x","elianto","#f73b6a7A","-1","-1","-1","1","0","[]","0","3&age=8&participant_ID=5&order=1","3","219","8","4","lose","no-go","0"
"pit-trial","220","1452742","0.0-220.0","battery-v0.2","t","elianto","#f73b6a7A","-1","-1","-1","1","0","[]","0","3&age=8&participant_ID=5&order=1","3","220","7","4","lose","no-go","0"
"pit-trial","221","1457602","0.0-221.0","battery-v0.2","b","elianto","#3366ff99","-1","-1","-1","1","+10","[]","0","3&age=8&participant_ID=5&order=1","3","221","6","2","win","no-go","0"
"pit-trial","222","1462462","0.0-222.0","battery-v0.2","f","elianto","#3366ff99","32","-1","-1","0","0","[]","0","3&age=8&participant_ID=5&order=1","3","222","9","1","win","go","0"
"pit-trial","223","1467321","0.0-223.0","battery-v0.2","x","elianto","#f73b6a7A","-1","-1","-1","1","0","[]","0","3&age=8&participant_ID=5&order=1","3","223","8","4","lose","no-go","0"
"pit-trial","224","1472176","0.0-224.0","battery-v0.2","n","elianto","#f73b6a7A","32","-1","-1","0","-10","[]","0","3&age=8&participant_ID=5&order=1","3","224","10","3","lose","go","0"
"pit-trial","225","1477032","0.0-225.0","battery-v0.2","f","elianto","#3366ff99","32","-1","-1","0","0","[]","0","3&age=8&participant_ID=5&order=1","3","225","9","1","win","go","0"
"pit-trial","226","1481892","0.0-226.0","battery-v0.2","b","elianto","#3366ff99","-1","-1","-1","1","0","[]","0","3&age=8&participant_ID=5&order=1","3","226","6","2","win","no-go","1"
"pit-trial","227","1486752","0.0-227.0","battery-v0.2","n","elianto","#f73b6a7A","32","-1","-1","0","-10","[]","0","3&age=8&participant_ID=5&order=1","3","227","10","3","lose","go","0"
"pit-trial","228","1491612","0.0-228.0","battery-v0.2","x","elianto","#f73b6a7A","-1","-1","-1","1","0","[]","0","3&age=8&participant_ID=5&order=1","3","228","8","4","lose","no-go","0"
"pit-trial","229","1496475","0.0-229.0","battery-v0.2","x","elianto","#f73b6a7A","-1","-1","-1","1","0","[]","0","3&age=8&participant_ID=5&order=1","3","229","8","4","lose","no-go","0"
"pit-trial","230","1501330","0.0-230.0","battery-v0.2","q","elianto","#3366ff99","32","-1","-1","0","+10","[]","0","3&age=8&participant_ID=5&order=1","3","230","11","1","win","go","1"
"pit-trial","231","1506190","0.0-231.0","battery-v0.2","n","elianto","#f73b6a7A","32","-1","-1","0","0","[]","0","3&age=8&participant_ID=5&order=1","3","231","10","3","lose","go","1"
"pit-trial","232","1511048","0.0-232.0","battery-v0.2","f","elianto","#3366ff99","32","-1","-1","0","0","[]","0","3&age=8&participant_ID=5&order=1","3","232","9","1","win","go","0"
"pit-trial","233","1515909","0.0-233.0","battery-v0.2","x","elianto","#f73b6a7A","-1","-1","-1","1","0","[]","0","3&age=8&participant_ID=5&order=1","3","233","8","4","lose","no-go","0"
"pit-trial","234","1520769","0.0-234.0","battery-v0.2","f","elianto","#3366ff99","32","-1","-1","0","0","[]","0","3&age=8&participant_ID=5&order=1","3","234","9","1","win","go","0"
"pit-trial","235","1525629","0.0-235.0","battery-v0.2","n","elianto","#f73b6a7A","32","-1","-1","0","-10","[]","0","3&age=8&participant_ID=5&order=1","3","235","10","3","lose","go","0"
"pit-trial","236","1530487","0.0-236.0","battery-v0.2","q","elianto","#3366ff99","32","-1","-1","0","+10","[]","0","3&age=8&participant_ID=5&order=1","3","236","11","1","win","go","1"
"pit-trial","237","1535343","0.0-237.0","battery-v0.2","x","elianto","#f73b6a7A","-1","-1","-1","1","0","[]","0","3&age=8&participant_ID=5&order=1","3","237","8","4","lose","no-go","0"
"pit-trial","238","1540205","0.0-238.0","battery-v0.2","f","elianto","#3366ff99","32","-1","-1","0","0","[]","0","3&age=8&participant_ID=5&order=1","3","238","9","1","win","go","0"
"pit-trial","239","1545063","0.0-239.0","battery-v0.2","q","elianto","#3366ff99","32","-1","-1","0","+10","[]","0","3&age=8&participant_ID=5&order=1","3","239","11","1","win","go","1"
"pit-trial","240","1549924","0.0-240.0","battery-v0.2","n","elianto","#f73b6a7A","32","-1","-1","0","0","[]","0","3&age=8&participant_ID=5&order=1","3","240","10","3","lose","go","1"
"pit-trial","241","1554783","0.0-241.0","battery-v0.2","x","elianto","#f73b6a7A","-1","-1","-1","1","-10","[]","0","3&age=8&participant_ID=5&order=1","3","241","8","4","lose","no-go","1"
"pit-trial","242","1559642","0.0-242.0","battery-v0.2","q","elianto","#3366ff99","32","-1","-1","0","+10","[]","0","3&age=8&participant_ID=5&order=1","3","242","11","1","win","go","1"
"pit-trial","243","1564501","0.0-243.0","battery-v0.2","n","elianto","#f73b6a7A","32","-1","-1","0","-10","[]","0","3&age=8&participant_ID=5&order=1","3","243","10","3","lose","go","0"
"pit-trial","244","1569363","0.0-244.0","battery-v0.2","f","elianto","#3366ff99","32","-1","-1","0","0","[]","0","3&age=8&participant_ID=5&order=1","3","244","9","1","win","go","0"
"pit-trial","245","1574223","0.0-245.0","battery-v0.2","n","elianto","#f73b6a7A","32","-1","-1","0","0","[]","0","3&age=8&participant_ID=5&order=1","3","245","10","3","lose","go","1"
"pit-trial","246","1579084","0.0-246.0","battery-v0.2","q","elianto","#3366ff99","32","-1","-1","0","0","[]","0","3&age=8&participant_ID=5&order=1","3","246","11","1","win","go","0"
"pit-trial","247","1583943","0.0-247.0","battery-v0.2","x","elianto","#f73b6a7A","-1","-1","-1","1","0","[]","0","3&age=8&participant_ID=5&order=1","3","247","8","4","lose","no-go","0"
"pit-trial","248","1588802","0.0-248.0","battery-v0.2","f","elianto","#3366ff99","32","-1","-1","0","0","[]","0","3&age=8&participant_ID=5&order=1","3","248","9","1","win","go","0"
