"trial_type","trial_index","time_elapsed","internal_node_id","task_version","subject_id","interactions","blur_events","focus_events","fullscreenenter_events","fullscreenexit_events","success","view_history","rt","responses","num_errors","age","subject","participantId","rune","rune_set","hex","correct","choice","accuracy","outcome","keys","total_keys","block","practice","value","sub","trial","stimulus","robot","valence","action","sham","browser_interactions"
"pavlovia","0","23","0.0-0.0","battery-v0.2","","""event"",""trial"",""time""
""focus"",""1"",""12852""
""blur"",""1"",""14459""
""focus"",""1"",""123010""
""blur"",""1"",""125006""
""focus"",""1"",""125900""
""blur"",""1"",""126575""
""focus"",""1"",""197259""
""fullscreenenter"",""1"",""198882""
","""event"",""trial"",""time""
""blur"",""1"",""14459""
""blur"",""1"",""125006""
""blur"",""1"",""126575""
","""event"",""trial"",""time""
""focus"",""1"",""12852""
""focus"",""1"",""123010""
""focus"",""1"",""125900""
""focus"",""1"",""197259""
","""event"",""trial"",""time""
""fullscreenenter"",""1"",""198882""
","
","","","","","","","","","","","","","","","","","","","","","","","","","","","",""
"fullscreen","1","199665","0.0-1.0","battery-v0.2","","""event"",""trial"",""time""
""focus"",""1"",""12852""
""blur"",""1"",""14459""
""focus"",""1"",""123010""
""blur"",""1"",""125006""
""focus"",""1"",""125900""
""blur"",""1"",""126575""
""focus"",""1"",""197259""
""fullscreenenter"",""1"",""198882""
","""event"",""trial"",""time""
""blur"",""1"",""14459""
""blur"",""1"",""125006""
""blur"",""1"",""126575""
","""event"",""trial"",""time""
""focus"",""1"",""12852""
""focus"",""1"",""123010""
""focus"",""1"",""125900""
""focus"",""1"",""197259""
","""event"",""trial"",""time""
""fullscreenenter"",""1"",""198882""
","
","true","","","","","","","","","","","","","","","","","","","","","","","","","","",""
"pit-instructions","2","258101","0.0-2.0-0.0","battery-v0.2","","""event"",""trial"",""time""
""focus"",""1"",""12852""
""blur"",""1"",""14459""
""focus"",""1"",""123010""
""blur"",""1"",""125006""
""focus"",""1"",""125900""
""blur"",""1"",""126575""
""focus"",""1"",""197259""
""fullscreenenter"",""1"",""198882""
","""event"",""trial"",""time""
""blur"",""1"",""14459""
""blur"",""1"",""125006""
""blur"",""1"",""126575""
","""event"",""trial"",""time""
""focus"",""1"",""12852""
""focus"",""1"",""123010""
""focus"",""1"",""125900""
""focus"",""1"",""197259""
","""event"",""trial"",""time""
""fullscreenenter"",""1"",""198882""
","
","","[{""page_index"":0,""viewing_time"":58421}]","58421","","","","","","","","","","","","","","","","","","","","","","","","",""
"pit-comprehension","3","260386","0.0-2.0-1.0-0.0","battery-v0.2","","""event"",""trial"",""time""
""focus"",""1"",""12852""
""blur"",""1"",""14459""
""focus"",""1"",""123010""
""blur"",""1"",""125006""
""focus"",""1"",""125900""
""blur"",""1"",""126575""
""focus"",""1"",""197259""
""fullscreenenter"",""1"",""198882""
","""event"",""trial"",""time""
""blur"",""1"",""14459""
""blur"",""1"",""125006""
""blur"",""1"",""126575""
","""event"",""trial"",""time""
""focus"",""1"",""12852""
""focus"",""1"",""123010""
""focus"",""1"",""125900""
""focus"",""1"",""197259""
","""event"",""trial"",""time""
""fullscreenenter"",""1"",""198882""
","
","","","2281","[""shark""]","0","23","1052","736","","","","","","","","","","","","","","","","","","","",""
"pit-instructions","4","264869","0.0-2.0-1.0-1.0","battery-v0.2","","""event"",""trial"",""time""
""focus"",""1"",""12852""
""blur"",""1"",""14459""
""focus"",""1"",""123010""
""blur"",""1"",""125006""
""focus"",""1"",""125900""
""blur"",""1"",""126575""
""focus"",""1"",""197259""
""fullscreenenter"",""1"",""198882""
","""event"",""trial"",""time""
""blur"",""1"",""14459""
""blur"",""1"",""125006""
""blur"",""1"",""126575""
","""event"",""trial"",""time""
""focus"",""1"",""12852""
""focus"",""1"",""123010""
""focus"",""1"",""125900""
""focus"",""1"",""197259""
","""event"",""trial"",""time""
""fullscreenenter"",""1"",""198882""
","
","","[{""page_index"":0,""viewing_time"":4479}]","4479","","","","","","","","","","","","","","","","","","","","","","","","",""
"pit-comprehension","5","266566","0.0-2.0-2.0-0.0","battery-v0.2","","""event"",""trial"",""time""
""focus"",""1"",""12852""
""blur"",""1"",""14459""
""focus"",""1"",""123010""
""blur"",""1"",""125006""
""focus"",""1"",""125900""
""blur"",""1"",""126575""
""focus"",""1"",""197259""
""fullscreenenter"",""1"",""198882""
","""event"",""trial"",""time""
""blur"",""1"",""14459""
""blur"",""1"",""125006""
""blur"",""1"",""126575""
","""event"",""trial"",""time""
""focus"",""1"",""12852""
""focus"",""1"",""123010""
""focus"",""1"",""125900""
""focus"",""1"",""197259""
","""event"",""trial"",""time""
""fullscreenenter"",""1"",""198882""
","
","","","1693","[""tiger""]","0","23","1052","736","","","","","","","","","","","","","","","","","","","",""
"pit-instructions","6","267253","0.0-2.0-2.0-1.0","battery-v0.2","","""event"",""trial"",""time""
""focus"",""1"",""12852""
""blur"",""1"",""14459""
""focus"",""1"",""123010""
""blur"",""1"",""125006""
""focus"",""1"",""125900""
""blur"",""1"",""126575""
""focus"",""1"",""197259""
""fullscreenenter"",""1"",""198882""
","""event"",""trial"",""time""
""blur"",""1"",""14459""
""blur"",""1"",""125006""
""blur"",""1"",""126575""
","""event"",""trial"",""time""
""focus"",""1"",""12852""
""focus"",""1"",""123010""
""focus"",""1"",""125900""
""focus"",""1"",""197259""
","""event"",""trial"",""time""
""fullscreenenter"",""1"",""198882""
","
","","[{""page_index"":0,""viewing_time"":683}]","683","","","","","","","","","","","","","","","","","","","","","","","","",""
"pit-instructions","7","460055","0.0-2.0-3.0","battery-v0.2","","""event"",""trial"",""time""
""focus"",""1"",""12852""
""blur"",""1"",""14459""
""focus"",""1"",""123010""
""blur"",""1"",""125006""
""focus"",""1"",""125900""
""blur"",""1"",""126575""
""focus"",""1"",""197259""
""fullscreenenter"",""1"",""198882""
","""event"",""trial"",""time""
""blur"",""1"",""14459""
""blur"",""1"",""125006""
""blur"",""1"",""126575""
","""event"",""trial"",""time""
""focus"",""1"",""12852""
""focus"",""1"",""123010""
""focus"",""1"",""125900""
""focus"",""1"",""197259""
","""event"",""trial"",""time""
""fullscreenenter"",""1"",""198882""
","
","","[{""page_index"":0,""viewing_time"":11679},{""page_index"":1,""viewing_time"":8778},{""page_index"":2,""viewing_time"":13178},{""page_index"":3,""viewing_time"":15172},{""page_index"":4,""viewing_time"":1298},{""page_index"":3,""viewing_time"":4250},{""page_index"":4,""viewing_time"":884},{""page_index"":5,""viewing_time"":5728},{""page_index"":6,""viewing_time"":9890},{""page_index"":7,""viewing_time"":9256},{""page_index"":8,""viewing_time"":6022},{""page_index"":9,""viewing_time"":9190},{""page_index"":10,""viewing_time"":26246},{""page_index"":11,""viewing_time"":19282},{""page_index"":12,""viewing_time"":47444},{""page_index"":13,""viewing_time"":4501}]","192798","","","","","","","","","","","","","","","","","","","","","","","","",""
"pit-trial","8","463505","0.0-2.0-4.0-0.0","battery-v0.2","","""event"",""trial"",""time""
""focus"",""1"",""12852""
""blur"",""1"",""14459""
""focus"",""1"",""123010""
""blur"",""1"",""125006""
""focus"",""1"",""125900""
""blur"",""1"",""126575""
""focus"",""1"",""197259""
""fullscreenenter"",""1"",""198882""
","""event"",""trial"",""time""
""blur"",""1"",""14459""
""blur"",""1"",""125006""
""blur"",""1"",""126575""
","""event"",""trial"",""time""
""focus"",""1"",""12852""
""focus"",""1"",""123010""
""focus"",""1"",""125900""
""focus"",""1"",""197259""
","""event"",""trial"",""time""
""fullscreenenter"",""1"",""198882""
","
","","","569","","","23","1052","736","&#9784;","elianto","#FFFFF080"," "," ","1","&#10004","[1435]","1","0","0","","","","","","","","",""
"pit-trial","9","466806","0.0-2.0-4.1-0.1","battery-v0.2","","""event"",""trial"",""time""
""focus"",""1"",""12852""
""blur"",""1"",""14459""
""focus"",""1"",""123010""
""blur"",""1"",""125006""
""focus"",""1"",""125900""
""blur"",""1"",""126575""
""focus"",""1"",""197259""
""fullscreenenter"",""1"",""198882""
","""event"",""trial"",""time""
""blur"",""1"",""14459""
""blur"",""1"",""125006""
""blur"",""1"",""126575""
","""event"",""trial"",""time""
""focus"",""1"",""12852""
""focus"",""1"",""123010""
""focus"",""1"",""125900""
""focus"",""1"",""197259""
","""event"",""trial"",""time""
""fullscreenenter"",""1"",""198882""
","
","","","425","","","23","1052","736","&#9784;","elianto","#FFFFF080"," "," ","1","&#10004","[1279]","1","0","0","","","","","","","","",""
"pit-trial","10","469704","0.0-2.0-4.2-0.2","battery-v0.2","","""event"",""trial"",""time""
""focus"",""1"",""12852""
""blur"",""1"",""14459""
""focus"",""1"",""123010""
""blur"",""1"",""125006""
""focus"",""1"",""125900""
""blur"",""1"",""126575""
""focus"",""1"",""197259""
""fullscreenenter"",""1"",""198882""
","""event"",""trial"",""time""
""blur"",""1"",""14459""
""blur"",""1"",""125006""
""blur"",""1"",""126575""
","""event"",""trial"",""time""
""focus"",""1"",""12852""
""focus"",""1"",""123010""
""focus"",""1"",""125900""
""focus"",""1"",""197259""
","""event"",""trial"",""time""
""fullscreenenter"",""1"",""198882""
","
","","","28","","","23","1052","736","&#9784;","elianto","#FFFFF080"," "," ","1","&#10004","[882]","1","0","0","","","","","","","","",""
"pit-trial","11","472696","0.0-2.0-4.3-0.3","battery-v0.2","","""event"",""trial"",""time""
""focus"",""1"",""12852""
""blur"",""1"",""14459""
""focus"",""1"",""123010""
""blur"",""1"",""125006""
""focus"",""1"",""125900""
""blur"",""1"",""126575""
""focus"",""1"",""197259""
""fullscreenenter"",""1"",""198882""
","""event"",""trial"",""time""
""blur"",""1"",""14459""
""blur"",""1"",""125006""
""blur"",""1"",""126575""
","""event"",""trial"",""time""
""focus"",""1"",""12852""
""focus"",""1"",""123010""
""focus"",""1"",""125900""
""focus"",""1"",""197259""
","""event"",""trial"",""time""
""fullscreenenter"",""1"",""198882""
","
","","","112","","","23","1052","736","&#9784;","elianto","#FFFFF080"," "," ","1","&#10004","[968]","1","0","0","","","","","","","","",""
"pit-trial","12","476355","0.0-2.0-4.4-0.4","battery-v0.2","","""event"",""trial"",""time""
""focus"",""1"",""12852""
""blur"",""1"",""14459""
""focus"",""1"",""123010""
""blur"",""1"",""125006""
""focus"",""1"",""125900""
""blur"",""1"",""126575""
""focus"",""1"",""197259""
""fullscreenenter"",""1"",""198882""
","""event"",""trial"",""time""
""blur"",""1"",""14459""
""blur"",""1"",""125006""
""blur"",""1"",""126575""
","""event"",""trial"",""time""
""focus"",""1"",""12852""
""focus"",""1"",""123010""
""focus"",""1"",""125900""
""focus"",""1"",""197259""
","""event"",""trial"",""time""
""fullscreenenter"",""1"",""198882""
","
","","","794","","","23","1052","736","&#9784;","elianto","#FFFFF080"," "," ","1","&#10004","[850,1649]","2","0","0","","","","","","","","",""
"pit-instructions","13","499013","0.0-2.0-5.0","battery-v0.2","","""event"",""trial"",""time""
""focus"",""1"",""12852""
""blur"",""1"",""14459""
""focus"",""1"",""123010""
""blur"",""1"",""125006""
""focus"",""1"",""125900""
""blur"",""1"",""126575""
""focus"",""1"",""197259""
""fullscreenenter"",""1"",""198882""
","""event"",""trial"",""time""
""blur"",""1"",""14459""
""blur"",""1"",""125006""
""blur"",""1"",""126575""
","""event"",""trial"",""time""
""focus"",""1"",""12852""
""focus"",""1"",""123010""
""focus"",""1"",""125900""
""focus"",""1"",""197259""
","""event"",""trial"",""time""
""fullscreenenter"",""1"",""198882""
","
","","[{""page_index"":0,""viewing_time"":7077},{""page_index"":1,""viewing_time"":5570},{""page_index"":2,""viewing_time"":4673},{""page_index"":3,""viewing_time"":5324}]","22644","","","","","","","","","","","","","","","","","","","","","","","","",""
"pit-trial","14","503895","0.0-2.0-6.0-0.0","battery-v0.2","","""event"",""trial"",""time""
""focus"",""1"",""12852""
""blur"",""1"",""14459""
""focus"",""1"",""123010""
""blur"",""1"",""125006""
""focus"",""1"",""125900""
""blur"",""1"",""126575""
""focus"",""1"",""197259""
""fullscreenenter"",""1"",""198882""
","""event"",""trial"",""time""
""blur"",""1"",""14459""
""blur"",""1"",""125006""
""blur"",""1"",""126575""
","""event"",""trial"",""time""
""focus"",""1"",""12852""
""focus"",""1"",""123010""
""focus"",""1"",""125900""
""focus"",""1"",""197259""
","""event"",""trial"",""time""
""fullscreenenter"",""1"",""198882""
","
","","","-1","","","23","1052","736","&#9854;","elianto","#FFFFF080","-1","-1","1","&#10004","[]","0","0","1","","","","","","","","",""
"pit-trial","15","508765","0.0-2.0-6.1-0.1","battery-v0.2","","""event"",""trial"",""time""
""focus"",""1"",""12852""
""blur"",""1"",""14459""
""focus"",""1"",""123010""
""blur"",""1"",""125006""
""focus"",""1"",""125900""
""blur"",""1"",""126575""
""focus"",""1"",""197259""
""fullscreenenter"",""1"",""198882""
","""event"",""trial"",""time""
""blur"",""1"",""14459""
""blur"",""1"",""125006""
""blur"",""1"",""126575""
","""event"",""trial"",""time""
""focus"",""1"",""12852""
""focus"",""1"",""123010""
""focus"",""1"",""125900""
""focus"",""1"",""197259""
","""event"",""trial"",""time""
""fullscreenenter"",""1"",""198882""
","
","","","-1","","","23","1052","736","&#9854;","elianto","#FFFFF080","-1","-1","1","&#10004","[]","0","0","1","","","","","","","","",""
"pit-trial","16","513655","0.0-2.0-6.2-0.2","battery-v0.2","","""event"",""trial"",""time""
""focus"",""1"",""12852""
""blur"",""1"",""14459""
""focus"",""1"",""123010""
""blur"",""1"",""125006""
""focus"",""1"",""125900""
""blur"",""1"",""126575""
""focus"",""1"",""197259""
""fullscreenenter"",""1"",""198882""
","""event"",""trial"",""time""
""blur"",""1"",""14459""
""blur"",""1"",""125006""
""blur"",""1"",""126575""
","""event"",""trial"",""time""
""focus"",""1"",""12852""
""focus"",""1"",""123010""
""focus"",""1"",""125900""
""focus"",""1"",""197259""
","""event"",""trial"",""time""
""fullscreenenter"",""1"",""198882""
","
","","","-1","","","23","1052","736","&#9854;","elianto","#FFFFF080","-1","-1","1","&#10004","[]","0","0","1","","","","","","","","",""
"pit-trial","17","518546","0.0-2.0-6.3-0.3","battery-v0.2","","""event"",""trial"",""time""
""focus"",""1"",""12852""
""blur"",""1"",""14459""
""focus"",""1"",""123010""
""blur"",""1"",""125006""
""focus"",""1"",""125900""
""blur"",""1"",""126575""
""focus"",""1"",""197259""
""fullscreenenter"",""1"",""198882""
","""event"",""trial"",""time""
""blur"",""1"",""14459""
""blur"",""1"",""125006""
""blur"",""1"",""126575""
","""event"",""trial"",""time""
""focus"",""1"",""12852""
""focus"",""1"",""123010""
""focus"",""1"",""125900""
""focus"",""1"",""197259""
","""event"",""trial"",""time""
""fullscreenenter"",""1"",""198882""
","
","","","-1","","","23","1052","736","&#9854;","elianto","#FFFFF080","-1","-1","1","&#10004","[]","0","0","1","","","","","","","","",""
"pit-trial","18","523425","0.0-2.0-6.4-0.4","battery-v0.2","","""event"",""trial"",""time""
""focus"",""1"",""12852""
""blur"",""1"",""14459""
""focus"",""1"",""123010""
""blur"",""1"",""125006""
""focus"",""1"",""125900""
""blur"",""1"",""126575""
""focus"",""1"",""197259""
""fullscreenenter"",""1"",""198882""
","""event"",""trial"",""time""
""blur"",""1"",""14459""
""blur"",""1"",""125006""
""blur"",""1"",""126575""
","""event"",""trial"",""time""
""focus"",""1"",""12852""
""focus"",""1"",""123010""
""focus"",""1"",""125900""
""focus"",""1"",""197259""
","""event"",""trial"",""time""
""fullscreenenter"",""1"",""198882""
","
","","","-1","","","23","1052","736","&#9854;","elianto","#FFFFF080","-1","-1","1","&#10004","[]","0","0","1","","","","","","","","",""
"pit-instructions","19","671924","0.0-2.0-7.0","battery-v0.2","","""event"",""trial"",""time""
""focus"",""1"",""12852""
""blur"",""1"",""14459""
""focus"",""1"",""123010""
""blur"",""1"",""125006""
""focus"",""1"",""125900""
""blur"",""1"",""126575""
""focus"",""1"",""197259""
""fullscreenenter"",""1"",""198882""
","""event"",""trial"",""time""
""blur"",""1"",""14459""
""blur"",""1"",""125006""
""blur"",""1"",""126575""
","""event"",""trial"",""time""
""focus"",""1"",""12852""
""focus"",""1"",""123010""
""focus"",""1"",""125900""
""focus"",""1"",""197259""
","""event"",""trial"",""time""
""fullscreenenter"",""1"",""198882""
","
","","[{""page_index"":0,""viewing_time"":33505},{""page_index"":1,""viewing_time"":6455},{""page_index"":2,""viewing_time"":8794},{""page_index"":3,""viewing_time"":6367},{""page_index"":4,""viewing_time"":5877},{""page_index"":5,""viewing_time"":9470},{""page_index"":6,""viewing_time"":6896},{""page_index"":7,""viewing_time"":7806},{""page_index"":8,""viewing_time"":6402},{""page_index"":9,""viewing_time"":5634},{""page_index"":10,""viewing_time"":6723},{""page_index"":11,""viewing_time"":4887},{""page_index"":12,""viewing_time"":6170},{""page_index"":13,""viewing_time"":6538},{""page_index"":14,""viewing_time"":6488},{""page_index"":15,""viewing_time"":6931},{""page_index"":16,""viewing_time"":6746},{""page_index"":17,""viewing_time"":6795}]","148484","","","","","","","","","","","","","","","","","","","","","","","","",""
"pit-trial","20","675247","0.0-2.0-8.0-0.0","battery-v0.2","","""event"",""trial"",""time""
""focus"",""1"",""12852""
""blur"",""1"",""14459""
""focus"",""1"",""123010""
""blur"",""1"",""125006""
""focus"",""1"",""125900""
""blur"",""1"",""126575""
""focus"",""1"",""197259""
""fullscreenenter"",""1"",""198882""
","""event"",""trial"",""time""
""blur"",""1"",""14459""
""blur"",""1"",""125006""
""blur"",""1"",""126575""
","""event"",""trial"",""time""
""focus"",""1"",""12852""
""focus"",""1"",""123010""
""focus"",""1"",""125900""
""focus"",""1"",""197259""
","""event"",""trial"",""time""
""fullscreenenter"",""1"",""198882""
","
","","","461","","","23","1052","736","&#9776;","elianto","#3366ff99"," "," ","1","+10","[1320]","1","0","1","","","","","","","","",""
"pit-trial","21","678565","0.0-2.0-8.0-1.0","battery-v0.2","","""event"",""trial"",""time""
""focus"",""1"",""12852""
""blur"",""1"",""14459""
""focus"",""1"",""123010""
""blur"",""1"",""125006""
""focus"",""1"",""125900""
""blur"",""1"",""126575""
""focus"",""1"",""197259""
""fullscreenenter"",""1"",""198882""
","""event"",""trial"",""time""
""blur"",""1"",""14459""
""blur"",""1"",""125006""
""blur"",""1"",""126575""
","""event"",""trial"",""time""
""focus"",""1"",""12852""
""focus"",""1"",""123010""
""focus"",""1"",""125900""
""focus"",""1"",""197259""
","""event"",""trial"",""time""
""fullscreenenter"",""1"",""198882""
","
","","","445","","","23","1052","736","&#9776;","elianto","#3366ff99"," "," ","1","+10","[1299]","1","0","1","","","","","","","","",""
"pit-trial","22","681886","0.0-2.0-8.0-2.0","battery-v0.2","","""event"",""trial"",""time""
""focus"",""1"",""12852""
""blur"",""1"",""14459""
""focus"",""1"",""123010""
""blur"",""1"",""125006""
""focus"",""1"",""125900""
""blur"",""1"",""126575""
""focus"",""1"",""197259""
""fullscreenenter"",""1"",""198882""
","""event"",""trial"",""time""
""blur"",""1"",""14459""
""blur"",""1"",""125006""
""blur"",""1"",""126575""
","""event"",""trial"",""time""
""focus"",""1"",""12852""
""focus"",""1"",""123010""
""focus"",""1"",""125900""
""focus"",""1"",""197259""
","""event"",""trial"",""time""
""fullscreenenter"",""1"",""198882""
","
","","","446","","","23","1052","736","&#9776;","elianto","#3366ff99"," "," ","1","+10","[1302]","1","0","1","","","","","","","","",""
"pit-trial","23","685244","0.0-2.0-8.0-3.0","battery-v0.2","","""event"",""trial"",""time""
""focus"",""1"",""12852""
""blur"",""1"",""14459""
""focus"",""1"",""123010""
""blur"",""1"",""125006""
""focus"",""1"",""125900""
""blur"",""1"",""126575""
""focus"",""1"",""197259""
""fullscreenenter"",""1"",""198882""
","""event"",""trial"",""time""
""blur"",""1"",""14459""
""blur"",""1"",""125006""
""blur"",""1"",""126575""
","""event"",""trial"",""time""
""focus"",""1"",""12852""
""focus"",""1"",""123010""
""focus"",""1"",""125900""
""focus"",""1"",""197259""
","""event"",""trial"",""time""
""fullscreenenter"",""1"",""198882""
","
","","","492","","","23","1052","736","&#9776;","elianto","#3366ff99"," "," ","1","0","[1348]","1","0","1","","","","","","","","",""
"pit-trial","24","688546","0.0-2.0-8.0-4.0","battery-v0.2","","""event"",""trial"",""time""
""focus"",""1"",""12852""
""blur"",""1"",""14459""
""focus"",""1"",""123010""
""blur"",""1"",""125006""
""focus"",""1"",""125900""
""blur"",""1"",""126575""
""focus"",""1"",""197259""
""fullscreenenter"",""1"",""198882""
","""event"",""trial"",""time""
""blur"",""1"",""14459""
""blur"",""1"",""125006""
""blur"",""1"",""126575""
","""event"",""trial"",""time""
""focus"",""1"",""12852""
""focus"",""1"",""123010""
""focus"",""1"",""125900""
""focus"",""1"",""197259""
","""event"",""trial"",""time""
""fullscreenenter"",""1"",""198882""
","
","","","428","","","23","1052","736","&#9776;","elianto","#3366ff99"," "," ","1","+10","[1286]","1","0","1","","","","","","","","",""
"call-function","25","688549","0.0-2.0-9.0","battery-v0.2","","""event"",""trial"",""time""
""focus"",""1"",""12852""
""blur"",""1"",""14459""
""focus"",""1"",""123010""
""blur"",""1"",""125006""
""focus"",""1"",""125900""
""blur"",""1"",""126575""
""focus"",""1"",""197259""
""fullscreenenter"",""1"",""198882""
","""event"",""trial"",""time""
""blur"",""1"",""14459""
""blur"",""1"",""125006""
""blur"",""1"",""126575""
","""event"",""trial"",""time""
""focus"",""1"",""12852""
""focus"",""1"",""123010""
""focus"",""1"",""125900""
""focus"",""1"",""197259""
","""event"",""trial"",""time""
""fullscreenenter"",""1"",""198882""
","
","","","","","","","","","","","","","","","","","","","","","","","","","","","",""
"pit-instructions","26","729155","0.0-2.0-10.0","battery-v0.2","","""event"",""trial"",""time""
""focus"",""1"",""12852""
""blur"",""1"",""14459""
""focus"",""1"",""123010""
""blur"",""1"",""125006""
""focus"",""1"",""125900""
""blur"",""1"",""126575""
""focus"",""1"",""197259""
""fullscreenenter"",""1"",""198882""
","""event"",""trial"",""time""
""blur"",""1"",""14459""
""blur"",""1"",""125006""
""blur"",""1"",""126575""
","""event"",""trial"",""time""
""focus"",""1"",""12852""
""focus"",""1"",""123010""
""focus"",""1"",""125900""
""focus"",""1"",""197259""
","""event"",""trial"",""time""
""fullscreenenter"",""1"",""198882""
","
","","[{""page_index"":0,""viewing_time"":6160},{""page_index"":1,""viewing_time"":6861},{""page_index"":2,""viewing_time"":10551},{""page_index"":3,""viewing_time"":9650},{""page_index"":4,""viewing_time"":7383}]","40606","","","","","","","","","","","","","","","","","","","","","","","","",""
"pit-trial","27","732705","0.0-2.0-11.0-0.0","battery-v0.2","","""event"",""trial"",""time""
""focus"",""1"",""12852""
""blur"",""1"",""14459""
""focus"",""1"",""123010""
""blur"",""1"",""125006""
""focus"",""1"",""125900""
""blur"",""1"",""126575""
""focus"",""1"",""197259""
""fullscreenenter"",""1"",""198882""
","""event"",""trial"",""time""
""blur"",""1"",""14459""
""blur"",""1"",""125006""
""blur"",""1"",""126575""
","""event"",""trial"",""time""
""focus"",""1"",""12852""
""focus"",""1"",""123010""
""focus"",""1"",""125900""
""focus"",""1"",""197259""
","""event"",""trial"",""time""
""fullscreenenter"",""1"",""198882""
","
","","","660","","","23","1052","736","&#9761;","elianto","#3366ff99","-1"," ","0","0","[1528]","1","0","2","","","","","","","","",""
"pit-trial","28","735786","0.0-2.0-11.0-1.0","battery-v0.2","","""event"",""trial"",""time""
""focus"",""1"",""12852""
""blur"",""1"",""14459""
""focus"",""1"",""123010""
""blur"",""1"",""125006""
""focus"",""1"",""125900""
""blur"",""1"",""126575""
""focus"",""1"",""197259""
""fullscreenenter"",""1"",""198882""
","""event"",""trial"",""time""
""blur"",""1"",""14459""
""blur"",""1"",""125006""
""blur"",""1"",""126575""
","""event"",""trial"",""time""
""focus"",""1"",""12852""
""focus"",""1"",""123010""
""focus"",""1"",""125900""
""focus"",""1"",""197259""
","""event"",""trial"",""time""
""fullscreenenter"",""1"",""198882""
","
","","","216","","","23","1052","736","&#9761;","elianto","#3366ff99","-1"," ","0","0","[1072]","1","0","2","","","","","","","","",""
"pit-trial","29","740656","0.0-2.0-11.0-2.0","battery-v0.2","","""event"",""trial"",""time""
""focus"",""1"",""12852""
""blur"",""1"",""14459""
""focus"",""1"",""123010""
""blur"",""1"",""125006""
""focus"",""1"",""125900""
""blur"",""1"",""126575""
""focus"",""1"",""197259""
""fullscreenenter"",""1"",""198882""
","""event"",""trial"",""time""
""blur"",""1"",""14459""
""blur"",""1"",""125006""
""blur"",""1"",""126575""
","""event"",""trial"",""time""
""focus"",""1"",""12852""
""focus"",""1"",""123010""
""focus"",""1"",""125900""
""focus"",""1"",""197259""
","""event"",""trial"",""time""
""fullscreenenter"",""1"",""198882""
","
","","","-1","","","23","1052","736","&#9761;","elianto","#3366ff99","-1","-1","1","+10","[]","0","0","2","","","","","","","","",""
"pit-trial","30","745536","0.0-2.0-11.0-3.0","battery-v0.2","","""event"",""trial"",""time""
""focus"",""1"",""12852""
""blur"",""1"",""14459""
""focus"",""1"",""123010""
""blur"",""1"",""125006""
""focus"",""1"",""125900""
""blur"",""1"",""126575""
""focus"",""1"",""197259""
""fullscreenenter"",""1"",""198882""
","""event"",""trial"",""time""
""blur"",""1"",""14459""
""blur"",""1"",""125006""
""blur"",""1"",""126575""
","""event"",""trial"",""time""
""focus"",""1"",""12852""
""focus"",""1"",""123010""
""focus"",""1"",""125900""
""focus"",""1"",""197259""
","""event"",""trial"",""time""
""fullscreenenter"",""1"",""198882""
","
","","","-1","","","23","1052","736","&#9761;","elianto","#3366ff99","-1","-1","1","0","[]","0","0","2","","","","","","","","",""
"pit-trial","31","750404","0.0-2.0-11.0-4.0","battery-v0.2","","""event"",""trial"",""time""
""focus"",""1"",""12852""
""blur"",""1"",""14459""
""focus"",""1"",""123010""
""blur"",""1"",""125006""
""focus"",""1"",""125900""
""blur"",""1"",""126575""
""focus"",""1"",""197259""
""fullscreenenter"",""1"",""198882""
","""event"",""trial"",""time""
""blur"",""1"",""14459""
""blur"",""1"",""125006""
""blur"",""1"",""126575""
","""event"",""trial"",""time""
""focus"",""1"",""12852""
""focus"",""1"",""123010""
""focus"",""1"",""125900""
""focus"",""1"",""197259""
","""event"",""trial"",""time""
""fullscreenenter"",""1"",""198882""
","
","","","-1","","","23","1052","736","&#9761;","elianto","#3366ff99","-1","-1","1","+10","[]","0","0","2","","","","","","","","",""
"pit-trial","32","755294","0.0-2.0-11.1-0.1","battery-v0.2","","""event"",""trial"",""time""
""focus"",""1"",""12852""
""blur"",""1"",""14459""
""focus"",""1"",""123010""
""blur"",""1"",""125006""
""focus"",""1"",""125900""
""blur"",""1"",""126575""
""focus"",""1"",""197259""
""fullscreenenter"",""1"",""198882""
","""event"",""trial"",""time""
""blur"",""1"",""14459""
""blur"",""1"",""125006""
""blur"",""1"",""126575""
","""event"",""trial"",""time""
""focus"",""1"",""12852""
""focus"",""1"",""123010""
""focus"",""1"",""125900""
""focus"",""1"",""197259""
","""event"",""trial"",""time""
""fullscreenenter"",""1"",""198882""
","
","","","-1","","","23","1052","736","&#9761;","elianto","#3366ff99","-1","-1","1","+10","[]","0","0","2","","","","","","","","",""
"pit-trial","33","760175","0.0-2.0-11.1-1.1","battery-v0.2","","""event"",""trial"",""time""
""focus"",""1"",""12852""
""blur"",""1"",""14459""
""focus"",""1"",""123010""
""blur"",""1"",""125006""
""focus"",""1"",""125900""
""blur"",""1"",""126575""
""focus"",""1"",""197259""
""fullscreenenter"",""1"",""198882""
","""event"",""trial"",""time""
""blur"",""1"",""14459""
""blur"",""1"",""125006""
""blur"",""1"",""126575""
","""event"",""trial"",""time""
""focus"",""1"",""12852""
""focus"",""1"",""123010""
""focus"",""1"",""125900""
""focus"",""1"",""197259""
","""event"",""trial"",""time""
""fullscreenenter"",""1"",""198882""
","
","","","-1","","","23","1052","736","&#9761;","elianto","#3366ff99","-1","-1","1","+10","[]","0","0","2","","","","","","","","",""
"pit-trial","34","765056","0.0-2.0-11.1-2.1","battery-v0.2","","""event"",""trial"",""time""
""focus"",""1"",""12852""
""blur"",""1"",""14459""
""focus"",""1"",""123010""
""blur"",""1"",""125006""
""focus"",""1"",""125900""
""blur"",""1"",""126575""
""focus"",""1"",""197259""
""fullscreenenter"",""1"",""198882""
","""event"",""trial"",""time""
""blur"",""1"",""14459""
""blur"",""1"",""125006""
""blur"",""1"",""126575""
","""event"",""trial"",""time""
""focus"",""1"",""12852""
""focus"",""1"",""123010""
""focus"",""1"",""125900""
""focus"",""1"",""197259""
","""event"",""trial"",""time""
""fullscreenenter"",""1"",""198882""
","
","","","-1","","","23","1052","736","&#9761;","elianto","#3366ff99","-1","-1","1","+10","[]","0","0","2","","","","","","","","",""
"pit-trial","35","769935","0.0-2.0-11.1-3.1","battery-v0.2","","""event"",""trial"",""time""
""focus"",""1"",""12852""
""blur"",""1"",""14459""
""focus"",""1"",""123010""
""blur"",""1"",""125006""
""focus"",""1"",""125900""
""blur"",""1"",""126575""
""focus"",""1"",""197259""
""fullscreenenter"",""1"",""198882""
","""event"",""trial"",""time""
""blur"",""1"",""14459""
""blur"",""1"",""125006""
""blur"",""1"",""126575""
","""event"",""trial"",""time""
""focus"",""1"",""12852""
""focus"",""1"",""123010""
""focus"",""1"",""125900""
""focus"",""1"",""197259""
","""event"",""trial"",""time""
""fullscreenenter"",""1"",""198882""
","
","","","-1","","","23","1052","736","&#9761;","elianto","#3366ff99","-1","-1","1","0","[]","0","0","2","","","","","","","","",""
"pit-trial","36","774816","0.0-2.0-11.1-4.1","battery-v0.2","","""event"",""trial"",""time""
""focus"",""1"",""12852""
""blur"",""1"",""14459""
""focus"",""1"",""123010""
""blur"",""1"",""125006""
""focus"",""1"",""125900""
""blur"",""1"",""126575""
""focus"",""1"",""197259""
""fullscreenenter"",""1"",""198882""
","""event"",""trial"",""time""
""blur"",""1"",""14459""
""blur"",""1"",""125006""
""blur"",""1"",""126575""
","""event"",""trial"",""time""
""focus"",""1"",""12852""
""focus"",""1"",""123010""
""focus"",""1"",""125900""
""focus"",""1"",""197259""
","""event"",""trial"",""time""
""fullscreenenter"",""1"",""198882""
","
","","","-1","","","23","1052","736","&#9761;","elianto","#3366ff99","-1","-1","1","+10","[]","0","0","2","","","","","","","","",""
"call-function","37","774819","0.0-2.0-12.0","battery-v0.2","","""event"",""trial"",""time""
""focus"",""1"",""12852""
""blur"",""1"",""14459""
""focus"",""1"",""123010""
""blur"",""1"",""125006""
""focus"",""1"",""125900""
""blur"",""1"",""126575""
""focus"",""1"",""197259""
""fullscreenenter"",""1"",""198882""
","""event"",""trial"",""time""
""blur"",""1"",""14459""
""blur"",""1"",""125006""
""blur"",""1"",""126575""
","""event"",""trial"",""time""
""focus"",""1"",""12852""
""focus"",""1"",""123010""
""focus"",""1"",""125900""
""focus"",""1"",""197259""
","""event"",""trial"",""time""
""fullscreenenter"",""1"",""198882""
","
","","","","","","","","","","","","","","","","","","","","","","","","","","","",""
"pit-instructions","38","804328","0.0-2.0-13.0","battery-v0.2","","""event"",""trial"",""time""
""focus"",""1"",""12852""
""blur"",""1"",""14459""
""focus"",""1"",""123010""
""blur"",""1"",""125006""
""focus"",""1"",""125900""
""blur"",""1"",""126575""
""focus"",""1"",""197259""
""fullscreenenter"",""1"",""198882""
","""event"",""trial"",""time""
""blur"",""1"",""14459""
""blur"",""1"",""125006""
""blur"",""1"",""126575""
","""event"",""trial"",""time""
""focus"",""1"",""12852""
""focus"",""1"",""123010""
""focus"",""1"",""125900""
""focus"",""1"",""197259""
","""event"",""trial"",""time""
""fullscreenenter"",""1"",""198882""
","
","","[{""page_index"":0,""viewing_time"":4500},{""page_index"":1,""viewing_time"":6118},{""page_index"":2,""viewing_time"":3429},{""page_index"":3,""viewing_time"":10930},{""page_index"":4,""viewing_time"":4530}]","29507","","","","","","","","","","","","","","","","","","","","","","","","",""
"pit-trial","39","807455","0.0-2.0-14.0-0.0","battery-v0.2","","""event"",""trial"",""time""
""focus"",""1"",""12852""
""blur"",""1"",""14459""
""focus"",""1"",""123010""
""blur"",""1"",""125006""
""focus"",""1"",""125900""
""blur"",""1"",""126575""
""focus"",""1"",""197259""
""fullscreenenter"",""1"",""198882""
","""event"",""trial"",""time""
""blur"",""1"",""14459""
""blur"",""1"",""125006""
""blur"",""1"",""126575""
","""event"",""trial"",""time""
""focus"",""1"",""12852""
""focus"",""1"",""123010""
""focus"",""1"",""125900""
""focus"",""1"",""197259""
","""event"",""trial"",""time""
""fullscreenenter"",""1"",""198882""
","
","","","252","","","23","1052","736","&#9826;","elianto","#f73b6a7A","-1"," ","0","-10","[1107]","1","0","3","","","","","","","","",""
"pit-trial","40","810566","0.0-2.0-14.0-1.0","battery-v0.2","","""event"",""trial"",""time""
""focus"",""1"",""12852""
""blur"",""1"",""14459""
""focus"",""1"",""123010""
""blur"",""1"",""125006""
""focus"",""1"",""125900""
""blur"",""1"",""126575""
""focus"",""1"",""197259""
""fullscreenenter"",""1"",""198882""
","""event"",""trial"",""time""
""blur"",""1"",""14459""
""blur"",""1"",""125006""
""blur"",""1"",""126575""
","""event"",""trial"",""time""
""focus"",""1"",""12852""
""focus"",""1"",""123010""
""focus"",""1"",""125900""
""focus"",""1"",""197259""
","""event"",""trial"",""time""
""fullscreenenter"",""1"",""198882""
","
","","","235","","","23","1052","736","&#9826;","elianto","#f73b6a7A","-1"," ","0","-10","[1092]","1","0","3","","","","","","","","",""
"pit-trial","41","815456","0.0-2.0-14.0-2.0","battery-v0.2","","""event"",""trial"",""time""
""focus"",""1"",""12852""
""blur"",""1"",""14459""
""focus"",""1"",""123010""
""blur"",""1"",""125006""
""focus"",""1"",""125900""
""blur"",""1"",""126575""
""focus"",""1"",""197259""
""fullscreenenter"",""1"",""198882""
","""event"",""trial"",""time""
""blur"",""1"",""14459""
""blur"",""1"",""125006""
""blur"",""1"",""126575""
","""event"",""trial"",""time""
""focus"",""1"",""12852""
""focus"",""1"",""123010""
""focus"",""1"",""125900""
""focus"",""1"",""197259""
","""event"",""trial"",""time""
""fullscreenenter"",""1"",""198882""
","
","","","-1","","","23","1052","736","&#9826;","elianto","#f73b6a7A","-1","-1","1","0","[]","0","0","3","","","","","","","","",""
"pit-trial","42","820326","0.0-2.0-14.0-3.0","battery-v0.2","","""event"",""trial"",""time""
""focus"",""1"",""12852""
""blur"",""1"",""14459""
""focus"",""1"",""123010""
""blur"",""1"",""125006""
""focus"",""1"",""125900""
""blur"",""1"",""126575""
""focus"",""1"",""197259""
""fullscreenenter"",""1"",""198882""
","""event"",""trial"",""time""
""blur"",""1"",""14459""
""blur"",""1"",""125006""
""blur"",""1"",""126575""
","""event"",""trial"",""time""
""focus"",""1"",""12852""
""focus"",""1"",""123010""
""focus"",""1"",""125900""
""focus"",""1"",""197259""
","""event"",""trial"",""time""
""fullscreenenter"",""1"",""198882""
","
","","","-1","","","23","1052","736","&#9826;","elianto","#f73b6a7A","-1","-1","1","-10","[]","0","0","3","","","","","","","","",""
"pit-trial","43","825206","0.0-2.0-14.0-4.0","battery-v0.2","","""event"",""trial"",""time""
""focus"",""1"",""12852""
""blur"",""1"",""14459""
""focus"",""1"",""123010""
""blur"",""1"",""125006""
""focus"",""1"",""125900""
""blur"",""1"",""126575""
""focus"",""1"",""197259""
""fullscreenenter"",""1"",""198882""
","""event"",""trial"",""time""
""blur"",""1"",""14459""
""blur"",""1"",""125006""
""blur"",""1"",""126575""
","""event"",""trial"",""time""
""focus"",""1"",""12852""
""focus"",""1"",""123010""
""focus"",""1"",""125900""
""focus"",""1"",""197259""
","""event"",""trial"",""time""
""fullscreenenter"",""1"",""198882""
","
","","","-1","","","23","1052","736","&#9826;","elianto","#f73b6a7A","-1","-1","1","0","[]","0","0","3","","","","","","","","",""
"pit-trial","44","830075","0.0-2.0-14.1-0.1","battery-v0.2","","""event"",""trial"",""time""
""focus"",""1"",""12852""
""blur"",""1"",""14459""
""focus"",""1"",""123010""
""blur"",""1"",""125006""
""focus"",""1"",""125900""
""blur"",""1"",""126575""
""focus"",""1"",""197259""
""fullscreenenter"",""1"",""198882""
","""event"",""trial"",""time""
""blur"",""1"",""14459""
""blur"",""1"",""125006""
""blur"",""1"",""126575""
","""event"",""trial"",""time""
""focus"",""1"",""12852""
""focus"",""1"",""123010""
""focus"",""1"",""125900""
""focus"",""1"",""197259""
","""event"",""trial"",""time""
""fullscreenenter"",""1"",""198882""
","
","","","-1","","","23","1052","736","&#9826;","elianto","#f73b6a7A","-1","-1","1","0","[]","0","0","3","","","","","","","","",""
"pit-trial","45","834955","0.0-2.0-14.1-1.1","battery-v0.2","","""event"",""trial"",""time""
""focus"",""1"",""12852""
""blur"",""1"",""14459""
""focus"",""1"",""123010""
""blur"",""1"",""125006""
""focus"",""1"",""125900""
""blur"",""1"",""126575""
""focus"",""1"",""197259""
""fullscreenenter"",""1"",""198882""
","""event"",""trial"",""time""
""blur"",""1"",""14459""
""blur"",""1"",""125006""
""blur"",""1"",""126575""
","""event"",""trial"",""time""
""focus"",""1"",""12852""
""focus"",""1"",""123010""
""focus"",""1"",""125900""
""focus"",""1"",""197259""
","""event"",""trial"",""time""
""fullscreenenter"",""1"",""198882""
","
","","","-1","","","23","1052","736","&#9826;","elianto","#f73b6a7A","-1","-1","1","0","[]","0","0","3","","","","","","","","",""
"pit-trial","46","839815","0.0-2.0-14.1-2.1","battery-v0.2","","""event"",""trial"",""time""
""focus"",""1"",""12852""
""blur"",""1"",""14459""
""focus"",""1"",""123010""
""blur"",""1"",""125006""
""focus"",""1"",""125900""
""blur"",""1"",""126575""
""focus"",""1"",""197259""
""fullscreenenter"",""1"",""198882""
","""event"",""trial"",""time""
""blur"",""1"",""14459""
""blur"",""1"",""125006""
""blur"",""1"",""126575""
","""event"",""trial"",""time""
""focus"",""1"",""12852""
""focus"",""1"",""123010""
""focus"",""1"",""125900""
""focus"",""1"",""197259""
","""event"",""trial"",""time""
""fullscreenenter"",""1"",""198882""
","
","","","-1","","","23","1052","736","&#9826;","elianto","#f73b6a7A","-1","-1","1","0","[]","0","0","3","","","","","","","","",""
"pit-trial","47","844686","0.0-2.0-14.1-3.1","battery-v0.2","","""event"",""trial"",""time""
""focus"",""1"",""12852""
""blur"",""1"",""14459""
""focus"",""1"",""123010""
""blur"",""1"",""125006""
""focus"",""1"",""125900""
""blur"",""1"",""126575""
""focus"",""1"",""197259""
""fullscreenenter"",""1"",""198882""
","""event"",""trial"",""time""
""blur"",""1"",""14459""
""blur"",""1"",""125006""
""blur"",""1"",""126575""
","""event"",""trial"",""time""
""focus"",""1"",""12852""
""focus"",""1"",""123010""
""focus"",""1"",""125900""
""focus"",""1"",""197259""
","""event"",""trial"",""time""
""fullscreenenter"",""1"",""198882""
","
","","","-1","","","23","1052","736","&#9826;","elianto","#f73b6a7A","-1","-1","1","-10","[]","0","0","3","","","","","","","","",""
"pit-trial","48","849565","0.0-2.0-14.1-4.1","battery-v0.2","","""event"",""trial"",""time""
""focus"",""1"",""12852""
""blur"",""1"",""14459""
""focus"",""1"",""123010""
""blur"",""1"",""125006""
""focus"",""1"",""125900""
""blur"",""1"",""126575""
""focus"",""1"",""197259""
""fullscreenenter"",""1"",""198882""
","""event"",""trial"",""time""
""blur"",""1"",""14459""
""blur"",""1"",""125006""
""blur"",""1"",""126575""
","""event"",""trial"",""time""
""focus"",""1"",""12852""
""focus"",""1"",""123010""
""focus"",""1"",""125900""
""focus"",""1"",""197259""
","""event"",""trial"",""time""
""fullscreenenter"",""1"",""198882""
","
","","","-1","","","23","1052","736","&#9826;","elianto","#f73b6a7A","-1","-1","1","0","[]","0","0","3","","","","","","","","",""
"call-function","49","849568","0.0-2.0-15.0","battery-v0.2","","""event"",""trial"",""time""
""focus"",""1"",""12852""
""blur"",""1"",""14459""
""focus"",""1"",""123010""
""blur"",""1"",""125006""
""focus"",""1"",""125900""
""blur"",""1"",""126575""
""focus"",""1"",""197259""
""fullscreenenter"",""1"",""198882""
","""event"",""trial"",""time""
""blur"",""1"",""14459""
""blur"",""1"",""125006""
""blur"",""1"",""126575""
","""event"",""trial"",""time""
""focus"",""1"",""12852""
""focus"",""1"",""123010""
""focus"",""1"",""125900""
""focus"",""1"",""197259""
","""event"",""trial"",""time""
""fullscreenenter"",""1"",""198882""
","
","","","","","","","","","","","","","","","","","","","","","","","","","","","",""
"pit-instructions","50","880912","0.0-2.0-16.0","battery-v0.2","","""event"",""trial"",""time""
""focus"",""1"",""12852""
""blur"",""1"",""14459""
""focus"",""1"",""123010""
""blur"",""1"",""125006""
""focus"",""1"",""125900""
""blur"",""1"",""126575""
""focus"",""1"",""197259""
""fullscreenenter"",""1"",""198882""
","""event"",""trial"",""time""
""blur"",""1"",""14459""
""blur"",""1"",""125006""
""blur"",""1"",""126575""
","""event"",""trial"",""time""
""focus"",""1"",""12852""
""focus"",""1"",""123010""
""focus"",""1"",""125900""
""focus"",""1"",""197259""
","""event"",""trial"",""time""
""fullscreenenter"",""1"",""198882""
","
","","[{""page_index"":0,""viewing_time"":7389},{""page_index"":1,""viewing_time"":10391},{""page_index"":2,""viewing_time"":6671},{""page_index"":3,""viewing_time"":6892}]","31343","","","","","","","","","","","","","","","","","","","","","","","","",""
"pit-trial","51","884150","0.0-2.0-17.0-0.0","battery-v0.2","","""event"",""trial"",""time""
""focus"",""1"",""12852""
""blur"",""1"",""14459""
""focus"",""1"",""123010""
""blur"",""1"",""125006""
""focus"",""1"",""125900""
""blur"",""1"",""126575""
""focus"",""1"",""197259""
""fullscreenenter"",""1"",""198882""
","""event"",""trial"",""time""
""blur"",""1"",""14459""
""blur"",""1"",""125006""
""blur"",""1"",""126575""
","""event"",""trial"",""time""
""focus"",""1"",""12852""
""focus"",""1"",""123010""
""focus"",""1"",""125900""
""focus"",""1"",""197259""
","""event"",""trial"",""time""
""fullscreenenter"",""1"",""198882""
","
","","","366","","","23","1052","736","&#9789;","elianto","#f73b6a7A"," "," ","1","0","[1228]","1","0","4","","","","","","","","",""
"pit-trial","52","887436","0.0-2.0-17.0-1.0","battery-v0.2","","""event"",""trial"",""time""
""focus"",""1"",""12852""
""blur"",""1"",""14459""
""focus"",""1"",""123010""
""blur"",""1"",""125006""
""focus"",""1"",""125900""
""blur"",""1"",""126575""
""focus"",""1"",""197259""
""fullscreenenter"",""1"",""198882""
","""event"",""trial"",""time""
""blur"",""1"",""14459""
""blur"",""1"",""125006""
""blur"",""1"",""126575""
","""event"",""trial"",""time""
""focus"",""1"",""12852""
""focus"",""1"",""123010""
""focus"",""1"",""125900""
""focus"",""1"",""197259""
","""event"",""trial"",""time""
""fullscreenenter"",""1"",""198882""
","
","","","415","","","23","1052","736","&#9789;","elianto","#f73b6a7A"," "," ","1","0","[811,1276]","2","0","4","","","","","","","","",""
"pit-trial","53","890616","0.0-2.0-17.0-2.0","battery-v0.2","","""event"",""trial"",""time""
""focus"",""1"",""12852""
""blur"",""1"",""14459""
""focus"",""1"",""123010""
""blur"",""1"",""125006""
""focus"",""1"",""125900""
""blur"",""1"",""126575""
""focus"",""1"",""197259""
""fullscreenenter"",""1"",""198882""
","""event"",""trial"",""time""
""blur"",""1"",""14459""
""blur"",""1"",""125006""
""blur"",""1"",""126575""
","""event"",""trial"",""time""
""focus"",""1"",""12852""
""focus"",""1"",""123010""
""focus"",""1"",""125900""
""focus"",""1"",""197259""
","""event"",""trial"",""time""
""fullscreenenter"",""1"",""198882""
","
","","","311","","","23","1052","736","&#9789;","elianto","#f73b6a7A"," "," ","1","0","[1167]","1","0","4","","","","","","","","",""
"pit-trial","54","895486","0.0-2.0-17.0-3.0","battery-v0.2","","""event"",""trial"",""time""
""focus"",""1"",""12852""
""blur"",""1"",""14459""
""focus"",""1"",""123010""
""blur"",""1"",""125006""
""focus"",""1"",""125900""
""blur"",""1"",""126575""
""focus"",""1"",""197259""
""fullscreenenter"",""1"",""198882""
","""event"",""trial"",""time""
""blur"",""1"",""14459""
""blur"",""1"",""125006""
""blur"",""1"",""126575""
","""event"",""trial"",""time""
""focus"",""1"",""12852""
""focus"",""1"",""123010""
""focus"",""1"",""125900""
""focus"",""1"",""197259""
","""event"",""trial"",""time""
""fullscreenenter"",""1"",""198882""
","
","","","-1","","","23","1052","736","&#9789;","elianto","#f73b6a7A"," ","-1","0","0","[]","0","0","4","","","","","","","","",""
"pit-trial","55","900366","0.0-2.0-17.0-4.0","battery-v0.2","","""event"",""trial"",""time""
""focus"",""1"",""12852""
""blur"",""1"",""14459""
""focus"",""1"",""123010""
""blur"",""1"",""125006""
""focus"",""1"",""125900""
""blur"",""1"",""126575""
""focus"",""1"",""197259""
""fullscreenenter"",""1"",""198882""
","""event"",""trial"",""time""
""blur"",""1"",""14459""
""blur"",""1"",""125006""
""blur"",""1"",""126575""
","""event"",""trial"",""time""
""focus"",""1"",""12852""
""focus"",""1"",""123010""
""focus"",""1"",""125900""
""focus"",""1"",""197259""
","""event"",""trial"",""time""
""fullscreenenter"",""1"",""198882""
","
","","","-1","","","23","1052","736","&#9789;","elianto","#f73b6a7A"," ","-1","0","-10","[]","0","0","4","","","","","","","","",""
"pit-trial","56","903642","0.0-2.0-17.1-0.1","battery-v0.2","","""event"",""trial"",""time""
""focus"",""1"",""12852""
""blur"",""1"",""14459""
""focus"",""1"",""123010""
""blur"",""1"",""125006""
""focus"",""1"",""125900""
""blur"",""1"",""126575""
""focus"",""1"",""197259""
""fullscreenenter"",""1"",""198882""
","""event"",""trial"",""time""
""blur"",""1"",""14459""
""blur"",""1"",""125006""
""blur"",""1"",""126575""
","""event"",""trial"",""time""
""focus"",""1"",""12852""
""focus"",""1"",""123010""
""focus"",""1"",""125900""
""focus"",""1"",""197259""
","""event"",""trial"",""time""
""fullscreenenter"",""1"",""198882""
","
","","","418","","","23","1052","736","&#9789;","elianto","#f73b6a7A"," "," ","1","0","[1269]","1","0","4","","","","","","","","",""
"pit-trial","57","906747","0.0-2.0-17.1-1.1","battery-v0.2","","""event"",""trial"",""time""
""focus"",""1"",""12852""
""blur"",""1"",""14459""
""focus"",""1"",""123010""
""blur"",""1"",""125006""
""focus"",""1"",""125900""
""blur"",""1"",""126575""
""focus"",""1"",""197259""
""fullscreenenter"",""1"",""198882""
","""event"",""trial"",""time""
""blur"",""1"",""14459""
""blur"",""1"",""125006""
""blur"",""1"",""126575""
","""event"",""trial"",""time""
""focus"",""1"",""12852""
""focus"",""1"",""123010""
""focus"",""1"",""125900""
""focus"",""1"",""197259""
","""event"",""trial"",""time""
""fullscreenenter"",""1"",""198882""
","
","","","228","","","23","1052","736","&#9789;","elianto","#f73b6a7A"," "," ","1","0","[1088]","1","0","4","","","","","","","","",""
"pit-trial","58","909695","0.0-2.0-17.1-2.1","battery-v0.2","","""event"",""trial"",""time""
""focus"",""1"",""12852""
""blur"",""1"",""14459""
""focus"",""1"",""123010""
""blur"",""1"",""125006""
""focus"",""1"",""125900""
""blur"",""1"",""126575""
""focus"",""1"",""197259""
""fullscreenenter"",""1"",""198882""
","""event"",""trial"",""time""
""blur"",""1"",""14459""
""blur"",""1"",""125006""
""blur"",""1"",""126575""
","""event"",""trial"",""time""
""focus"",""1"",""12852""
""focus"",""1"",""123010""
""focus"",""1"",""125900""
""focus"",""1"",""197259""
","""event"",""trial"",""time""
""fullscreenenter"",""1"",""198882""
","
","","","69","","","23","1052","736","&#9789;","elianto","#f73b6a7A"," "," ","1","0","[934]","1","0","4","","","","","","","","",""
"pit-trial","59","912816","0.0-2.0-17.1-3.1","battery-v0.2","","""event"",""trial"",""time""
""focus"",""1"",""12852""
""blur"",""1"",""14459""
""focus"",""1"",""123010""
""blur"",""1"",""125006""
""focus"",""1"",""125900""
""blur"",""1"",""126575""
""focus"",""1"",""197259""
""fullscreenenter"",""1"",""198882""
","""event"",""trial"",""time""
""blur"",""1"",""14459""
""blur"",""1"",""125006""
""blur"",""1"",""126575""
","""event"",""trial"",""time""
""focus"",""1"",""12852""
""focus"",""1"",""123010""
""focus"",""1"",""125900""
""focus"",""1"",""197259""
","""event"",""trial"",""time""
""fullscreenenter"",""1"",""198882""
","
","","","258","","","23","1052","736","&#9789;","elianto","#f73b6a7A"," "," ","1","-10","[769,1114]","2","0","4","","","","","","","","",""
"pit-trial","60","916656","0.0-2.0-17.1-4.1","battery-v0.2","","""event"",""trial"",""time""
""focus"",""1"",""12852""
""blur"",""1"",""14459""
""focus"",""1"",""123010""
""blur"",""1"",""125006""
""focus"",""1"",""125900""
""blur"",""1"",""126575""
""focus"",""1"",""197259""
""fullscreenenter"",""1"",""198882""
","""event"",""trial"",""time""
""blur"",""1"",""14459""
""blur"",""1"",""125006""
""blur"",""1"",""126575""
","""event"",""trial"",""time""
""focus"",""1"",""12852""
""focus"",""1"",""123010""
""focus"",""1"",""125900""
""focus"",""1"",""197259""
","""event"",""trial"",""time""
""fullscreenenter"",""1"",""198882""
","
","","","978","","","23","1052","736","&#9789;","elianto","#f73b6a7A"," "," ","1","0","[1834]","1","0","4","","","","","","","","",""
"call-function","61","916659","0.0-2.0-18.0","battery-v0.2","","""event"",""trial"",""time""
""focus"",""1"",""12852""
""blur"",""1"",""14459""
""focus"",""1"",""123010""
""blur"",""1"",""125006""
""focus"",""1"",""125900""
""blur"",""1"",""126575""
""focus"",""1"",""197259""
""fullscreenenter"",""1"",""198882""
","""event"",""trial"",""time""
""blur"",""1"",""14459""
""blur"",""1"",""125006""
""blur"",""1"",""126575""
","""event"",""trial"",""time""
""focus"",""1"",""12852""
""focus"",""1"",""123010""
""focus"",""1"",""125900""
""focus"",""1"",""197259""
","""event"",""trial"",""time""
""fullscreenenter"",""1"",""198882""
","
","","","","","","","","","","","","","","","","","","","","","","","","","","","",""
"pit-instructions","62","1002156","0.0-2.0-19.0","battery-v0.2","","""event"",""trial"",""time""
""focus"",""1"",""12852""
""blur"",""1"",""14459""
""focus"",""1"",""123010""
""blur"",""1"",""125006""
""focus"",""1"",""125900""
""blur"",""1"",""126575""
""focus"",""1"",""197259""
""fullscreenenter"",""1"",""198882""
","""event"",""trial"",""time""
""blur"",""1"",""14459""
""blur"",""1"",""125006""
""blur"",""1"",""126575""
","""event"",""trial"",""time""
""focus"",""1"",""12852""
""focus"",""1"",""123010""
""focus"",""1"",""125900""
""focus"",""1"",""197259""
","""event"",""trial"",""time""
""fullscreenenter"",""1"",""198882""
","
","","[{""page_index"":0,""viewing_time"":7355},{""page_index"":1,""viewing_time"":5470},{""page_index"":2,""viewing_time"":16998},{""page_index"":3,""viewing_time"":11826},{""page_index"":4,""viewing_time"":10412},{""page_index"":5,""viewing_time"":8714},{""page_index"":6,""viewing_time"":10364},{""page_index"":7,""viewing_time"":8326},{""page_index"":8,""viewing_time"":6030}]","85496","","","","","","","","","","","","","","","","","","","","","","","","",""
"pit-comprehension","63","1006513","0.0-2.0-20.0-0.0","battery-v0.2","","""event"",""trial"",""time""
""focus"",""1"",""12852""
""blur"",""1"",""14459""
""focus"",""1"",""123010""
""blur"",""1"",""125006""
""focus"",""1"",""125900""
""blur"",""1"",""126575""
""focus"",""1"",""197259""
""fullscreenenter"",""1"",""198882""
","""event"",""trial"",""time""
""blur"",""1"",""14459""
""blur"",""1"",""125006""
""blur"",""1"",""126575""
","""event"",""trial"",""time""
""focus"",""1"",""12852""
""focus"",""1"",""123010""
""focus"",""1"",""125900""
""focus"",""1"",""197259""
","""event"",""trial"",""time""
""fullscreenenter"",""1"",""198882""
","
","","","4355","[""SPACE""]","0","23","1052","736","","","","","","","","","","","","","","","","","","","",""
"pit-instructions","64","1008920","0.0-2.0-20.0-1.0","battery-v0.2","","""event"",""trial"",""time""
""focus"",""1"",""12852""
""blur"",""1"",""14459""
""focus"",""1"",""123010""
""blur"",""1"",""125006""
""focus"",""1"",""125900""
""blur"",""1"",""126575""
""focus"",""1"",""197259""
""fullscreenenter"",""1"",""198882""
","""event"",""trial"",""time""
""blur"",""1"",""14459""
""blur"",""1"",""125006""
""blur"",""1"",""126575""
","""event"",""trial"",""time""
""focus"",""1"",""12852""
""focus"",""1"",""123010""
""focus"",""1"",""125900""
""focus"",""1"",""197259""
","""event"",""trial"",""time""
""fullscreenenter"",""1"",""198882""
","
","","[{""page_index"":0,""viewing_time"":2386}]","2386","","","","","","","","","","","","","","","","","","","","","","","","",""
"pit-comprehension","65","1013436","0.0-2.0-21.0-0.0","battery-v0.2","","""event"",""trial"",""time""
""focus"",""1"",""12852""
""blur"",""1"",""14459""
""focus"",""1"",""123010""
""blur"",""1"",""125006""
""focus"",""1"",""125900""
""blur"",""1"",""126575""
""focus"",""1"",""197259""
""fullscreenenter"",""1"",""198882""
","""event"",""trial"",""time""
""blur"",""1"",""14459""
""blur"",""1"",""125006""
""blur"",""1"",""126575""
","""event"",""trial"",""time""
""focus"",""1"",""12852""
""focus"",""1"",""123010""
""focus"",""1"",""125900""
""focus"",""1"",""197259""
","""event"",""trial"",""time""
""fullscreenenter"",""1"",""198882""
","
","","","4513","[""10""]","0","23","1052","736","","","","","","","","","","","","","","","","","","","",""
"pit-instructions","66","1015801","0.0-2.0-21.0-1.0","battery-v0.2","","""event"",""trial"",""time""
""focus"",""1"",""12852""
""blur"",""1"",""14459""
""focus"",""1"",""123010""
""blur"",""1"",""125006""
""focus"",""1"",""125900""
""blur"",""1"",""126575""
""focus"",""1"",""197259""
""fullscreenenter"",""1"",""198882""
","""event"",""trial"",""time""
""blur"",""1"",""14459""
""blur"",""1"",""125006""
""blur"",""1"",""126575""
","""event"",""trial"",""time""
""focus"",""1"",""12852""
""focus"",""1"",""123010""
""focus"",""1"",""125900""
""focus"",""1"",""197259""
","""event"",""trial"",""time""
""fullscreenenter"",""1"",""198882""
","
","","[{""page_index"":0,""viewing_time"":2344}]","2344","","","","","","","","","","","","","","","","","","","","","","","","",""
"pit-comprehension","67","1022249","0.0-2.0-22.0-0.0","battery-v0.2","","""event"",""trial"",""time""
""focus"",""1"",""12852""
""blur"",""1"",""14459""
""focus"",""1"",""123010""
""blur"",""1"",""125006""
""focus"",""1"",""125900""
""blur"",""1"",""126575""
""focus"",""1"",""197259""
""fullscreenenter"",""1"",""198882""
","""event"",""trial"",""time""
""blur"",""1"",""14459""
""blur"",""1"",""125006""
""blur"",""1"",""126575""
","""event"",""trial"",""time""
""focus"",""1"",""12852""
""focus"",""1"",""123010""
""focus"",""1"",""125900""
""focus"",""1"",""197259""
","""event"",""trial"",""time""
""fullscreenenter"",""1"",""198882""
","
","","","6447","[""0""]","0","23","1052","736","","","","","","","","","","","","","","","","","","","",""
"pit-instructions","68","1023827","0.0-2.0-22.0-1.0","battery-v0.2","","""event"",""trial"",""time""
""focus"",""1"",""12852""
""blur"",""1"",""14459""
""focus"",""1"",""123010""
""blur"",""1"",""125006""
""focus"",""1"",""125900""
""blur"",""1"",""126575""
""focus"",""1"",""197259""
""fullscreenenter"",""1"",""198882""
","""event"",""trial"",""time""
""blur"",""1"",""14459""
""blur"",""1"",""125006""
""blur"",""1"",""126575""
","""event"",""trial"",""time""
""focus"",""1"",""12852""
""focus"",""1"",""123010""
""focus"",""1"",""125900""
""focus"",""1"",""197259""
","""event"",""trial"",""time""
""fullscreenenter"",""1"",""198882""
","
","","[{""page_index"":0,""viewing_time"":1557}]","1558","","","","","","","","","","","","","","","","","","","","","","","","",""
"pit-comprehension","69","1035773","0.0-2.0-23.0-0.0","battery-v0.2","","""event"",""trial"",""time""
""focus"",""1"",""12852""
""blur"",""1"",""14459""
""focus"",""1"",""123010""
""blur"",""1"",""125006""
""focus"",""1"",""125900""
""blur"",""1"",""126575""
""focus"",""1"",""197259""
""fullscreenenter"",""1"",""198882""
","""event"",""trial"",""time""
""blur"",""1"",""14459""
""blur"",""1"",""125006""
""blur"",""1"",""126575""
","""event"",""trial"",""time""
""focus"",""1"",""12852""
""focus"",""1"",""123010""
""focus"",""1"",""125900""
""focus"",""1"",""197259""
","""event"",""trial"",""time""
""fullscreenenter"",""1"",""198882""
","
","","","11944","[""True""]","0","23","1052","736","","","","","","","","","","","","","","","","","","","",""
"pit-instructions","70","1037150","0.0-2.0-23.0-1.0","battery-v0.2","","""event"",""trial"",""time""
""focus"",""1"",""12852""
""blur"",""1"",""14459""
""focus"",""1"",""123010""
""blur"",""1"",""125006""
""focus"",""1"",""125900""
""blur"",""1"",""126575""
""focus"",""1"",""197259""
""fullscreenenter"",""1"",""198882""
","""event"",""trial"",""time""
""blur"",""1"",""14459""
""blur"",""1"",""125006""
""blur"",""1"",""126575""
","""event"",""trial"",""time""
""focus"",""1"",""12852""
""focus"",""1"",""123010""
""focus"",""1"",""125900""
""focus"",""1"",""197259""
","""event"",""trial"",""time""
""fullscreenenter"",""1"",""198882""
","
","","[{""page_index"":0,""viewing_time"":1356}]","1356","","","","","","","","","","","","","","","","","","","","","","","","",""
"pit-comprehension","71","1044481","0.0-2.0-24.0-0.0","battery-v0.2","","""event"",""trial"",""time""
""focus"",""1"",""12852""
""blur"",""1"",""14459""
""focus"",""1"",""123010""
""blur"",""1"",""125006""
""focus"",""1"",""125900""
""blur"",""1"",""126575""
""focus"",""1"",""197259""
""fullscreenenter"",""1"",""198882""
","""event"",""trial"",""time""
""blur"",""1"",""14459""
""blur"",""1"",""125006""
""blur"",""1"",""126575""
","""event"",""trial"",""time""
""focus"",""1"",""12852""
""focus"",""1"",""123010""
""focus"",""1"",""125900""
""focus"",""1"",""197259""
","""event"",""trial"",""time""
""fullscreenenter"",""1"",""198882""
","
","","","7329","[""True""]","0","23","1052","736","","","","","","","","","","","","","","","","","","","",""
"pit-instructions","72","1046082","0.0-2.0-24.0-1.0","battery-v0.2","","""event"",""trial"",""time""
""focus"",""1"",""12852""
""blur"",""1"",""14459""
""focus"",""1"",""123010""
""blur"",""1"",""125006""
""focus"",""1"",""125900""
""blur"",""1"",""126575""
""focus"",""1"",""197259""
""fullscreenenter"",""1"",""198882""
","""event"",""trial"",""time""
""blur"",""1"",""14459""
""blur"",""1"",""125006""
""blur"",""1"",""126575""
","""event"",""trial"",""time""
""focus"",""1"",""12852""
""focus"",""1"",""123010""
""focus"",""1"",""125900""
""focus"",""1"",""197259""
","""event"",""trial"",""time""
""fullscreenenter"",""1"",""198882""
","
","","[{""page_index"":0,""viewing_time"":1579}]","1579","","","","","","","","","","","","","","","","","","","","","","","","",""
"pit-comprehension","73","1052468","0.0-2.0-25.0-0.0","battery-v0.2","","""event"",""trial"",""time""
""focus"",""1"",""12852""
""blur"",""1"",""14459""
""focus"",""1"",""123010""
""blur"",""1"",""125006""
""focus"",""1"",""125900""
""blur"",""1"",""126575""
""focus"",""1"",""197259""
""fullscreenenter"",""1"",""198882""
","""event"",""trial"",""time""
""blur"",""1"",""14459""
""blur"",""1"",""125006""
""blur"",""1"",""126575""
","""event"",""trial"",""time""
""focus"",""1"",""12852""
""focus"",""1"",""123010""
""focus"",""1"",""125900""
""focus"",""1"",""197259""
","""event"",""trial"",""time""
""fullscreenenter"",""1"",""198882""
","
","","","6383","[""True""]","0","23","1052","736","","","","","","","","","","","","","","","","","","","",""
"pit-instructions","74","1053834","0.0-2.0-25.0-1.0","battery-v0.2","","""event"",""trial"",""time""
""focus"",""1"",""12852""
""blur"",""1"",""14459""
""focus"",""1"",""123010""
""blur"",""1"",""125006""
""focus"",""1"",""125900""
""blur"",""1"",""126575""
""focus"",""1"",""197259""
""fullscreenenter"",""1"",""198882""
","""event"",""trial"",""time""
""blur"",""1"",""14459""
""blur"",""1"",""125006""
""blur"",""1"",""126575""
","""event"",""trial"",""time""
""focus"",""1"",""12852""
""focus"",""1"",""123010""
""focus"",""1"",""125900""
""focus"",""1"",""197259""
","""event"",""trial"",""time""
""fullscreenenter"",""1"",""198882""
","
","","[{""page_index"":0,""viewing_time"":1345}]","1345","","","","","","","","","","","","","","","","","","","","","","","","",""
"pit-comprehension","75","1058378","0.0-2.0-26.0-0.0","battery-v0.2","","""event"",""trial"",""time""
""focus"",""1"",""12852""
""blur"",""1"",""14459""
""focus"",""1"",""123010""
""blur"",""1"",""125006""
""focus"",""1"",""125900""
""blur"",""1"",""126575""
""focus"",""1"",""197259""
""fullscreenenter"",""1"",""198882""
","""event"",""trial"",""time""
""blur"",""1"",""14459""
""blur"",""1"",""125006""
""blur"",""1"",""126575""
","""event"",""trial"",""time""
""focus"",""1"",""12852""
""focus"",""1"",""123010""
""focus"",""1"",""125900""
""focus"",""1"",""197259""
","""event"",""trial"",""time""
""fullscreenenter"",""1"",""198882""
","
","","","4540","[""False""]","0","23","1052","736","","","","","","","","","","","","","","","","","","","",""
"pit-instructions","76","1059814","0.0-2.0-26.0-1.0","battery-v0.2","","""event"",""trial"",""time""
""focus"",""1"",""12852""
""blur"",""1"",""14459""
""focus"",""1"",""123010""
""blur"",""1"",""125006""
""focus"",""1"",""125900""
""blur"",""1"",""126575""
""focus"",""1"",""197259""
""fullscreenenter"",""1"",""198882""
","""event"",""trial"",""time""
""blur"",""1"",""14459""
""blur"",""1"",""125006""
""blur"",""1"",""126575""
","""event"",""trial"",""time""
""focus"",""1"",""12852""
""focus"",""1"",""123010""
""focus"",""1"",""125900""
""focus"",""1"",""197259""
","""event"",""trial"",""time""
""fullscreenenter"",""1"",""198882""
","
","","[{""page_index"":0,""viewing_time"":1414}]","1414","","","","","","","","","","","","","","","","","","","","","","","","",""
"pit-instructions","77","1093958","0.0-3.0","battery-v0.2","","""event"",""trial"",""time""
""focus"",""1"",""12852""
""blur"",""1"",""14459""
""focus"",""1"",""123010""
""blur"",""1"",""125006""
""focus"",""1"",""125900""
""blur"",""1"",""126575""
""focus"",""1"",""197259""
""fullscreenenter"",""1"",""198882""
","""event"",""trial"",""time""
""blur"",""1"",""14459""
""blur"",""1"",""125006""
""blur"",""1"",""126575""
","""event"",""trial"",""time""
""focus"",""1"",""12852""
""focus"",""1"",""123010""
""focus"",""1"",""125900""
""focus"",""1"",""197259""
","""event"",""trial"",""time""
""fullscreenenter"",""1"",""198882""
","
","","[{""page_index"":0,""viewing_time"":3408},{""page_index"":1,""viewing_time"":6292},{""page_index"":2,""viewing_time"":24441}]","34142","","","","","","","","","","","","","","","","","","","","","","","","",""
"pit-trial","78","1097824","0.0-4.0","battery-v0.2","","""event"",""trial"",""time""
""focus"",""1"",""12852""
""blur"",""1"",""14459""
""focus"",""1"",""123010""
""blur"",""1"",""125006""
""focus"",""1"",""125900""
""blur"",""1"",""126575""
""focus"",""1"",""197259""
""fullscreenenter"",""1"",""198882""
","""event"",""trial"",""time""
""blur"",""1"",""14459""
""blur"",""1"",""125006""
""blur"",""1"",""126575""
","""event"",""trial"",""time""
""focus"",""1"",""12852""
""focus"",""1"",""123010""
""focus"",""1"",""125900""
""focus"",""1"",""197259""
","""event"",""trial"",""time""
""fullscreenenter"",""1"",""198882""
","
","","","1001","","","23","1052","736","&#9728;","elianto","#f73b6a7A","-1"," ","0","0","[1855]","1","1","","","1052","1","0","4","lose","no-go","1","[]"
"pit-trial","79","1101545","0.0-5.0","battery-v0.2","","""event"",""trial"",""time""
""focus"",""1"",""12852""
""blur"",""1"",""14459""
""focus"",""1"",""123010""
""blur"",""1"",""125006""
""focus"",""1"",""125900""
""blur"",""1"",""126575""
""focus"",""1"",""197259""
""fullscreenenter"",""1"",""198882""
","""event"",""trial"",""time""
""blur"",""1"",""14459""
""blur"",""1"",""125006""
""blur"",""1"",""126575""
","""event"",""trial"",""time""
""focus"",""1"",""12852""
""focus"",""1"",""123010""
""focus"",""1"",""125900""
""focus"",""1"",""197259""
","""event"",""trial"",""time""
""fullscreenenter"",""1"",""198882""
","
","","","849","","","23","1052","736","&#9733;","elianto","#3366ff99","-1"," ","0","0","[1705]","1","1","","","1052","2","2","2","win","no-go","0","0"
"pit-trial","80","1105184","0.0-6.0","battery-v0.2","","""event"",""trial"",""time""
""focus"",""1"",""12852""
""blur"",""1"",""14459""
""focus"",""1"",""123010""
""blur"",""1"",""125006""
""focus"",""1"",""125900""
""blur"",""1"",""126575""
""focus"",""1"",""197259""
""fullscreenenter"",""1"",""198882""
","""event"",""trial"",""time""
""blur"",""1"",""14459""
""blur"",""1"",""125006""
""blur"",""1"",""126575""
","""event"",""trial"",""time""
""focus"",""1"",""12852""
""focus"",""1"",""123010""
""focus"",""1"",""125900""
""focus"",""1"",""197259""
","""event"",""trial"",""time""
""fullscreenenter"",""1"",""198882""
","
","","","768","","","23","1052","736","&#9730;","elianto","#3366ff99"," "," ","1","+10","[1623]","1","1","","","1052","3","1","1","win","go","0","0"
"pit-trial","81","1108946","0.0-7.0","battery-v0.2","","""event"",""trial"",""time""
""focus"",""1"",""12852""
""blur"",""1"",""14459""
""focus"",""1"",""123010""
""blur"",""1"",""125006""
""focus"",""1"",""125900""
""blur"",""1"",""126575""
""focus"",""1"",""197259""
""fullscreenenter"",""1"",""198882""
","""event"",""trial"",""time""
""blur"",""1"",""14459""
""blur"",""1"",""125006""
""blur"",""1"",""126575""
","""event"",""trial"",""time""
""focus"",""1"",""12852""
""focus"",""1"",""123010""
""focus"",""1"",""125900""
""focus"",""1"",""197259""
","""event"",""trial"",""time""
""fullscreenenter"",""1"",""198882""
","
","","","888","","","23","1052","736","&#9752;","elianto","#f73b6a7A"," "," ","1","0","[1755]","1","1","","","1052","4","3","3","lose","go","0","0"
"pit-trial","82","1112627","0.0-8.0","battery-v0.2","","""event"",""trial"",""time""
""focus"",""1"",""12852""
""blur"",""1"",""14459""
""focus"",""1"",""123010""
""blur"",""1"",""125006""
""focus"",""1"",""125900""
""blur"",""1"",""126575""
""focus"",""1"",""197259""
""fullscreenenter"",""1"",""198882""
","""event"",""trial"",""time""
""blur"",""1"",""14459""
""blur"",""1"",""125006""
""blur"",""1"",""126575""
","""event"",""trial"",""time""
""focus"",""1"",""12852""
""focus"",""1"",""123010""
""focus"",""1"",""125900""
""focus"",""1"",""197259""
","""event"",""trial"",""time""
""fullscreenenter"",""1"",""198882""
","
","","","817","","","23","1052","736","&#9730;","elianto","#3366ff99"," "," ","1","+10","[1673]","1","1","","","1052","5","1","1","win","go","0","0"
"pit-trial","83","1116756","0.0-9.0","battery-v0.2","","""event"",""trial"",""time""
""focus"",""1"",""12852""
""blur"",""1"",""14459""
""focus"",""1"",""123010""
""blur"",""1"",""125006""
""focus"",""1"",""125900""
""blur"",""1"",""126575""
""focus"",""1"",""197259""
""fullscreenenter"",""1"",""198882""
","""event"",""trial"",""time""
""blur"",""1"",""14459""
""blur"",""1"",""125006""
""blur"",""1"",""126575""
","""event"",""trial"",""time""
""focus"",""1"",""12852""
""focus"",""1"",""123010""
""focus"",""1"",""125900""
""focus"",""1"",""197259""
","""event"",""trial"",""time""
""fullscreenenter"",""1"",""198882""
","
","","","1265","","","23","1052","736","&#9752;","elianto","#f73b6a7A"," "," ","1","0","[2119]","1","1","","","1052","6","3","3","lose","go","0","0"
"pit-trial","84","1120576","0.0-10.0","battery-v0.2","","""event"",""trial"",""time""
""focus"",""1"",""12852""
""blur"",""1"",""14459""
""focus"",""1"",""123010""
""blur"",""1"",""125006""
""focus"",""1"",""125900""
""blur"",""1"",""126575""
""focus"",""1"",""197259""
""fullscreenenter"",""1"",""198882""
","""event"",""trial"",""time""
""blur"",""1"",""14459""
""blur"",""1"",""125006""
""blur"",""1"",""126575""
","""event"",""trial"",""time""
""focus"",""1"",""12852""
""focus"",""1"",""123010""
""focus"",""1"",""125900""
""focus"",""1"",""197259""
","""event"",""trial"",""time""
""fullscreenenter"",""1"",""198882""
","
","","","960","","","23","1052","736","&#9733;","elianto","#3366ff99","-1"," ","0","0","[1814]","1","1","","","1052","7","2","2","win","no-go","0","0"
"pit-trial","85","1124616","0.0-11.0","battery-v0.2","","""event"",""trial"",""time""
""focus"",""1"",""12852""
""blur"",""1"",""14459""
""focus"",""1"",""123010""
""blur"",""1"",""125006""
""focus"",""1"",""125900""
""blur"",""1"",""126575""
""focus"",""1"",""197259""
""fullscreenenter"",""1"",""198882""
","""event"",""trial"",""time""
""blur"",""1"",""14459""
""blur"",""1"",""125006""
""blur"",""1"",""126575""
","""event"",""trial"",""time""
""focus"",""1"",""12852""
""focus"",""1"",""123010""
""focus"",""1"",""125900""
""focus"",""1"",""197259""
","""event"",""trial"",""time""
""fullscreenenter"",""1"",""198882""
","
","","","1163","","","23","1052","736","&#9728;","elianto","#f73b6a7A","-1"," ","0","-10","[2019]","1","1","","","1052","8","0","4","lose","no-go","0","0"
"pit-trial","86","1128876","0.0-12.0","battery-v0.2","","""event"",""trial"",""time""
""focus"",""1"",""12852""
""blur"",""1"",""14459""
""focus"",""1"",""123010""
""blur"",""1"",""125006""
""focus"",""1"",""125900""
""blur"",""1"",""126575""
""focus"",""1"",""197259""
""fullscreenenter"",""1"",""198882""
","""event"",""trial"",""time""
""blur"",""1"",""14459""
""blur"",""1"",""125006""
""blur"",""1"",""126575""
","""event"",""trial"",""time""
""focus"",""1"",""12852""
""focus"",""1"",""123010""
""focus"",""1"",""125900""
""focus"",""1"",""197259""
","""event"",""trial"",""time""
""fullscreenenter"",""1"",""198882""
","
","","","1395","","","23","1052","736","&#9730;","elianto","#3366ff99"," "," ","1","+10","[2251]","1","1","","","1052","9","1","1","win","go","0","0"
"pit-trial","87","1133736","0.0-13.0","battery-v0.2","","""event"",""trial"",""time""
""focus"",""1"",""12852""
""blur"",""1"",""14459""
""focus"",""1"",""123010""
""blur"",""1"",""125006""
""focus"",""1"",""125900""
""blur"",""1"",""126575""
""focus"",""1"",""197259""
""fullscreenenter"",""1"",""198882""
","""event"",""trial"",""time""
""blur"",""1"",""14459""
""blur"",""1"",""125006""
""blur"",""1"",""126575""
","""event"",""trial"",""time""
""focus"",""1"",""12852""
""focus"",""1"",""123010""
""focus"",""1"",""125900""
""focus"",""1"",""197259""
","""event"",""trial"",""time""
""fullscreenenter"",""1"",""198882""
","
","","","-1","","","23","1052","736","&#9728;","elianto","#f73b6a7A","-1","-1","1","0","[]","0","1","","","1052","10","0","4","lose","no-go","0","0"
"pit-trial","88","1137267","0.0-14.0","battery-v0.2","","""event"",""trial"",""time""
""focus"",""1"",""12852""
""blur"",""1"",""14459""
""focus"",""1"",""123010""
""blur"",""1"",""125006""
""focus"",""1"",""125900""
""blur"",""1"",""126575""
""focus"",""1"",""197259""
""fullscreenenter"",""1"",""198882""
","""event"",""trial"",""time""
""blur"",""1"",""14459""
""blur"",""1"",""125006""
""blur"",""1"",""126575""
","""event"",""trial"",""time""
""focus"",""1"",""12852""
""focus"",""1"",""123010""
""focus"",""1"",""125900""
""focus"",""1"",""197259""
","""event"",""trial"",""time""
""fullscreenenter"",""1"",""198882""
","
","","","657","","","23","1052","736","&#9752;","elianto","#f73b6a7A"," "," ","1","0","[1523]","1","1","","","1052","11","3","3","lose","go","0","0"
"pit-trial","89","1142147","0.0-15.0","battery-v0.2","","""event"",""trial"",""time""
""focus"",""1"",""12852""
""blur"",""1"",""14459""
""focus"",""1"",""123010""
""blur"",""1"",""125006""
""focus"",""1"",""125900""
""blur"",""1"",""126575""
""focus"",""1"",""197259""
""fullscreenenter"",""1"",""198882""
","""event"",""trial"",""time""
""blur"",""1"",""14459""
""blur"",""1"",""125006""
""blur"",""1"",""126575""
","""event"",""trial"",""time""
""focus"",""1"",""12852""
""focus"",""1"",""123010""
""focus"",""1"",""125900""
""focus"",""1"",""197259""
","""event"",""trial"",""time""
""fullscreenenter"",""1"",""198882""
","
","","","-1","","","23","1052","736","&#9733;","elianto","#3366ff99","-1","-1","1","+10","[]","0","1","","","1052","12","2","2","win","no-go","0","0"
"pit-trial","90","1146036","0.0-16.0","battery-v0.2","","""event"",""trial"",""time""
""focus"",""1"",""12852""
""blur"",""1"",""14459""
""focus"",""1"",""123010""
""blur"",""1"",""125006""
""focus"",""1"",""125900""
""blur"",""1"",""126575""
""focus"",""1"",""197259""
""fullscreenenter"",""1"",""198882""
","""event"",""trial"",""time""
""blur"",""1"",""14459""
""blur"",""1"",""125006""
""blur"",""1"",""126575""
","""event"",""trial"",""time""
""focus"",""1"",""12852""
""focus"",""1"",""123010""
""focus"",""1"",""125900""
""focus"",""1"",""197259""
","""event"",""trial"",""time""
""fullscreenenter"",""1"",""198882""
","
","","","1013","","","23","1052","736","&#9730;","elianto","#3366ff99"," "," ","1","+10","[1879]","1","1","","","1052","13","1","1","win","go","0","0"
"pit-trial","91","1150897","0.0-17.0","battery-v0.2","","""event"",""trial"",""time""
""focus"",""1"",""12852""
""blur"",""1"",""14459""
""focus"",""1"",""123010""
""blur"",""1"",""125006""
""focus"",""1"",""125900""
""blur"",""1"",""126575""
""focus"",""1"",""197259""
""fullscreenenter"",""1"",""198882""
","""event"",""trial"",""time""
""blur"",""1"",""14459""
""blur"",""1"",""125006""
""blur"",""1"",""126575""
","""event"",""trial"",""time""
""focus"",""1"",""12852""
""focus"",""1"",""123010""
""focus"",""1"",""125900""
""focus"",""1"",""197259""
","""event"",""trial"",""time""
""fullscreenenter"",""1"",""198882""
","
","","","-1","","","23","1052","736","&#9728;","elianto","#f73b6a7A","-1","-1","1","0","[]","0","1","","","1052","14","0","4","lose","no-go","0","0"
"pit-trial","92","1155777","0.0-18.0","battery-v0.2","","""event"",""trial"",""time""
""focus"",""1"",""12852""
""blur"",""1"",""14459""
""focus"",""1"",""123010""
""blur"",""1"",""125006""
""focus"",""1"",""125900""
""blur"",""1"",""126575""
""focus"",""1"",""197259""
""fullscreenenter"",""1"",""198882""
","""event"",""trial"",""time""
""blur"",""1"",""14459""
""blur"",""1"",""125006""
""blur"",""1"",""126575""
","""event"",""trial"",""time""
""focus"",""1"",""12852""
""focus"",""1"",""123010""
""focus"",""1"",""125900""
""focus"",""1"",""197259""
","""event"",""trial"",""time""
""fullscreenenter"",""1"",""198882""
","
","","","-1","","","23","1052","736","&#9733;","elianto","#3366ff99","-1","-1","1","+10","[]","0","1","","","1052","15","2","2","win","no-go","0","0"
"pit-trial","93","1159318","0.0-19.0","battery-v0.2","","""event"",""trial"",""time""
""focus"",""1"",""12852""
""blur"",""1"",""14459""
""focus"",""1"",""123010""
""blur"",""1"",""125006""
""focus"",""1"",""125900""
""blur"",""1"",""126575""
""focus"",""1"",""197259""
""fullscreenenter"",""1"",""198882""
","""event"",""trial"",""time""
""blur"",""1"",""14459""
""blur"",""1"",""125006""
""blur"",""1"",""126575""
","""event"",""trial"",""time""
""focus"",""1"",""12852""
""focus"",""1"",""123010""
""focus"",""1"",""125900""
""focus"",""1"",""197259""
","""event"",""trial"",""time""
""fullscreenenter"",""1"",""198882""
","
","","","675","","","23","1052","736","&#9752;","elianto","#f73b6a7A"," "," ","1","-10","[1531]","1","1","","","1052","16","3","3","lose","go","1","0"
"pit-trial","94","1164197","0.0-20.0","battery-v0.2","","""event"",""trial"",""time""
""focus"",""1"",""12852""
""blur"",""1"",""14459""
""focus"",""1"",""123010""
""blur"",""1"",""125006""
""focus"",""1"",""125900""
""blur"",""1"",""126575""
""focus"",""1"",""197259""
""fullscreenenter"",""1"",""198882""
","""event"",""trial"",""time""
""blur"",""1"",""14459""
""blur"",""1"",""125006""
""blur"",""1"",""126575""
","""event"",""trial"",""time""
""focus"",""1"",""12852""
""focus"",""1"",""123010""
""focus"",""1"",""125900""
""focus"",""1"",""197259""
","""event"",""trial"",""time""
""fullscreenenter"",""1"",""198882""
","
","","","-1","","","23","1052","736","&#9728;","elianto","#f73b6a7A","-1","-1","1","0","[]","0","1","","","1052","17","0","4","lose","no-go","0","0"
"pit-trial","95","1167765","0.0-21.0","battery-v0.2","","""event"",""trial"",""time""
""focus"",""1"",""12852""
""blur"",""1"",""14459""
""focus"",""1"",""123010""
""blur"",""1"",""125006""
""focus"",""1"",""125900""
""blur"",""1"",""126575""
""focus"",""1"",""197259""
""fullscreenenter"",""1"",""198882""
","""event"",""trial"",""time""
""blur"",""1"",""14459""
""blur"",""1"",""125006""
""blur"",""1"",""126575""
","""event"",""trial"",""time""
""focus"",""1"",""12852""
""focus"",""1"",""123010""
""focus"",""1"",""125900""
""focus"",""1"",""197259""
","""event"",""trial"",""time""
""fullscreenenter"",""1"",""198882""
","
","","","695","","","23","1052","736","&#9752;","elianto","#f73b6a7A"," "," ","1","0","[1551]","1","1","","","1052","18","3","3","lose","go","0","0"
"pit-trial","96","1171166","0.0-22.0","battery-v0.2","","""event"",""trial"",""time""
""focus"",""1"",""12852""
""blur"",""1"",""14459""
""focus"",""1"",""123010""
""blur"",""1"",""125006""
""focus"",""1"",""125900""
""blur"",""1"",""126575""
""focus"",""1"",""197259""
""fullscreenenter"",""1"",""198882""
","""event"",""trial"",""time""
""blur"",""1"",""14459""
""blur"",""1"",""125006""
""blur"",""1"",""126575""
","""event"",""trial"",""time""
""focus"",""1"",""12852""
""focus"",""1"",""123010""
""focus"",""1"",""125900""
""focus"",""1"",""197259""
","""event"",""trial"",""time""
""fullscreenenter"",""1"",""198882""
","
","","","525","","","23","1052","736","&#9730;","elianto","#3366ff99"," "," ","1","0","[1381]","1","1","","","1052","19","1","1","win","go","1","0"
"pit-trial","97","1176046","0.0-23.0","battery-v0.2","","""event"",""trial"",""time""
""focus"",""1"",""12852""
""blur"",""1"",""14459""
""focus"",""1"",""123010""
""blur"",""1"",""125006""
""focus"",""1"",""125900""
""blur"",""1"",""126575""
""focus"",""1"",""197259""
""fullscreenenter"",""1"",""198882""
","""event"",""trial"",""time""
""blur"",""1"",""14459""
""blur"",""1"",""125006""
""blur"",""1"",""126575""
","""event"",""trial"",""time""
""focus"",""1"",""12852""
""focus"",""1"",""123010""
""focus"",""1"",""125900""
""focus"",""1"",""197259""
","""event"",""trial"",""time""
""fullscreenenter"",""1"",""198882""
","
","","","-1","","","23","1052","736","&#9733;","elianto","#3366ff99","-1","-1","1","+10","[]","0","1","","","1052","20","2","2","win","no-go","0","0"
"pit-instructions","98","1198908","0.0-24.0","battery-v0.2","","""event"",""trial"",""time""
""focus"",""1"",""12852""
""blur"",""1"",""14459""
""focus"",""1"",""123010""
""blur"",""1"",""125006""
""focus"",""1"",""125900""
""blur"",""1"",""126575""
""focus"",""1"",""197259""
""fullscreenenter"",""1"",""198882""
","""event"",""trial"",""time""
""blur"",""1"",""14459""
""blur"",""1"",""125006""
""blur"",""1"",""126575""
","""event"",""trial"",""time""
""focus"",""1"",""12852""
""focus"",""1"",""123010""
""focus"",""1"",""125900""
""focus"",""1"",""197259""
","""event"",""trial"",""time""
""fullscreenenter"",""1"",""198882""
","
","","[{""page_index"":0,""viewing_time"":15805},{""page_index"":1,""viewing_time"":7054}]","22859","","","","","","","","","","","","","","","","","","","","","","","","",""
"pit-trial","99","1202712","0.0-25.0","battery-v0.2","","""event"",""trial"",""time""
""focus"",""1"",""12852""
""blur"",""1"",""14459""
""focus"",""1"",""123010""
""blur"",""1"",""125006""
""focus"",""1"",""125900""
""blur"",""1"",""126575""
""focus"",""1"",""197259""
""fullscreenenter"",""1"",""198882""
","""event"",""trial"",""time""
""blur"",""1"",""14459""
""blur"",""1"",""125006""
""blur"",""1"",""126575""
","""event"",""trial"",""time""
""focus"",""1"",""12852""
""focus"",""1"",""123010""
""focus"",""1"",""125900""
""focus"",""1"",""197259""
","""event"",""trial"",""time""
""fullscreenenter"",""1"",""198882""
","
","","","925","","","23","1052","736","l","elianto","#f73b6a7A"," "," ","1","0","[1791]","1","2","","","1052","21","1","3","lose","go","0","0"
"pit-trial","100","1206366","0.0-26.0","battery-v0.2","","""event"",""trial"",""time""
""focus"",""1"",""12852""
""blur"",""1"",""14459""
""focus"",""1"",""123010""
""blur"",""1"",""125006""
""focus"",""1"",""125900""
""blur"",""1"",""126575""
""focus"",""1"",""197259""
""fullscreenenter"",""1"",""198882""
","""event"",""trial"",""time""
""blur"",""1"",""14459""
""blur"",""1"",""125006""
""blur"",""1"",""126575""
","""event"",""trial"",""time""
""focus"",""1"",""12852""
""focus"",""1"",""123010""
""focus"",""1"",""125900""
""focus"",""1"",""197259""
","""event"",""trial"",""time""
""fullscreenenter"",""1"",""198882""
","
","","","782","","","23","1052","736","g","elianto","#3366ff99"," "," ","1","+10","[1642]","1","2","","","1052","22","3","1","win","go","0","0"
"pit-trial","101","1209936","0.0-27.0","battery-v0.2","","""event"",""trial"",""time""
""focus"",""1"",""12852""
""blur"",""1"",""14459""
""focus"",""1"",""123010""
""blur"",""1"",""125006""
""focus"",""1"",""125900""
""blur"",""1"",""126575""
""focus"",""1"",""197259""
""fullscreenenter"",""1"",""198882""
","""event"",""trial"",""time""
""blur"",""1"",""14459""
""blur"",""1"",""125006""
""blur"",""1"",""126575""
","""event"",""trial"",""time""
""focus"",""1"",""12852""
""focus"",""1"",""123010""
""focus"",""1"",""125900""
""focus"",""1"",""197259""
","""event"",""trial"",""time""
""fullscreenenter"",""1"",""198882""
","
","","","693","","","23","1052","736","a","elianto","#f73b6a7A","-1"," ","0","-10","[1549]","1","2","","","1052","23","2","4","lose","no-go","0","0"
"pit-trial","102","1213437","0.0-28.0","battery-v0.2","","""event"",""trial"",""time""
""focus"",""1"",""12852""
""blur"",""1"",""14459""
""focus"",""1"",""123010""
""blur"",""1"",""125006""
""focus"",""1"",""125900""
""blur"",""1"",""126575""
""focus"",""1"",""197259""
""fullscreenenter"",""1"",""198882""
","""event"",""trial"",""time""
""blur"",""1"",""14459""
""blur"",""1"",""125006""
""blur"",""1"",""126575""
","""event"",""trial"",""time""
""focus"",""1"",""12852""
""focus"",""1"",""123010""
""focus"",""1"",""125900""
""focus"",""1"",""197259""
","""event"",""trial"",""time""
""fullscreenenter"",""1"",""198882""
","
","","","633","","","23","1052","736","u","elianto","#3366ff99","-1"," ","0","0","[1490]","1","2","","","1052","24","0","2","win","no-go","0","0"
"pit-trial","103","1217187","0.0-29.0","battery-v0.2","","""event"",""trial"",""time""
""focus"",""1"",""12852""
""blur"",""1"",""14459""
""focus"",""1"",""123010""
""blur"",""1"",""125006""
""focus"",""1"",""125900""
""blur"",""1"",""126575""
""focus"",""1"",""197259""
""fullscreenenter"",""1"",""198882""
","""event"",""trial"",""time""
""blur"",""1"",""14459""
""blur"",""1"",""125006""
""blur"",""1"",""126575""
","""event"",""trial"",""time""
""focus"",""1"",""12852""
""focus"",""1"",""123010""
""focus"",""1"",""125900""
""focus"",""1"",""197259""
","""event"",""trial"",""time""
""fullscreenenter"",""1"",""198882""
","
","","","878","","","23","1052","736","l","elianto","#f73b6a7A"," "," ","1","-10","[1734]","1","2","","","1052","25","1","3","lose","go","1","0"
"pit-trial","104","1221187","0.0-30.0","battery-v0.2","","""event"",""trial"",""time""
""focus"",""1"",""12852""
""blur"",""1"",""14459""
""focus"",""1"",""123010""
""blur"",""1"",""125006""
""focus"",""1"",""125900""
""blur"",""1"",""126575""
""focus"",""1"",""197259""
""fullscreenenter"",""1"",""198882""
","""event"",""trial"",""time""
""blur"",""1"",""14459""
""blur"",""1"",""125006""
""blur"",""1"",""126575""
","""event"",""trial"",""time""
""focus"",""1"",""12852""
""focus"",""1"",""123010""
""focus"",""1"",""125900""
""focus"",""1"",""197259""
","""event"",""trial"",""time""
""fullscreenenter"",""1"",""198882""
","
","","","1129","","","23","1052","736","a","elianto","#f73b6a7A","-1"," ","0","0","[1984]","1","2","","","1052","26","2","4","lose","no-go","1","0"
"pit-trial","105","1224687","0.0-31.0","battery-v0.2","","""event"",""trial"",""time""
""focus"",""1"",""12852""
""blur"",""1"",""14459""
""focus"",""1"",""123010""
""blur"",""1"",""125006""
""focus"",""1"",""125900""
""blur"",""1"",""126575""
""focus"",""1"",""197259""
""fullscreenenter"",""1"",""198882""
","""event"",""trial"",""time""
""blur"",""1"",""14459""
""blur"",""1"",""125006""
""blur"",""1"",""126575""
","""event"",""trial"",""time""
""focus"",""1"",""12852""
""focus"",""1"",""123010""
""focus"",""1"",""125900""
""focus"",""1"",""197259""
","""event"",""trial"",""time""
""fullscreenenter"",""1"",""198882""
","
","","","632","","","23","1052","736","u","elianto","#3366ff99","-1"," ","0","0","[1488]","1","2","","","1052","27","0","2","win","no-go","0","0"
"pit-trial","106","1228697","0.0-32.0","battery-v0.2","","""event"",""trial"",""time""
""focus"",""1"",""12852""
""blur"",""1"",""14459""
""focus"",""1"",""123010""
""blur"",""1"",""125006""
""focus"",""1"",""125900""
""blur"",""1"",""126575""
""focus"",""1"",""197259""
""fullscreenenter"",""1"",""198882""
","""event"",""trial"",""time""
""blur"",""1"",""14459""
""blur"",""1"",""125006""
""blur"",""1"",""126575""
","""event"",""trial"",""time""
""focus"",""1"",""12852""
""focus"",""1"",""123010""
""focus"",""1"",""125900""
""focus"",""1"",""197259""
","""event"",""trial"",""time""
""fullscreenenter"",""1"",""198882""
","
","","","1131","","","23","1052","736","g","elianto","#3366ff99"," "," ","1","0","[1986]","1","2","","","1052","28","3","1","win","go","1","0"
"pit-trial","107","1232097","0.0-33.0","battery-v0.2","","""event"",""trial"",""time""
""focus"",""1"",""12852""
""blur"",""1"",""14459""
""focus"",""1"",""123010""
""blur"",""1"",""125006""
""focus"",""1"",""125900""
""blur"",""1"",""126575""
""focus"",""1"",""197259""
""fullscreenenter"",""1"",""198882""
","""event"",""trial"",""time""
""blur"",""1"",""14459""
""blur"",""1"",""125006""
""blur"",""1"",""126575""
","""event"",""trial"",""time""
""focus"",""1"",""12852""
""focus"",""1"",""123010""
""focus"",""1"",""125900""
""focus"",""1"",""197259""
","""event"",""trial"",""time""
""fullscreenenter"",""1"",""198882""
","
","","","523","","","23","1052","736","u","elianto","#3366ff99","-1"," ","0","0","[1378]","1","2","","","1052","29","0","2","win","no-go","0","0"
"pit-trial","108","1236956","0.0-34.0","battery-v0.2","","""event"",""trial"",""time""
""focus"",""1"",""12852""
""blur"",""1"",""14459""
""focus"",""1"",""123010""
""blur"",""1"",""125006""
""focus"",""1"",""125900""
""blur"",""1"",""126575""
""focus"",""1"",""197259""
""fullscreenenter"",""1"",""198882""
","""event"",""trial"",""time""
""blur"",""1"",""14459""
""blur"",""1"",""125006""
""blur"",""1"",""126575""
","""event"",""trial"",""time""
""focus"",""1"",""12852""
""focus"",""1"",""123010""
""focus"",""1"",""125900""
""focus"",""1"",""197259""
","""event"",""trial"",""time""
""fullscreenenter"",""1"",""198882""
","
","","","-1","","","23","1052","736","a","elianto","#f73b6a7A","-1","-1","1","0","[]","0","2","","","1052","30","2","4","lose","no-go","0","0"
"pit-trial","109","1241837","0.0-35.0","battery-v0.2","","""event"",""trial"",""time""
""focus"",""1"",""12852""
""blur"",""1"",""14459""
""focus"",""1"",""123010""
""blur"",""1"",""125006""
""focus"",""1"",""125900""
""blur"",""1"",""126575""
""focus"",""1"",""197259""
""fullscreenenter"",""1"",""198882""
","""event"",""trial"",""time""
""blur"",""1"",""14459""
""blur"",""1"",""125006""
""blur"",""1"",""126575""
","""event"",""trial"",""time""
""focus"",""1"",""12852""
""focus"",""1"",""123010""
""focus"",""1"",""125900""
""focus"",""1"",""197259""
","""event"",""trial"",""time""
""fullscreenenter"",""1"",""198882""
","
","","","-1","","","23","1052","736","g","elianto","#3366ff99"," ","-1","0","0","[]","0","2","","","1052","31","3","1","win","go","0","0"
"pit-trial","110","1246167","0.0-36.0","battery-v0.2","","""event"",""trial"",""time""
""focus"",""1"",""12852""
""blur"",""1"",""14459""
""focus"",""1"",""123010""
""blur"",""1"",""125006""
""focus"",""1"",""125900""
""blur"",""1"",""126575""
""focus"",""1"",""197259""
""fullscreenenter"",""1"",""198882""
","""event"",""trial"",""time""
""blur"",""1"",""14459""
""blur"",""1"",""125006""
""blur"",""1"",""126575""
","""event"",""trial"",""time""
""focus"",""1"",""12852""
""focus"",""1"",""123010""
""focus"",""1"",""125900""
""focus"",""1"",""197259""
","""event"",""trial"",""time""
""fullscreenenter"",""1"",""198882""
","
","","","1455","","","23","1052","736","l","elianto","#f73b6a7A"," "," ","1","0","[2311]","1","2","","","1052","32","1","3","lose","go","0","0"
"pit-trial","111","1251027","0.0-37.0","battery-v0.2","","""event"",""trial"",""time""
""focus"",""1"",""12852""
""blur"",""1"",""14459""
""focus"",""1"",""123010""
""blur"",""1"",""125006""
""focus"",""1"",""125900""
""blur"",""1"",""126575""
""focus"",""1"",""197259""
""fullscreenenter"",""1"",""198882""
","""event"",""trial"",""time""
""blur"",""1"",""14459""
""blur"",""1"",""125006""
""blur"",""1"",""126575""
","""event"",""trial"",""time""
""focus"",""1"",""12852""
""focus"",""1"",""123010""
""focus"",""1"",""125900""
""focus"",""1"",""197259""
","""event"",""trial"",""time""
""fullscreenenter"",""1"",""198882""
","
","","","-1","","","23","1052","736","u","elianto","#3366ff99","-1","-1","1","0","[]","0","2","","","1052","33","0","2","win","no-go","1","0"
"pit-trial","112","1254907","0.0-38.0","battery-v0.2","","""event"",""trial"",""time""
""focus"",""1"",""12852""
""blur"",""1"",""14459""
""focus"",""1"",""123010""
""blur"",""1"",""125006""
""focus"",""1"",""125900""
""blur"",""1"",""126575""
""focus"",""1"",""197259""
""fullscreenenter"",""1"",""198882""
","""event"",""trial"",""time""
""blur"",""1"",""14459""
""blur"",""1"",""125006""
""blur"",""1"",""126575""
","""event"",""trial"",""time""
""focus"",""1"",""12852""
""focus"",""1"",""123010""
""focus"",""1"",""125900""
""focus"",""1"",""197259""
","""event"",""trial"",""time""
""fullscreenenter"",""1"",""198882""
","
","","","1002","","","23","1052","736","a","elianto","#f73b6a7A","-1"," ","0","-10","[1857]","1","2","","","1052","34","2","4","lose","no-go","0","0"
"pit-trial","113","1258806","0.0-39.0","battery-v0.2","","""event"",""trial"",""time""
""focus"",""1"",""12852""
""blur"",""1"",""14459""
""focus"",""1"",""123010""
""blur"",""1"",""125006""
""focus"",""1"",""125900""
""blur"",""1"",""126575""
""focus"",""1"",""197259""
""fullscreenenter"",""1"",""198882""
","""event"",""trial"",""time""
""blur"",""1"",""14459""
""blur"",""1"",""125006""
""blur"",""1"",""126575""
","""event"",""trial"",""time""
""focus"",""1"",""12852""
""focus"",""1"",""123010""
""focus"",""1"",""125900""
""focus"",""1"",""197259""
","""event"",""trial"",""time""
""fullscreenenter"",""1"",""198882""
","
","","","1033","","","23","1052","736","l","elianto","#f73b6a7A"," "," ","1","0","[1888]","1","2","","","1052","35","1","3","lose","go","0","0"
"pit-trial","114","1262657","0.0-40.0","battery-v0.2","","""event"",""trial"",""time""
""focus"",""1"",""12852""
""blur"",""1"",""14459""
""focus"",""1"",""123010""
""blur"",""1"",""125006""
""focus"",""1"",""125900""
""blur"",""1"",""126575""
""focus"",""1"",""197259""
""fullscreenenter"",""1"",""198882""
","""event"",""trial"",""time""
""blur"",""1"",""14459""
""blur"",""1"",""125006""
""blur"",""1"",""126575""
","""event"",""trial"",""time""
""focus"",""1"",""12852""
""focus"",""1"",""123010""
""focus"",""1"",""125900""
""focus"",""1"",""197259""
","""event"",""trial"",""time""
""fullscreenenter"",""1"",""198882""
","
","","","981","","","23","1052","736","g","elianto","#3366ff99"," "," ","1","+10","[1837]","1","2","","","1052","36","3","1","win","go","0","0"
"pit-trial","115","1266597","0.0-41.0","battery-v0.2","","""event"",""trial"",""time""
""focus"",""1"",""12852""
""blur"",""1"",""14459""
""focus"",""1"",""123010""
""blur"",""1"",""125006""
""focus"",""1"",""125900""
""blur"",""1"",""126575""
""focus"",""1"",""197259""
""fullscreenenter"",""1"",""198882""
","""event"",""trial"",""time""
""blur"",""1"",""14459""
""blur"",""1"",""125006""
""blur"",""1"",""126575""
","""event"",""trial"",""time""
""focus"",""1"",""12852""
""focus"",""1"",""123010""
""focus"",""1"",""125900""
""focus"",""1"",""197259""
","""event"",""trial"",""time""
""fullscreenenter"",""1"",""198882""
","
","","","1075","","","23","1052","736","l","elianto","#f73b6a7A"," "," ","1","0","[1930]","1","2","","","1052","37","1","3","lose","go","0","0"
"pit-trial","116","1270717","0.0-42.0","battery-v0.2","","""event"",""trial"",""time""
""focus"",""1"",""12852""
""blur"",""1"",""14459""
""focus"",""1"",""123010""
""blur"",""1"",""125006""
""focus"",""1"",""125900""
""blur"",""1"",""126575""
""focus"",""1"",""197259""
""fullscreenenter"",""1"",""198882""
","""event"",""trial"",""time""
""blur"",""1"",""14459""
""blur"",""1"",""125006""
""blur"",""1"",""126575""
","""event"",""trial"",""time""
""focus"",""1"",""12852""
""focus"",""1"",""123010""
""focus"",""1"",""125900""
""focus"",""1"",""197259""
","""event"",""trial"",""time""
""fullscreenenter"",""1"",""198882""
","
","","","1247","","","23","1052","736","g","elianto","#3366ff99"," "," ","1","+10","[2102]","1","2","","","1052","38","3","1","win","go","0","0"
"pit-trial","117","1274457","0.0-43.0","battery-v0.2","","""event"",""trial"",""time""
""focus"",""1"",""12852""
""blur"",""1"",""14459""
""focus"",""1"",""123010""
""blur"",""1"",""125006""
""focus"",""1"",""125900""
""blur"",""1"",""126575""
""focus"",""1"",""197259""
""fullscreenenter"",""1"",""198882""
","""event"",""trial"",""time""
""blur"",""1"",""14459""
""blur"",""1"",""125006""
""blur"",""1"",""126575""
","""event"",""trial"",""time""
""focus"",""1"",""12852""
""focus"",""1"",""123010""
""focus"",""1"",""125900""
""focus"",""1"",""197259""
","""event"",""trial"",""time""
""fullscreenenter"",""1"",""198882""
","
","","","864","","","23","1052","736","u","elianto","#3366ff99","-1"," ","0","0","[1718]","1","2","","","1052","39","0","2","win","no-go","0","0"
"pit-trial","118","1279336","0.0-44.0","battery-v0.2","","""event"",""trial"",""time""
""focus"",""1"",""12852""
""blur"",""1"",""14459""
""focus"",""1"",""123010""
""blur"",""1"",""125006""
""focus"",""1"",""125900""
""blur"",""1"",""126575""
""focus"",""1"",""197259""
""fullscreenenter"",""1"",""198882""
","""event"",""trial"",""time""
""blur"",""1"",""14459""
""blur"",""1"",""125006""
""blur"",""1"",""126575""
","""event"",""trial"",""time""
""focus"",""1"",""12852""
""focus"",""1"",""123010""
""focus"",""1"",""125900""
""focus"",""1"",""197259""
","""event"",""trial"",""time""
""fullscreenenter"",""1"",""198882""
","
","","","-1","","","23","1052","736","a","elianto","#f73b6a7A","-1","-1","1","0","[]","0","2","","","1052","40","2","4","lose","no-go","0","0"
"pit-trial","119","1283266","0.0-45.0","battery-v0.2","","""event"",""trial"",""time""
""focus"",""1"",""12852""
""blur"",""1"",""14459""
""focus"",""1"",""123010""
""blur"",""1"",""125006""
""focus"",""1"",""125900""
""blur"",""1"",""126575""
""focus"",""1"",""197259""
""fullscreenenter"",""1"",""198882""
","""event"",""trial"",""time""
""blur"",""1"",""14459""
""blur"",""1"",""125006""
""blur"",""1"",""126575""
","""event"",""trial"",""time""
""focus"",""1"",""12852""
""focus"",""1"",""123010""
""focus"",""1"",""125900""
""focus"",""1"",""197259""
","""event"",""trial"",""time""
""fullscreenenter"",""1"",""198882""
","
","","","1057","","","23","1052","736","l","elianto","#f73b6a7A"," "," ","1","0","[1922]","1","2","","","1052","41","1","3","lose","go","0","0"
"pit-trial","120","1288146","0.0-46.0","battery-v0.2","","""event"",""trial"",""time""
""focus"",""1"",""12852""
""blur"",""1"",""14459""
""focus"",""1"",""123010""
""blur"",""1"",""125006""
""focus"",""1"",""125900""
""blur"",""1"",""126575""
""focus"",""1"",""197259""
""fullscreenenter"",""1"",""198882""
","""event"",""trial"",""time""
""blur"",""1"",""14459""
""blur"",""1"",""125006""
""blur"",""1"",""126575""
","""event"",""trial"",""time""
""focus"",""1"",""12852""
""focus"",""1"",""123010""
""focus"",""1"",""125900""
""focus"",""1"",""197259""
","""event"",""trial"",""time""
""fullscreenenter"",""1"",""198882""
","
","","","-1","","","23","1052","736","a","elianto","#f73b6a7A","-1","-1","1","0","[]","0","2","","","1052","42","2","4","lose","no-go","0","0"
"pit-trial","121","1292296","0.0-47.0","battery-v0.2","","""event"",""trial"",""time""
""focus"",""1"",""12852""
""blur"",""1"",""14459""
""focus"",""1"",""123010""
""blur"",""1"",""125006""
""focus"",""1"",""125900""
""blur"",""1"",""126575""
""focus"",""1"",""197259""
""fullscreenenter"",""1"",""198882""
","""event"",""trial"",""time""
""blur"",""1"",""14459""
""blur"",""1"",""125006""
""blur"",""1"",""126575""
","""event"",""trial"",""time""
""focus"",""1"",""12852""
""focus"",""1"",""123010""
""focus"",""1"",""125900""
""focus"",""1"",""197259""
","""event"",""trial"",""time""
""fullscreenenter"",""1"",""198882""
","
","","","1287","","","23","1052","736","u","elianto","#3366ff99","-1"," ","0","0","[2143]","1","2","","","1052","43","0","2","win","no-go","0","0"
"pit-trial","122","1296476","0.0-48.0","battery-v0.2","","""event"",""trial"",""time""
""focus"",""1"",""12852""
""blur"",""1"",""14459""
""focus"",""1"",""123010""
""blur"",""1"",""125006""
""focus"",""1"",""125900""
""blur"",""1"",""126575""
""focus"",""1"",""197259""
""fullscreenenter"",""1"",""198882""
","""event"",""trial"",""time""
""blur"",""1"",""14459""
""blur"",""1"",""125006""
""blur"",""1"",""126575""
","""event"",""trial"",""time""
""focus"",""1"",""12852""
""focus"",""1"",""123010""
""focus"",""1"",""125900""
""focus"",""1"",""197259""
","""event"",""trial"",""time""
""fullscreenenter"",""1"",""198882""
","
