"trial_type","trial_index","time_elapsed","internal_node_id","task_version","rune","rune_set","hex","correct","choice","rt","accuracy","outcome","keys","total_keys","sub","block","trial","stimulus","robot","valence","action","sham"
"pavlovia","0","6","0.0-0.0","battery-v0.2","","","","","","","","","","","","","","","","","",""
"pit-trial","1","4863","0.0-1.0","battery-v0.2","&#9752;","elianto","#f73b6a7A","32","-1","-1","0","-10","[]","0","3&age=8&participant_ID=5&order=1","1","1","3","3","lose","go","0"
"pit-trial","2","9722","0.0-2.0","battery-v0.2","&#9730;","elianto","#3366ff99","32","-1","-1","0","0","[]","0","3&age=8&participant_ID=5&order=1","1","2","1","1","win","go","0"
"pit-trial","3","14579","0.0-3.0","battery-v0.2","&#9733;","elianto","#3366ff99","-1","-1","-1","1","0","[]","0","3&age=8&participant_ID=5&order=1","1","3","2","2","win","no-go","1"
"pit-trial","4","19437","0.0-4.0","battery-v0.2","&#9728;","elianto","#f73b6a7A","-1","-1","-1","1","0","[]","0","3&age=8&participant_ID=5&order=1","1","4","0","4","lose","no-go","0"
"pit-trial","5","24297","0.0-5.0","battery-v0.2","&#9730;","elianto","#3366ff99","32","-1","-1","0","0","[]","0","3&age=8&participant_ID=5&order=1","1","5","1","1","win","go","0"
"pit-trial","6","29156","0.0-6.0","battery-v0.2","&#9752;","elianto","#f73b6a7A","32","-1","-1","0","-10","[]","0","3&age=8&participant_ID=5&order=1","1","6","3","3","lose","go","0"
"pit-trial","7","34008","0.0-7.0","battery-v0.2","&#9733;","elianto","#3366ff99","-1","-1","-1","1","+10","[]","0","3&age=8&participant_ID=5&order=1","1","7","2","2","win","no-go","0"
"pit-trial","8","38862","0.0-8.0","battery-v0.2","&#9728;","elianto","#f73b6a7A","-1","-1","-1","1","-10","[]","0","3&age=8&participant_ID=5&order=1","1","8","0","4","lose","no-go","1"
"pit-trial","9","43716","0.0-9.0","battery-v0.2","&#9752;","elianto","#f73b6a7A","32","-1","-1","0","-10","[]","0","3&age=8&participant_ID=5&order=1","1","9","3","3","lose","go","0"
"pit-trial","10","48577","0.0-10.0","battery-v0.2","&#9730;","elianto","#3366ff99","32","-1","-1","0","+10","[]","0","3&age=8&participant_ID=5&order=1","1","10","1","1","win","go","1"
"pit-trial","11","53430","0.0-11.0","battery-v0.2","&#9728;","elianto","#f73b6a7A","-1","-1","-1","1","0","[]","0","3&age=8&participant_ID=5&order=1","1","11","0","4","lose","no-go","0"
"pit-trial","12","58288","0.0-12.0","battery-v0.2","&#9733;","elianto","#3366ff99","-1","-1","-1","1","+10","[]","0","3&age=8&participant_ID=5&order=1","1","12","2","2","win","no-go","0"
"pit-trial","13","63145","0.0-13.0","battery-v0.2","&#9752;","elianto","#f73b6a7A","32","-1","-1","0","0","[]","0","3&age=8&participant_ID=5&order=1","1","13","3","3","lose","go","1"
"pit-trial","14","67998","0.0-14.0","battery-v0.2","&#9730;","elianto","#3366ff99","32","-1","-1","0","0","[]","0","3&age=8&participant_ID=5&order=1","1","14","1","1","win","go","0"
"pit-trial","15","72851","0.0-15.0","battery-v0.2","&#9733;","elianto","#3366ff99","-1","-1","-1","1","0","[]","0","3&age=8&participant_ID=5&order=1","1","15","2","2","win","no-go","1"
"pit-trial","16","77708","0.0-16.0","battery-v0.2","&#9728;","elianto","#f73b6a7A","-1","-1","-1","1","0","[]","0","3&age=8&participant_ID=5&order=1","1","16","0","4","lose","no-go","0"
"pit-trial","17","82566","0.0-17.0","battery-v0.2","&#9752;","elianto","#f73b6a7A","32","-1","-1","0","-10","[]","0","3&age=8&participant_ID=5&order=1","1","17","3","3","lose","go","0"
"pit-trial","18","87420","0.0-18.0","battery-v0.2","&#9728;","elianto","#f73b6a7A","-1","-1","-1","1","0","[]","0","3&age=8&participant_ID=5&order=1","1","18","0","4","lose","no-go","0"
"pit-trial","19","92273","0.0-19.0","battery-v0.2","&#9730;","elianto","#3366ff99","32","-1","-1","0","0","[]","0","3&age=8&participant_ID=5&order=1","1","19","1","1","win","go","0"
"pit-trial","20","97133","0.0-20.0","battery-v0.2","&#9733;","elianto","#3366ff99","-1","-1","-1","1","+10","[]","0","3&age=8&participant_ID=5&order=1","1","20","2","2","win","no-go","0"
"pit-trial","21","101990","0.0-21.0","battery-v0.2","r","elianto","#f73b6a7A","32","-1","-1","0","-10","[]","0","3&age=8&participant_ID=5&order=1","2","21","1","3","lose","go","0"
"pit-trial","22","106850","0.0-22.0","battery-v0.2","y","elianto","#f73b6a7A","-1","-1","-1","1","-10","[]","0","3&age=8&participant_ID=5&order=1","2","22","2","4","lose","no-go","1"
"pit-trial","23","111709","0.0-23.0","battery-v0.2","m","elianto","#3366ff99","-1","-1","-1","1","+10","[]","0","3&age=8&participant_ID=5&order=1","2","23","0","2","win","no-go","0"
"pit-trial","24","116563","0.0-24.0","battery-v0.2","h","elianto","#3366ff99","32","-1","-1","0","0","[]","0","3&age=8&participant_ID=5&order=1","2","24","3","1","win","go","0"
"pit-trial","25","121416","0.0-25.0","battery-v0.2","y","elianto","#f73b6a7A","-1","-1","-1","1","0","[]","0","3&age=8&participant_ID=5&order=1","2","25","2","4","lose","no-go","0"
"pit-trial","26","126269","0.0-26.0","battery-v0.2","r","elianto","#f73b6a7A","32","-1","-1","0","0","[]","0","3&age=8&participant_ID=5&order=1","2","26","1","3","lose","go","1"
"pit-trial","27","131127","0.0-27.0","battery-v0.2","h","elianto","#3366ff99","32","-1","-1","0","0","[]","0","3&age=8&participant_ID=5&order=1","2","27","3","1","win","go","0"
"pit-trial","28","135982","0.0-28.0","battery-v0.2","m","elianto","#3366ff99","-1","-1","-1","1","+10","[]","0","3&age=8&participant_ID=5&order=1","2","28","0","2","win","no-go","0"
"pit-trial","29","140833","0.0-29.0","battery-v0.2","h","elianto","#3366ff99","32","-1","-1","0","0","[]","0","3&age=8&participant_ID=5&order=1","2","29","3","1","win","go","0"
"pit-trial","30","145694","0.0-30.0","battery-v0.2","y","elianto","#f73b6a7A","-1","-1","-1","1","0","[]","0","3&age=8&participant_ID=5&order=1","2","30","2","4","lose","no-go","0"
"pit-trial","31","150552","0.0-31.0","battery-v0.2","r","elianto","#f73b6a7A","32","-1","-1","0","0","[]","0","3&age=8&participant_ID=5&order=1","2","31","1","3","lose","go","1"
"pit-trial","32","155413","0.0-32.0","battery-v0.2","m","elianto","#3366ff99","-1","-1","-1","1","+10","[]","0","3&age=8&participant_ID=5&order=1","2","32","0","2","win","no-go","0"
"pit-trial","33","160272","0.0-33.0","battery-v0.2","m","elianto","#3366ff99","-1","-1","-1","1","+10","[]","0","3&age=8&participant_ID=5&order=1","2","33","0","2","win","no-go","0"
"pit-trial","34","165125","0.0-34.0","battery-v0.2","y","elianto","#f73b6a7A","-1","-1","-1","1","0","[]","0","3&age=8&participant_ID=5&order=1","2","34","2","4","lose","no-go","0"
"pit-trial","35","169982","0.0-35.0","battery-v0.2","h","elianto","#3366ff99","32","-1","-1","0","0","[]","0","3&age=8&participant_ID=5&order=1","2","35","3","1","win","go","0"
"pit-trial","36","174840","0.0-36.0","battery-v0.2","r","elianto","#f73b6a7A","32","-1","-1","0","-10","[]","0","3&age=8&participant_ID=5&order=1","2","36","1","3","lose","go","0"
"pit-trial","37","179693","0.0-37.0","battery-v0.2","y","elianto","#f73b6a7A","-1","-1","-1","1","0","[]","0","3&age=8&participant_ID=5&order=1","2","37","2","4","lose","no-go","0"
"pit-trial","38","184547","0.0-38.0","battery-v0.2","r","elianto","#f73b6a7A","32","-1","-1","0","-10","[]","0","3&age=8&participant_ID=5&order=1","2","38","1","3","lose","go","0"
"pit-trial","39","189404","0.0-39.0","battery-v0.2","m","elianto","#3366ff99","-1","-1","-1","1","+10","[]","0","3&age=8&participant_ID=5&order=1","2","39","0","2","win","no-go","0"
"pit-trial","40","194261","0.0-40.0","battery-v0.2","h","elianto","#3366ff99","32","-1","-1","0","0","[]","0","3&age=8&participant_ID=5&order=1","2","40","3","1","win","go","0"
"pit-trial","41","199120","0.0-41.0","battery-v0.2","m","elianto","#3366ff99","-1","-1","-1","1","+10","[]","0","3&age=8&participant_ID=5&order=1","2","41","0","2","win","no-go","0"
"pit-trial","42","203977","0.0-42.0","battery-v0.2","y","elianto","#f73b6a7A","-1","-1","-1","1","-10","[]","0","3&age=8&participant_ID=5&order=1","2","42","2","4","lose","no-go","1"
"pit-trial","43","208834","0.0-43.0","battery-v0.2","h","elianto","#3366ff99","32","-1","-1","0","0","[]","0","3&age=8&participant_ID=5&order=1","2","43","3","1","win","go","0"
"pit-trial","44","213690","0.0-44.0","battery-v0.2","r","elianto","#f73b6a7A","32","-1","-1","0","-10","[]","0","3&age=8&participant_ID=5&order=1","2","44","1","3","lose","go","0"
"pit-trial","45","218552","0.0-45.0","battery-v0.2","m","elianto","#3366ff99","-1","-1","-1","1","+10","[]","0","3&age=8&participant_ID=5&order=1","2","45","0","2","win","no-go","0"
"pit-trial","46","223412","0.0-46.0","battery-v0.2","h","elianto","#3366ff99","32","-1","-1","0","0","[]","0","3&age=8&participant_ID=5&order=1","2","46","3","1","win","go","0"
"pit-trial","47","228271","0.0-47.0","battery-v0.2","y","elianto","#f73b6a7A","-1","-1","-1","1","0","[]","0","3&age=8&participant_ID=5&order=1","2","47","2","4","lose","no-go","0"
"pit-trial","48","233124","0.0-48.0","battery-v0.2","r","elianto","#f73b6a7A","32","-1","-1","0","-10","[]","0","3&age=8&participant_ID=5&order=1","2","48","1","3","lose","go","0"
"pit-trial","49","237980","0.0-49.0","battery-v0.2","y","elianto","#f73b6a7A","-1","-1","-1","1","0","[]","0","3&age=8&participant_ID=5&order=1","2","49","2","4","lose","no-go","0"
"pit-trial","50","242834","0.0-50.0","battery-v0.2","h","elianto","#3366ff99","32","-1","-1","0","0","[]","0","3&age=8&participant_ID=5&order=1","2","50","3","1","win","go","0"
"pit-trial","51","247691","0.0-51.0","battery-v0.2","m","elianto","#3366ff99","-1","-1","-1","1","+10","[]","0","3&age=8&participant_ID=5&order=1","2","51","0","2","win","no-go","0"
"pit-trial","52","252548","0.0-52.0","battery-v0.2","r","elianto","#f73b6a7A","32","-1","-1","0","-10","[]","0","3&age=8&participant_ID=5&order=1","2","52","1","3","lose","go","0"
"pit-trial","53","257410","0.0-53.0","battery-v0.2","y","elianto","#f73b6a7A","-1","-1","-1","1","0","[]","0","3&age=8&participant_ID=5&order=1","2","53","2","4","lose","no-go","0"
"pit-trial","54","262265","0.0-54.0","battery-v0.2","c","elianto","#f73b6a7A","-1","-1","-1","1","0","[]","0","3&age=8&participant_ID=5&order=1","2","54","5","4","lose","no-go","0"
"pit-trial","55","267125","0.0-55.0","battery-v0.2","z","elianto","#f73b6a7A","32","-1","-1","0","-10","[]","0","3&age=8&participant_ID=5&order=1","2","55","4","3","lose","go","0"
"pit-trial","56","271984","0.0-56.0","battery-v0.2","r","elianto","#f73b6a7A","32","-1","-1","0","-10","[]","0","3&age=8&participant_ID=5&order=1","2","56","1","3","lose","go","0"
"pit-trial","57","276841","0.0-57.0","battery-v0.2","r","elianto","#f73b6a7A","32","-1","-1","0","-10","[]","0","3&age=8&participant_ID=5&order=1","2","57","1","3","lose","go","0"
"pit-trial","58","281702","0.0-58.0","battery-v0.2","c","elianto","#f73b6a7A","-1","-1","-1","1","0","[]","0","3&age=8&participant_ID=5&order=1","2","58","5","4","lose","no-go","0"
"pit-trial","59","286558","0.0-59.0","battery-v0.2","z","elianto","#f73b6a7A","32","-1","-1","0","-10","[]","0","3&age=8&participant_ID=5&order=1","2","59","4","3","lose","go","0"
"pit-trial","60","291416","0.0-60.0","battery-v0.2","y","elianto","#f73b6a7A","-1","-1","-1","1","0","[]","0","3&age=8&participant_ID=5&order=1","2","60","2","4","lose","no-go","0"
"pit-trial","61","296275","0.0-61.0","battery-v0.2","y","elianto","#f73b6a7A","-1","-1","-1","1","0","[]","0","3&age=8&participant_ID=5&order=1","2","61","2","4","lose","no-go","0"
"pit-trial","62","301135","0.0-62.0","battery-v0.2","c","elianto","#f73b6a7A","-1","-1","-1","1","0","[]","0","3&age=8&participant_ID=5&order=1","2","62","5","4","lose","no-go","0"
"pit-trial","63","305993","0.0-63.0","battery-v0.2","z","elianto","#f73b6a7A","32","-1","-1","0","-10","[]","0","3&age=8&participant_ID=5&order=1","2","63","4","3","lose","go","0"
"pit-trial","64","310852","0.0-64.0","battery-v0.2","b","elianto","#3366ff99","-1","-1","-1","1","+10","[]","0","3&age=8&participant_ID=5&order=1","2","64","6","2","win","no-go","0"
"pit-trial","65","315708","0.0-65.0","battery-v0.2","c","elianto","#f73b6a7A","-1","-1","-1","1","0","[]","0","3&age=8&participant_ID=5&order=1","2","65","5","4","lose","no-go","0"
"pit-trial","66","320563","0.0-66.0","battery-v0.2","z","elianto","#f73b6a7A","32","-1","-1","0","0","[]","0","3&age=8&participant_ID=5&order=1","2","66","4","3","lose","go","1"
"pit-trial","67","325420","0.0-67.0","battery-v0.2","b","elianto","#3366ff99","-1","-1","-1","1","0","[]","0","3&age=8&participant_ID=5&order=1","2","67","6","2","win","no-go","1"
"pit-trial","68","330278","0.0-68.0","battery-v0.2","y","elianto","#f73b6a7A","-1","-1","-1","1","0","[]","0","3&age=8&participant_ID=5&order=1","2","68","2","4","lose","no-go","0"
"pit-trial","69","335133","0.0-69.0","battery-v0.2","t","elianto","#3366ff99","32","-1","-1","0","0","[]","0","3&age=8&participant_ID=5&order=1","2","69","7","1","win","go","0"
"pit-trial","70","339993","0.0-70.0","battery-v0.2","c","elianto","#f73b6a7A","-1","-1","-1","1","-10","[]","0","3&age=8&participant_ID=5&order=1","2","70","5","4","lose","no-go","1"
"pit-trial","71","344850","0.0-71.0","battery-v0.2","b","elianto","#3366ff99","-1","-1","-1","1","+10","[]","0","3&age=8&participant_ID=5&order=1","2","71","6","2","win","no-go","0"
"pit-trial","72","349704","0.0-72.0","battery-v0.2","z","elianto","#f73b6a7A","32","-1","-1","0","-10","[]","0","3&age=8&participant_ID=5&order=1","2","72","4","3","lose","go","0"
"pit-trial","73","354567","0.0-73.0","battery-v0.2","c","elianto","#f73b6a7A","-1","-1","-1","1","0","[]","0","3&age=8&participant_ID=5&order=1","2","73","5","4","lose","no-go","0"
"pit-trial","74","359430","0.0-74.0","battery-v0.2","t","elianto","#3366ff99","32","-1","-1","0","0","[]","0","3&age=8&participant_ID=5&order=1","2","74","7","1","win","go","0"
"pit-trial","75","364297","0.0-75.0","battery-v0.2","z","elianto","#f73b6a7A","32","-1","-1","0","-10","[]","0","3&age=8&participant_ID=5&order=1","2","75","4","3","lose","go","0"
"pit-trial","76","369159","0.0-76.0","battery-v0.2","b","elianto","#3366ff99","-1","-1","-1","1","+10","[]","0","3&age=8&participant_ID=5&order=1","2","76","6","2","win","no-go","0"
"pit-trial","77","374011","0.0-77.0","battery-v0.2","z","elianto","#f73b6a7A","32","-1","-1","0","-10","[]","0","3&age=8&participant_ID=5&order=1","2","77","4","3","lose","go","0"
"pit-trial","78","378876","0.0-78.0","battery-v0.2","c","elianto","#f73b6a7A","-1","-1","-1","1","0","[]","0","3&age=8&participant_ID=5&order=1","2","78","5","4","lose","no-go","0"
"pit-trial","79","383729","0.0-79.0","battery-v0.2","b","elianto","#3366ff99","-1","-1","-1","1","0","[]","0","3&age=8&participant_ID=5&order=1","2","79","6","2","win","no-go","1"
"pit-trial","80","388589","0.0-80.0","battery-v0.2","t","elianto","#3366ff99","32","-1","-1","0","0","[]","0","3&age=8&participant_ID=5&order=1","2","80","7","1","win","go","0"
"pit-trial","81","393446","0.0-81.0","battery-v0.2","c","elianto","#f73b6a7A","-1","-1","-1","1","-10","[]","0","3&age=8&participant_ID=5&order=1","2","81","5","4","lose","no-go","1"
"pit-trial","82","398303","0.0-82.0","battery-v0.2","t","elianto","#3366ff99","32","-1","-1","0","0","[]","0","3&age=8&participant_ID=5&order=1","2","82","7","1","win","go","0"
"pit-trial","83","403165","0.0-83.0","battery-v0.2","b","elianto","#3366ff99","-1","-1","-1","1","+10","[]","0","3&age=8&participant_ID=5&order=1","2","83","6","2","win","no-go","0"
"pit-trial","84","408037","0.0-84.0","battery-v0.2","z","elianto","#f73b6a7A","32","-1","-1","0","-10","[]","0","3&age=8&participant_ID=5&order=1","2","84","4","3","lose","go","0"
"pit-trial","85","412900","0.0-85.0","battery-v0.2","t","elianto","#3366ff99","32","-1","-1","0","+10","[]","0","3&age=8&participant_ID=5&order=1","2","85","7","1","win","go","1"
"pit-trial","86","417754","0.0-86.0","battery-v0.2","z","elianto","#f73b6a7A","32","-1","-1","0","0","[]","0","3&age=8&participant_ID=5&order=1","2","86","4","3","lose","go","1"
"pit-trial","87","422616","0.0-87.0","battery-v0.2","c","elianto","#f73b6a7A","-1","-1","-1","1","0","[]","0","3&age=8&participant_ID=5&order=1","2","87","5","4","lose","no-go","0"
"pit-trial","88","427483","0.0-88.0","battery-v0.2","b","elianto","#3366ff99","-1","-1","-1","1","+10","[]","0","3&age=8&participant_ID=5&order=1","2","88","6","2","win","no-go","0"
"pit-trial","89","432342","0.0-89.0","battery-v0.2","z","elianto","#f73b6a7A","32","-1","-1","0","-10","[]","0","3&age=8&participant_ID=5&order=1","2","89","4","3","lose","go","0"
"pit-trial","90","437194","0.0-90.0","battery-v0.2","c","elianto","#f73b6a7A","-1","-1","-1","1","0","[]","0","3&age=8&participant_ID=5&order=1","2","90","5","4","lose","no-go","0"
"pit-trial","91","442061","0.0-91.0","battery-v0.2","b","elianto","#3366ff99","-1","-1","-1","1","+10","[]","0","3&age=8&participant_ID=5&order=1","2","91","6","2","win","no-go","0"
"pit-trial","92","446923","0.0-92.0","battery-v0.2","t","elianto","#3366ff99","32","-1","-1","0","0","[]","0","3&age=8&participant_ID=5&order=1","2","92","7","1","win","go","0"
"pit-trial","93","451791","0.0-93.0","battery-v0.2","t","elianto","#3366ff99","32","-1","-1","0","0","[]","0","3&age=8&participant_ID=5&order=1","2","93","7","1","win","go","0"
"pit-trial","94","456648","0.0-94.0","battery-v0.2","b","elianto","#3366ff99","-1","-1","-1","1","+10","[]","0","3&age=8&participant_ID=5&order=1","2","94","6","2","win","no-go","0"
"pit-trial","95","461516","0.0-95.0","battery-v0.2","z","elianto","#f73b6a7A","32","-1","-1","0","-10","[]","0","3&age=8&participant_ID=5&order=1","2","95","4","3","lose","go","0"
"pit-trial","96","466379","0.0-96.0","battery-v0.2","x","elianto","#3366ff99","32","-1","-1","0","0","[]","0","3&age=8&participant_ID=5&order=1","2","96","8","1","win","go","0"
"pit-trial","97","471235","0.0-97.0","battery-v0.2","b","elianto","#3366ff99","-1","-1","-1","1","+10","[]","0","3&age=8&participant_ID=5&order=1","2","97","6","2","win","no-go","0"
"pit-trial","98","476104","0.0-98.0","battery-v0.2","z","elianto","#f73b6a7A","32","-1","-1","0","-10","[]","0","3&age=8&participant_ID=5&order=1","2","98","4","3","lose","go","0"
"pit-trial","99","480968","0.0-99.0","battery-v0.2","t","elianto","#3366ff99","32","-1","-1","0","0","[]","0","3&age=8&participant_ID=5&order=1","2","99","7","1","win","go","0"
"pit-trial","100","485835","0.0-100.0","battery-v0.2","x","elianto","#3366ff99","32","-1","-1","0","+10","[]","0","3&age=8&participant_ID=5&order=1","2","100","8","1","win","go","1"
"pit-trial","101","490694","0.0-101.0","battery-v0.2","b","elianto","#3366ff99","-1","-1","-1","1","+10","[]","0","3&age=8&participant_ID=5&order=1","2","101","6","2","win","no-go","0"
"pit-trial","102","495557","0.0-102.0","battery-v0.2","x","elianto","#3366ff99","32","-1","-1","0","0","[]","0","3&age=8&participant_ID=5&order=1","2","102","8","1","win","go","0"
"pit-trial","103","500412","0.0-103.0","battery-v0.2","t","elianto","#3366ff99","32","-1","-1","0","0","[]","0","3&age=8&participant_ID=5&order=1","2","103","7","1","win","go","0"
"pit-trial","104","505272","0.0-104.0","battery-v0.2","f","elianto","#3366ff99","-1","-1","-1","1","+10","[]","0","3&age=8&participant_ID=5&order=1","2","104","9","2","win","no-go","0"
"pit-trial","105","510133","0.0-105.0","battery-v0.2","f","elianto","#3366ff99","-1","-1","-1","1","+10","[]","0","3&age=8&participant_ID=5&order=1","2","105","9","2","win","no-go","0"
"pit-trial","106","514991","0.0-106.0","battery-v0.2","t","elianto","#3366ff99","32","-1","-1","0","0","[]","0","3&age=8&participant_ID=5&order=1","2","106","7","1","win","go","0"
"pit-trial","107","519852","0.0-107.0","battery-v0.2","x","elianto","#3366ff99","32","-1","-1","0","0","[]","0","3&age=8&participant_ID=5&order=1","2","107","8","1","win","go","0"
"pit-trial","108","524714","0.0-108.0","battery-v0.2","b","elianto","#3366ff99","-1","-1","-1","1","+10","[]","0","3&age=8&participant_ID=5&order=1","2","108","6","2","win","no-go","0"
"pit-trial","109","529573","0.0-109.0","battery-v0.2","f","elianto","#3366ff99","-1","-1","-1","1","0","[]","0","3&age=8&participant_ID=5&order=1","2","109","9","2","win","no-go","1"
"pit-trial","110","534436","0.0-110.0","battery-v0.2","x","elianto","#3366ff99","32","-1","-1","0","0","[]","0","3&age=8&participant_ID=5&order=1","2","110","8","1","win","go","0"
"pit-trial","111","539297","0.0-111.0","battery-v0.2","q","elianto","#f73b6a7A","-1","-1","-1","1","0","[]","0","3&age=8&participant_ID=5&order=1","2","111","11","4","lose","no-go","0"
"pit-trial","112","544156","0.0-112.0","battery-v0.2","n","elianto","#f73b6a7A","32","-1","-1","0","-10","[]","0","3&age=8&participant_ID=5&order=1","2","112","10","3","lose","go","0"
"pit-trial","113","549017","0.0-113.0","battery-v0.2","x","elianto","#3366ff99","32","-1","-1","0","0","[]","0","3&age=8&participant_ID=5&order=1","2","113","8","1","win","go","0"
"pit-trial","114","553883","0.0-114.0","battery-v0.2","f","elianto","#3366ff99","-1","-1","-1","1","+10","[]","0","3&age=8&participant_ID=5&order=1","2","114","9","2","win","no-go","0"
"pit-trial","115","558747","0.0-115.0","battery-v0.2","n","elianto","#f73b6a7A","32","-1","-1","0","-10","[]","0","3&age=8&participant_ID=5&order=1","2","115","10","3","lose","go","0"
"pit-trial","116","563615","0.0-116.0","battery-v0.2","q","elianto","#f73b6a7A","-1","-1","-1","1","0","[]","0","3&age=8&participant_ID=5&order=1","2","116","11","4","lose","no-go","0"
"pit-trial","117","568485","0.0-117.0","battery-v0.2","x","elianto","#3366ff99","32","-1","-1","0","0","[]","0","3&age=8&participant_ID=5&order=1","2","117","8","1","win","go","0"
"pit-trial","118","573338","0.0-118.0","battery-v0.2","f","elianto","#3366ff99","-1","-1","-1","1","+10","[]","0","3&age=8&participant_ID=5&order=1","2","118","9","2","win","no-go","0"
"pit-trial","119","578202","0.0-119.0","battery-v0.2","q","elianto","#f73b6a7A","-1","-1","-1","1","-10","[]","0","3&age=8&participant_ID=5&order=1","2","119","11","4","lose","no-go","1"
"pit-trial","120","583059","0.0-120.0","battery-v0.2","n","elianto","#f73b6a7A","32","-1","-1","0","-10","[]","0","3&age=8&participant_ID=5&order=1","2","120","10","3","lose","go","0"
"pit-trial","121","587927","0.0-121.0","battery-v0.2","f","elianto","#3366ff99","-1","-1","-1","1","+10","[]","0","3&age=8&participant_ID=5&order=1","2","121","9","2","win","no-go","0"
"pit-trial","122","592788","0.0-122.0","battery-v0.2","n","elianto","#f73b6a7A","32","-1","-1","0","-10","[]","0","3&age=8&participant_ID=5&order=1","2","122","10","3","lose","go","0"
"pit-trial","123","597653","0.0-123.0","battery-v0.2","x","elianto","#3366ff99","32","-1","-1","0","0","[]","0","3&age=8&participant_ID=5&order=1","2","123","8","1","win","go","0"
"pit-trial","124","602521","0.0-124.0","battery-v0.2","q","elianto","#f73b6a7A","-1","-1","-1","1","0","[]","0","3&age=8&participant_ID=5&order=1","2","124","11","4","lose","no-go","0"
"pit-trial","125","607383","0.0-125.0","battery-v0.2","f","elianto","#3366ff99","-1","-1","-1","1","+10","[]","0","3&age=8&participant_ID=5&order=1","2","125","9","2","win","no-go","0"
"pit-trial","126","612248","0.0-126.0","battery-v0.2","q","elianto","#f73b6a7A","-1","-1","-1","1","-10","[]","0","3&age=8&participant_ID=5&order=1","2","126","11","4","lose","no-go","1"
"pit-trial","127","617116","0.0-127.0","battery-v0.2","x","elianto","#3366ff99","32","-1","-1","0","+10","[]","0","3&age=8&participant_ID=5&order=1","2","127","8","1","win","go","1"
"pit-trial","128","621977","0.0-128.0","battery-v0.2","n","elianto","#f73b6a7A","32","-1","-1","0","-10","[]","0","3&age=8&participant_ID=5&order=1","2","128","10","3","lose","go","0"
"pit-trial","129","626843","0.0-129.0","battery-v0.2","f","elianto","#3366ff99","-1","-1","-1","1","+10","[]","0","3&age=8&participant_ID=5&order=1","2","129","9","2","win","no-go","0"
"pit-trial","130","631698","0.0-130.0","battery-v0.2","n","elianto","#f73b6a7A","32","-1","-1","0","-10","[]","0","3&age=8&participant_ID=5&order=1","2","130","10","3","lose","go","0"
"pit-trial","131","636569","0.0-131.0","battery-v0.2","q","elianto","#f73b6a7A","-1","-1","-1","1","0","[]","0","3&age=8&participant_ID=5&order=1","2","131","11","4","lose","no-go","0"
"pit-trial","132","641426","0.0-132.0","battery-v0.2","x","elianto","#3366ff99","32","-1","-1","0","0","[]","0","3&age=8&participant_ID=5&order=1","2","132","8","1","win","go","0"
"pit-trial","133","646285","0.0-133.0","battery-v0.2","f","elianto","#3366ff99","-1","-1","-1","1","0","[]","0","3&age=8&participant_ID=5&order=1","2","133","9","2","win","no-go","1"
"pit-trial","134","651147","0.0-134.0","battery-v0.2","n","elianto","#f73b6a7A","32","-1","-1","0","-10","[]","0","3&age=8&participant_ID=5&order=1","2","134","10","3","lose","go","0"
"pit-trial","135","656016","0.0-135.0","battery-v0.2","q","elianto","#f73b6a7A","-1","-1","-1","1","0","[]","0","3&age=8&participant_ID=5&order=1","2","135","11","4","lose","no-go","0"
"pit-trial","136","662464","0.0-136.0","battery-v0.2","x","elianto","#3366ff99","32","-1","-1","0","+10","[]","0","3&age=8&participant_ID=5&order=1","2","136","8","1","win","go","1"
"pit-trial","137","669278","0.0-137.0","battery-v0.2","q","elianto","#f73b6a7A","-1","-1","-1","1","0","[]","0","3&age=8&participant_ID=5&order=1","2","137","11","4","lose","no-go","0"
"pit-trial","138","675197","0.0-138.0","battery-v0.2","n","elianto","#f73b6a7A","32","-1","-1","0","-10","[]","0","3&age=8&participant_ID=5&order=1","2","138","10","3","lose","go","0"
"pit-trial","139","685646","0.0-139.0","battery-v0.2","x","elianto","#3366ff99","32","-1","-1","0","0","[]","0","3&age=8&participant_ID=5&order=1","2","139","8","1","win","go","0"
"pit-trial","140","691645","0.0-140.0","battery-v0.2","f","elianto","#3366ff99","-1","-1","-1","1","+10","[]","0","3&age=8&participant_ID=5&order=1","2","140","9","2","win","no-go","0"
"pit-trial","141","697500","0.0-141.0","battery-v0.2","v","elianto","#3366ff99","-1","-1","-1","1","+10","[]","0","3&age=8&participant_ID=5&order=1","3","141","0","2","win","no-go","0"
"pit-trial","142","703500","0.0-142.0","battery-v0.2","d","elianto","#3366ff99","32","-1","-1","0","0","[]","0","3&age=8&participant_ID=5&order=1","3","142","2","1","win","go","0"
"pit-trial","143","710583","0.0-143.0","battery-v0.2","k","elianto","#f73b6a7A","32","-1","-1","0","-10","[]","0","3&age=8&participant_ID=5&order=1","3","143","3","3","lose","go","0"
"pit-trial","144","717580","0.0-144.0","battery-v0.2","j","elianto","#3366ff99","-1","-1","-1","1","+10","[]","0","3&age=8&participant_ID=5&order=1","3","144","1","2","win","no-go","0"
"pit-trial","145","724586","0.0-145.0","battery-v0.2","v","elianto","#3366ff99","-1","-1","-1","1","0","[]","0","3&age=8&participant_ID=5&order=1","3","145","0","2","win","no-go","1"
"pit-trial","146","730499","0.0-146.0","battery-v0.2","d","elianto","#3366ff99","32","-1","-1","0","0","[]","0","3&age=8&participant_ID=5&order=1","3","146","2","1","win","go","0"
"pit-trial","147","740448","0.0-147.0","battery-v0.2","k","elianto","#f73b6a7A","32","-1","-1","0","0","[]","0","3&age=8&participant_ID=5&order=1","3","147","3","3","lose","go","1"
"pit-trial","148","746448","0.0-148.0","battery-v0.2","j","elianto","#3366ff99","-1","-1","-1","1","+10","[]","0","3&age=8&participant_ID=5&order=1","3","148","1","2","win","no-go","0"
"pit-trial","149","753548","0.0-149.0","battery-v0.2","k","elianto","#f73b6a7A","32","-1","-1","0","-10","[]","0","3&age=8&participant_ID=5&order=1","3","149","3","3","lose","go","0"
"pit-trial","150","759448","0.0-150.0","battery-v0.2","d","elianto","#3366ff99","32","-1","-1","0","0","[]","0","3&age=8&participant_ID=5&order=1","3","150","2","1","win","go","0"
"pit-trial","151","766526","0.0-151.0","battery-v0.2","j","elianto","#3366ff99","-1","-1","-1","1","0","[]","0","3&age=8&participant_ID=5&order=1","3","151","1","2","win","no-go","1"
"pit-trial","152","773535","0.0-152.0","battery-v0.2","v","elianto","#3366ff99","-1","-1","-1","1","+10","[]","0","3&age=8&participant_ID=5&order=1","3","152","0","2","win","no-go","0"
"pit-trial","153","779447","0.0-153.0","battery-v0.2","v","elianto","#3366ff99","-1","-1","-1","1","+10","[]","0","3&age=8&participant_ID=5&order=1","3","153","0","2","win","no-go","0"
"pit-trial","154","785446","0.0-154.0","battery-v0.2","j","elianto","#3366ff99","-1","-1","-1","1","+10","[]","0","3&age=8&participant_ID=5&order=1","3","154","1","2","win","no-go","0"
"pit-trial","155","794866","0.0-155.0","battery-v0.2","k","elianto","#f73b6a7A","32","-1","-1","0","-10","[]","0","3&age=8&participant_ID=5&order=1","3","155","3","3","lose","go","0"
"pit-trial","156","801280","0.0-156.0","battery-v0.2","d","elianto","#3366ff99","32","-1","-1","0","0","[]","0","3&age=8&participant_ID=5&order=1","3","156","2","1","win","go","0"
"pit-trial","157","808955","0.0-157.0","battery-v0.2","d","elianto","#3366ff99","32","-1","-1","0","0","[]","0","3&age=8&participant_ID=5&order=1","3","157","2","1","win","go","0"
"pit-trial","158","814865","0.0-158.0","battery-v0.2","k","elianto","#f73b6a7A","32","-1","-1","0","-10","[]","0","3&age=8&participant_ID=5&order=1","3","158","3","3","lose","go","0"
"pit-trial","159","821931","0.0-159.0","battery-v0.2","j","elianto","#3366ff99","-1","-1","-1","1","+10","[]","0","3&age=8&participant_ID=5&order=1","3","159","1","2","win","no-go","0"
"pit-trial","160","829105","0.0-160.0","battery-v0.2","v","elianto","#3366ff99","-1","-1","-1","1","+10","[]","0","3&age=8&participant_ID=5&order=1","3","160","0","2","win","no-go","0"
"pit-trial","161","836947","0.0-161.0","battery-v0.2","v","elianto","#3366ff99","-1","-1","-1","1","+10","[]","0","3&age=8&participant_ID=5&order=1","3","161","0","2","win","no-go","0"
"pit-trial","162","847100","0.0-162.0","battery-v0.2","k","elianto","#f73b6a7A","32","-1","-1","0","-10","[]","0","3&age=8&participant_ID=5&order=1","3","162","3","3","lose","go","0"
"pit-trial","163","853493","0.0-163.0","battery-v0.2","d","elianto","#3366ff99","32","-1","-1","0","+10","[]","0","3&age=8&participant_ID=5&order=1","3","163","2","1","win","go","1"
"pit-trial","164","860576","0.0-164.0","battery-v0.2","j","elianto","#3366ff99","-1","-1","-1","1","+10","[]","0","3&age=8&participant_ID=5&order=1","3","164","1","2","win","no-go","0"
"pit-trial","165","867126","0.0-165.0","battery-v0.2","k","elianto","#f73b6a7A","32","-1","-1","0","0","[]","0","3&age=8&participant_ID=5&order=1","3","165","3","3","lose","go","1"
"pit-trial","166","874520","0.0-166.0","battery-v0.2","d","elianto","#3366ff99","32","-1","-1","0","0","[]","0","3&age=8&participant_ID=5&order=1","3","166","2","1","win","go","0"
"pit-trial","167","881600","0.0-167.0","battery-v0.2","j","elianto","#3366ff99","-1","-1","-1","1","+10","[]","0","3&age=8&participant_ID=5&order=1","3","167","1","2","win","no-go","0"
"pit-trial","168","888578","0.0-168.0","battery-v0.2","v","elianto","#3366ff99","-1","-1","-1","1","+10","[]","0","3&age=8&participant_ID=5&order=1","3","168","0","2","win","no-go","0"
"pit-trial","169","894491","0.0-169.0","battery-v0.2","d","elianto","#3366ff99","32","-1","-1","0","0","[]","0","3&age=8&participant_ID=5&order=1","3","169","2","1","win","go","0"
"pit-trial","170","904017","0.0-170.0","battery-v0.2","k","elianto","#f73b6a7A","32","-1","-1","0","-10","[]","0","3&age=8&participant_ID=5&order=1","3","170","3","3","lose","go","0"
"pit-trial","171","910017","0.0-171.0","battery-v0.2","v","elianto","#3366ff99","-1","-1","-1","1","+10","[]","0","3&age=8&participant_ID=5&order=1","3","171","0","2","win","no-go","0"
"pit-trial","172","917104","0.0-172.0","battery-v0.2","j","elianto","#3366ff99","-1","-1","-1","1","+10","[]","0","3&age=8&participant_ID=5&order=1","3","172","1","2","win","no-go","0"
"pit-trial","173","923017","0.0-173.0","battery-v0.2","w","elianto","#f73b6a7A","32","-1","-1","0","-10","[]","0","3&age=8&participant_ID=5&order=1","3","173","5","3","lose","go","0"
"pit-trial","174","930106","0.0-174.0","battery-v0.2","d","elianto","#3366ff99","32","-1","-1","0","0","[]","0","3&age=8&participant_ID=5&order=1","3","174","2","1","win","go","0"
"pit-trial","175","937106","0.0-175.0","battery-v0.2","e","elianto","#f73b6a7A","-1","-1","-1","1","-10","[]","0","3&age=8&participant_ID=5&order=1","3","175","4","4","lose","no-go","1"
"pit-trial","176","943016","0.0-176.0","battery-v0.2","v","elianto","#3366ff99","-1","-1","-1","1","+10","[]","0","3&age=8&participant_ID=5&order=1","3","176","0","2","win","no-go","0"
"pit-trial","177","949017","0.0-177.0","battery-v0.2","d","elianto","#3366ff99","32","-1","-1","0","0","[]","0","3&age=8&participant_ID=5&order=1","3","177","2","1","win","go","0"
"pit-trial","178","954600","0.0-178.0","battery-v0.2","v","elianto","#3366ff99","-1","-1","-1","1","+10","[]","0","3&age=8&participant_ID=5&order=1","3","178","0","2","win","no-go","0"
"pit-trial","179","959457","0.0-179.0","battery-v0.2","e","elianto","#f73b6a7A","-1","-1","-1","1","0","[]","0","3&age=8&participant_ID=5&order=1","3","179","4","4","lose","no-go","0"
"pit-trial","180","964316","0.0-180.0","battery-v0.2","w","elianto","#f73b6a7A","32","-1","-1","0","-10","[]","0","3&age=8&participant_ID=5&order=1","3","180","5","3","lose","go","0"
"pit-trial","181","969170","0.0-181.0","battery-v0.2","w","elianto","#f73b6a7A","32","-1","-1","0","0","[]","0","3&age=8&participant_ID=5&order=1","3","181","5","3","lose","go","1"
"pit-trial","182","974026","0.0-182.0","battery-v0.2","s","elianto","#3366ff99","-1","-1","-1","1","+10","[]","0","3&age=8&participant_ID=5&order=1","3","182","6","2","win","no-go","0"
"pit-trial","183","978879","0.0-183.0","battery-v0.2","d","elianto","#3366ff99","32","-1","-1","0","+10","[]","0","3&age=8&participant_ID=5&order=1","3","183","2","1","win","go","1"
"pit-trial","184","983733","0.0-184.0","battery-v0.2","e","elianto","#f73b6a7A","-1","-1","-1","1","0","[]","0","3&age=8&participant_ID=5&order=1","3","184","4","4","lose","no-go","0"
"pit-trial","185","988587","0.0-185.0","battery-v0.2","e","elianto","#f73b6a7A","-1","-1","-1","1","0","[]","0","3&age=8&participant_ID=5&order=1","3","185","4","4","lose","no-go","0"
"pit-trial","186","993440","0.0-186.0","battery-v0.2","d","elianto","#3366ff99","32","-1","-1","0","0","[]","0","3&age=8&participant_ID=5&order=1","3","186","2","1","win","go","0"
"pit-trial","187","998295","0.0-187.0","battery-v0.2","s","elianto","#3366ff99","-1","-1","-1","1","+10","[]","0","3&age=8&participant_ID=5&order=1","3","187","6","2","win","no-go","0"
"pit-trial","188","1003152","0.0-188.0","battery-v0.2","w","elianto","#f73b6a7A","32","-1","-1","0","-10","[]","0","3&age=8&participant_ID=5&order=1","3","188","5","3","lose","go","0"
"pit-trial","189","1008007","0.0-189.0","battery-v0.2","e","elianto","#f73b6a7A","-1","-1","-1","1","0","[]","0","3&age=8&participant_ID=5&order=1","3","189","4","4","lose","no-go","0"
"pit-trial","190","1012862","0.0-190.0","battery-v0.2","s","elianto","#3366ff99","-1","-1","-1","1","+10","[]","0","3&age=8&participant_ID=5&order=1","3","190","6","2","win","no-go","0"
"pit-trial","191","1017724","0.0-191.0","battery-v0.2","w","elianto","#f73b6a7A","32","-1","-1","0","-10","[]","0","3&age=8&participant_ID=5&order=1","3","191","5","3","lose","go","0"
"pit-trial","192","1022582","0.0-192.0","battery-v0.2","p","elianto","#f73b6a7A","-1","-1","-1","1","0","[]","0","3&age=8&participant_ID=5&order=1","3","192","7","4","lose","no-go","0"
"pit-trial","193","1027435","0.0-193.0","battery-v0.2","w","elianto","#f73b6a7A","32","-1","-1","0","-10","[]","0","3&age=8&participant_ID=5&order=1","3","193","5","3","lose","go","0"
"pit-trial","194","1032293","0.0-194.0","battery-v0.2","p","elianto","#f73b6a7A","-1","-1","-1","1","0","[]","0","3&age=8&participant_ID=5&order=1","3","194","7","4","lose","no-go","0"
"pit-trial","195","1037149","0.0-195.0","battery-v0.2","e","elianto","#f73b6a7A","-1","-1","-1","1","-10","[]","0","3&age=8&participant_ID=5&order=1","3","195","4","4","lose","no-go","1"
"pit-trial","196","1042011","0.0-196.0","battery-v0.2","s","elianto","#3366ff99","-1","-1","-1","1","+10","[]","0","3&age=8&participant_ID=5&order=1","3","196","6","2","win","no-go","0"
"pit-trial","197","1046866","0.0-197.0","battery-v0.2","s","elianto","#3366ff99","-1","-1","-1","1","+10","[]","0","3&age=8&participant_ID=5&order=1","3","197","6","2","win","no-go","0"
"pit-trial","198","1051721","0.0-198.0","battery-v0.2","p","elianto","#f73b6a7A","-1","-1","-1","1","0","[]","0","3&age=8&participant_ID=5&order=1","3","198","7","4","lose","no-go","0"
"pit-trial","199","1056580","0.0-199.0","battery-v0.2","e","elianto","#f73b6a7A","-1","-1","-1","1","0","[]","0","3&age=8&participant_ID=5&order=1","3","199","4","4","lose","no-go","0"
"pit-trial","200","1061431","0.0-200.0","battery-v0.2","w","elianto","#f73b6a7A","32","-1","-1","0","-10","[]","0","3&age=8&participant_ID=5&order=1","3","200","5","3","lose","go","0"
"pit-trial","201","1066289","0.0-201.0","battery-v0.2","p","elianto","#f73b6a7A","-1","-1","-1","1","0","[]","0","3&age=8&participant_ID=5&order=1","3","201","7","4","lose","no-go","0"
"pit-trial","202","1071148","0.0-202.0","battery-v0.2","e","elianto","#f73b6a7A","-1","-1","-1","1","-10","[]","0","3&age=8&participant_ID=5&order=1","3","202","4","4","lose","no-go","1"
"pit-trial","203","1076008","0.0-203.0","battery-v0.2","w","elianto","#f73b6a7A","32","-1","-1","0","0","[]","0","3&age=8&participant_ID=5&order=1","3","203","5","3","lose","go","1"
"pit-trial","204","1080864","0.0-204.0","battery-v0.2","s","elianto","#3366ff99","-1","-1","-1","1","+10","[]","0","3&age=8&participant_ID=5&order=1","3","204","6","2","win","no-go","0"
"pit-trial","205","1085716","0.0-205.0","battery-v0.2","p","elianto","#f73b6a7A","-1","-1","-1","1","-10","[]","0","3&age=8&participant_ID=5&order=1","3","205","7","4","lose","no-go","1"
"pit-trial","206","1090573","0.0-206.0","battery-v0.2","s","elianto","#3366ff99","-1","-1","-1","1","0","[]","0","3&age=8&participant_ID=5&order=1","3","206","6","2","win","no-go","1"
"pit-trial","207","1095430","0.0-207.0","battery-v0.2","e","elianto","#f73b6a7A","-1","-1","-1","1","0","[]","0","3&age=8&participant_ID=5&order=1","3","207","4","4","lose","no-go","0"
"pit-trial","208","1100283","0.0-208.0","battery-v0.2","w","elianto","#f73b6a7A","32","-1","-1","0","-10","[]","0","3&age=8&participant_ID=5&order=1","3","208","5","3","lose","go","0"
"pit-trial","209","1105137","0.0-209.0","battery-v0.2","s","elianto","#3366ff99","-1","-1","-1","1","+10","[]","0","3&age=8&participant_ID=5&order=1","3","209","6","2","win","no-go","0"
"pit-trial","210","1109990","0.0-210.0","battery-v0.2","p","elianto","#f73b6a7A","-1","-1","-1","1","0","[]","0","3&age=8&participant_ID=5&order=1","3","210","7","4","lose","no-go","0"
"pit-trial","211","1114844","0.0-211.0","battery-v0.2","w","elianto","#f73b6a7A","32","-1","-1","0","-10","[]","0","3&age=8&participant_ID=5&order=1","3","211","5","3","lose","go","0"
"pit-trial","212","1119706","0.0-212.0","battery-v0.2","e","elianto","#f73b6a7A","-1","-1","-1","1","0","[]","0","3&age=8&participant_ID=5&order=1","3","212","4","4","lose","no-go","0"
"pit-trial","213","1124564","0.0-213.0","battery-v0.2","s","elianto","#3366ff99","-1","-1","-1","1","0","[]","0","3&age=8&participant_ID=5&order=1","3","213","6","2","win","no-go","1"
"pit-trial","214","1129424","0.0-214.0","battery-v0.2","p","elianto","#f73b6a7A","-1","-1","-1","1","0","[]","0","3&age=8&participant_ID=5&order=1","3","214","7","4","lose","no-go","0"
"pit-trial","215","1134285","0.0-215.0","battery-v0.2","g","elianto","#f73b6a7A","-1","-1","-1","1","0","[]","0","3&age=8&participant_ID=5&order=1","3","215","8","4","lose","no-go","0"
"pit-trial","216","1139146","0.0-216.0","battery-v0.2","w","elianto","#f73b6a7A","32","-1","-1","0","-10","[]","0","3&age=8&participant_ID=5&order=1","3","216","5","3","lose","go","0"
"pit-trial","217","1144003","0.0-217.0","battery-v0.2","g","elianto","#f73b6a7A","-1","-1","-1","1","0","[]","0","3&age=8&participant_ID=5&order=1","3","217","8","4","lose","no-go","0"
"pit-trial","218","1148859","0.0-218.0","battery-v0.2","w","elianto","#f73b6a7A","32","-1","-1","0","-10","[]","0","3&age=8&participant_ID=5&order=1","3","218","5","3","lose","go","0"
"pit-trial","219","1153712","0.0-219.0","battery-v0.2","s","elianto","#3366ff99","-1","-1","-1","1","+10","[]","0","3&age=8&participant_ID=5&order=1","3","219","6","2","win","no-go","0"
"pit-trial","220","1158567","0.0-220.0","battery-v0.2","p","elianto","#f73b6a7A","-1","-1","-1","1","-10","[]","0","3&age=8&participant_ID=5&order=1","3","220","7","4","lose","no-go","1"
"pit-trial","221","1163426","0.0-221.0","battery-v0.2","g","elianto","#f73b6a7A","-1","-1","-1","1","-10","[]","0","3&age=8&participant_ID=5&order=1","3","221","8","4","lose","no-go","1"
"pit-trial","222","1168284","0.0-222.0","battery-v0.2","s","elianto","#3366ff99","-1","-1","-1","1","+10","[]","0","3&age=8&participant_ID=5&order=1","3","222","6","2","win","no-go","0"
"pit-trial","223","1173142","0.0-223.0","battery-v0.2","a","elianto","#3366ff99","32","-1","-1","0","+10","[]","0","3&age=8&participant_ID=5&order=1","3","223","9","1","win","go","1"
"pit-trial","224","1178002","0.0-224.0","battery-v0.2","l","elianto","#f73b6a7A","32","-1","-1","0","-10","[]","0","3&age=8&participant_ID=5&order=1","3","224","10","3","lose","go","0"
"pit-trial","225","1182858","0.0-225.0","battery-v0.2","l","elianto","#f73b6a7A","32","-1","-1","0","-10","[]","0","3&age=8&participant_ID=5&order=1","3","225","10","3","lose","go","0"
"pit-trial","226","1187718","0.0-226.0","battery-v0.2","a","elianto","#3366ff99","32","-1","-1","0","0","[]","0","3&age=8&participant_ID=5&order=1","3","226","9","1","win","go","0"
"pit-trial","227","1192576","0.0-227.0","battery-v0.2","g","elianto","#f73b6a7A","-1","-1","-1","1","-10","[]","0","3&age=8&participant_ID=5&order=1","3","227","8","4","lose","no-go","1"
"pit-trial","228","1197432","0.0-228.0","battery-v0.2","s","elianto","#3366ff99","-1","-1","-1","1","+10","[]","0","3&age=8&participant_ID=5&order=1","3","228","6","2","win","no-go","0"
"pit-trial","229","1202291","0.0-229.0","battery-v0.2","l","elianto","#f73b6a7A","32","-1","-1","0","-10","[]","0","3&age=8&participant_ID=5&order=1","3","229","10","3","lose","go","0"
"pit-trial","230","1207146","0.0-230.0","battery-v0.2","a","elianto","#3366ff99","32","-1","-1","0","+10","[]","0","3&age=8&participant_ID=5&order=1","3","230","9","1","win","go","1"
"pit-trial","231","1212005","0.0-231.0","battery-v0.2","g","elianto","#f73b6a7A","-1","-1","-1","1","0","[]","0","3&age=8&participant_ID=5&order=1","3","231","8","4","lose","no-go","0"
"pit-trial","232","1216865","0.0-232.0","battery-v0.2","u","elianto","#3366ff99","32","-1","-1","0","0","[]","0","3&age=8&participant_ID=5&order=1","3","232","11","1","win","go","0"
"pit-trial","233","1221722","0.0-233.0","battery-v0.2","l","elianto","#f73b6a7A","32","-1","-1","0","-10","[]","0","3&age=8&participant_ID=5&order=1","3","233","10","3","lose","go","0"
"pit-trial","234","1226584","0.0-234.0","battery-v0.2","u","elianto","#3366ff99","32","-1","-1","0","0","[]","0","3&age=8&participant_ID=5&order=1","3","234","11","1","win","go","0"
"pit-trial","235","1231438","0.0-235.0","battery-v0.2","a","elianto","#3366ff99","32","-1","-1","0","0","[]","0","3&age=8&participant_ID=5&order=1","3","235","9","1","win","go","0"
"pit-trial","236","1236298","0.0-236.0","battery-v0.2","g","elianto","#f73b6a7A","-1","-1","-1","1","0","[]","0","3&age=8&participant_ID=5&order=1","3","236","8","4","lose","no-go","0"
"pit-trial","237","1241159","0.0-237.0","battery-v0.2","g","elianto","#f73b6a7A","-1","-1","-1","1","0","[]","0","3&age=8&participant_ID=5&order=1","3","237","8","4","lose","no-go","0"
"pit-trial","238","1246015","0.0-238.0","battery-v0.2","l","elianto","#f73b6a7A","32","-1","-1","0","0","[]","0","3&age=8&participant_ID=5&order=1","3","238","10","3","lose","go","1"
"pit-trial","239","1250871","0.0-239.0","battery-v0.2","a","elianto","#3366ff99","32","-1","-1","0","0","[]","0","3&age=8&participant_ID=5&order=1","3","239","9","1","win","go","0"
"pit-trial","240","1255727","0.0-240.0","battery-v0.2","u","elianto","#3366ff99","32","-1","-1","0","0","[]","0","3&age=8&participant_ID=5&order=1","3","240","11","1","win","go","0"
"pit-trial","241","1260585","0.0-241.0","battery-v0.2","g","elianto","#f73b6a7A","-1","-1","-1","1","0","[]","0","3&age=8&participant_ID=5&order=1","3","241","8","4","lose","no-go","0"
"pit-trial","242","1265438","0.0-242.0","battery-v0.2","u","elianto","#3366ff99","32","-1","-1","0","0","[]","0","3&age=8&participant_ID=5&order=1","3","242","11","1","win","go","0"
"pit-trial","243","1270295","0.0-243.0","battery-v0.2","a","elianto","#3366ff99","32","-1","-1","0","0","[]","0","3&age=8&participant_ID=5&order=1","3","243","9","1","win","go","0"
"pit-trial","244","1275153","0.0-244.0","battery-v0.2","l","elianto","#f73b6a7A","32","-1","-1","0","-10","[]","0","3&age=8&participant_ID=5&order=1","3","244","10","3","lose","go","0"
"pit-trial","245","1280010","0.0-245.0","battery-v0.2","l","elianto","#f73b6a7A","32","-1","-1","0","-10","[]","0","3&age=8&participant_ID=5&order=1","3","245","10","3","lose","go","0"
"pit-trial","246","1284869","0.0-246.0","battery-v0.2","g","elianto","#f73b6a7A","-1","-1","-1","1","0","[]","0","3&age=8&participant_ID=5&order=1","3","246","8","4","lose","no-go","0"
"pit-trial","247","1289727","0.0-247.0","battery-v0.2","u","elianto","#3366ff99","32","-1","-1","0","0","[]","0","3&age=8&participant_ID=5&order=1","3","247","11","1","win","go","0"
"pit-trial","248","1294583","0.0-248.0","battery-v0.2","a","elianto","#3366ff99","32","-1","-1","0","+10","[]","0","3&age=8&participant_ID=5&order=1","3","248","9","1","win","go","1"
"pit-trial","249","1299440","0.0-249.0","battery-v0.2","a","elianto","#3366ff99","32","-1","-1","0","+10","[]","0","3&age=8&participant_ID=5&order=1","3","249","9","1","win","go","1"
"pit-trial","250","1304296","0.0-250.0","battery-v0.2","l","elianto","#f73b6a7A","32","-1","-1","0","-10","[]","0","3&age=8&participant_ID=5&order=1","3","250","10","3","lose","go","0"
"pit-trial","251","1309154","0.0-251.0","battery-v0.2","u","elianto","#3366ff99","32","-1","-1","0","+10","[]","0","3&age=8&participant_ID=5&order=1","3","251","11","1","win","go","1"
"pit-trial","252","1314009","0.0-252.0","battery-v0.2","g","elianto","#f73b6a7A","-1","-1","-1","1","0","[]","0","3&age=8&participant_ID=5&order=1","3","252","8","4","lose","no-go","0"
"pit-trial","253","1318869","0.0-253.0","battery-v0.2","g","elianto","#f73b6a7A","-1","-1","-1","1","0","[]","0","3&age=8&participant_ID=5&order=1","3","253","8","4","lose","no-go","0"
"pit-trial","254","1323726","0.0-254.0","battery-v0.2","l","elianto","#f73b6a7A","32","-1","-1","0","-10","[]","0","3&age=8&participant_ID=5&order=1","3","254","10","3","lose","go","0"
"pit-trial","255","1328584","0.0-255.0","battery-v0.2","u","elianto","#3366ff99","32","-1","-1","0","0","[]","0","3&age=8&participant_ID=5&order=1","3","255","11","1","win","go","0"
"pit-trial","256","1333442","0.0-256.0","battery-v0.2","a","elianto","#3366ff99","32","-1","-1","0","0","[]","0","3&age=8&participant_ID=5&order=1","3","256","9","1","win","go","0"
"pit-trial","257","1338296","0.0-257.0","battery-v0.2","l","elianto","#f73b6a7A","32","-1","-1","0","-10","[]","0","3&age=8&participant_ID=5&order=1","3","257","10","3","lose","go","0"
"pit-trial","258","1343153","0.0-258.0","battery-v0.2","g","elianto","#f73b6a7A","-1","-1","-1","1","-10","[]","0","3&age=8&participant_ID=5&order=1","3","258","8","4","lose","no-go","1"
"pit-trial","259","1348014","0.0-259.0","battery-v0.2","u","elianto","#3366ff99","32","-1","-1","0","0","[]","0","3&age=8&participant_ID=5&order=1","3","259","11","1","win","go","0"
"pit-trial","260","1352868","0.0-260.0","battery-v0.2","a","elianto","#3366ff99","32","-1","-1","0","0","[]","0","3&age=8&participant_ID=5&order=1","3","260","9","1","win","go","0"
