"trial_type","trial_index","time_elapsed","internal_node_id","task_version","view_history","rt","rune","rune_set","hex","correct","choice","accuracy","outcome","keys","total_keys","block","practice","value"
"pavlovia","0","50","0.0-0.0","battery-v0.2","","","","","","","","","","","","","",""
"pit-instructions","1","6778","0.0-1.0-0.0","battery-v0.2","[{""page_index"":0,""viewing_time"":2905.144999967888},{""page_index"":1,""viewing_time"":541.2249999353662},{""page_index"":2,""viewing_time"":314.79000009130687},{""page_index"":3,""viewing_time"":476.7299999948591},{""page_index"":4,""viewing_time"":346.614999929443},{""page_index"":5,""viewing_time"":412.1349999913946},{""page_index"":6,""viewing_time"":428.4900000784546},{""page_index"":7,""viewing_time"":451.6849999781698},{""page_index"":8,""viewing_time"":338.91499997116625},{""page_index"":9,""viewing_time"":508.7350000394508}]","6725.564999971539","","","","","","","","","","","",""
"pit-trial","2","12986","0.0-1.0-1.0-0.0","battery-v0.2","","-1","1","elianto","#3366ff99","32","-1","0","0","","0","0","1",""
"pit-trial","3","17157","0.0-1.0-1.1-0.1","battery-v0.2","","1465.8549999585375","1","elianto","#3366ff99","32","32","1","+10","2966.2849999731407","1","0","1",""
"pit-trial","4","23366","0.0-1.0-1.2-0.2","battery-v0.2","","-1","1","elianto","#3366ff99","32","-1","0","0","","0","0","1",""
"pit-trial","5","26891","0.0-1.0-1.3-0.3","battery-v0.2","","821.0049999179319","1","elianto","#3366ff99","32","32","1","+10","2321.8699999852106","1","0","1",""
"pit-trial","6","33101","0.0-1.0-1.4-0.4","battery-v0.2","","-1","1","elianto","#3366ff99","32","-1","0","0","","0","0","1",""
"pit-trial","7","39305","0.0-1.0-1.5-0.5","battery-v0.2","","-1","1","elianto","#3366ff99","32","-1","0","0","","0","0","1",""
"pit-trial","8","45517","0.0-1.0-1.6-0.6","battery-v0.2","","-1","1","elianto","#3366ff99","32","-1","0","0","","0","0","1",""
"pit-trial","9","51725","0.0-1.0-1.7-0.7","battery-v0.2","","-1","1","elianto","#3366ff99","32","-1","0","0","","0","0","1",""
"pit-trial","10","57932","0.0-1.0-1.8-0.8","battery-v0.2","","-1","1","elianto","#3366ff99","32","-1","0","0","","0","0","1",""
"pit-trial","11","64137","0.0-1.0-1.9-0.9","battery-v0.2","","-1","1","elianto","#3366ff99","32","-1","0","0","","0","0","1",""
"pit-trial","12","70344","0.0-1.0-1.10-0.10","battery-v0.2","","-1","1","elianto","#3366ff99","32","-1","0","0","","0","0","1",""
"pit-trial","13","76673","0.0-1.0-1.11-0.11","battery-v0.2","","-1","1","elianto","#3366ff99","32","-1","0","0","","0","0","1",""
"pit-trial","14","82880","0.0-1.0-1.12-0.12","battery-v0.2","","-1","1","elianto","#3366ff99","32","-1","0","0","","0","0","1",""
"pit-trial","15","89084","0.0-1.0-1.13-0.13","battery-v0.2","","-1","1","elianto","#3366ff99","32","-1","0","0","","0","0","1",""
"pit-trial","16","95294","0.0-1.0-1.14-0.14","battery-v0.2","","-1","1","elianto","#3366ff99","32","-1","0","0","","0","0","1",""
"pit-trial","17","101505","0.0-1.0-1.15-0.15","battery-v0.2","","-1","1","elianto","#3366ff99","32","-1","0","0","","0","0","1",""
"pit-trial","18","107717","0.0-1.0-1.16-0.16","battery-v0.2","","-1","1","elianto","#3366ff99","32","-1","0","0","","0","0","1",""
"pit-trial","19","113930","0.0-1.0-1.17-0.17","battery-v0.2","","-1","1","elianto","#3366ff99","32","-1","0","0","","0","0","1",""
"pit-trial","20","121351","0.0-1.0-1.18-0.18","battery-v0.2","","-1","1","elianto","#3366ff99","32","-1","0","0","","0","0","1",""
"pit-trial","21","129500","0.0-1.0-1.19-0.19","battery-v0.2","","-1","1","elianto","#3366ff99","32","-1","0","0","","0","0","1",""
"pit-trial","22","135708","0.0-1.0-1.20-0.20","battery-v0.2","","-1","1","elianto","#3366ff99","32","-1","0","0","","0","0","1",""
"pit-trial","23","141918","0.0-1.0-1.21-0.21","battery-v0.2","","-1","1","elianto","#3366ff99","32","-1","0","0","","0","0","1",""
"pit-trial","24","148125","0.0-1.0-1.22-0.22","battery-v0.2","","-1","1","elianto","#3366ff99","32","-1","0","0","","0","0","1",""
"pit-trial","25","151307","0.0-1.0-1.23-0.23","battery-v0.2","","474.5500000426546","1","elianto","#3366ff99","32","32","1","+10","1974.724999978207","1","0","1",""
"pit-trial","26","155148","0.0-1.0-1.24-0.24","battery-v0.2","","1133.1300000892952","1","elianto","#3366ff99","32","32","1","+10","2633.9249999728054","1","0","1",""
"pit-trial","27","161357","0.0-1.0-1.25-0.25","battery-v0.2","","-1","1","elianto","#3366ff99","32","-1","0","0","","0","0","1",""
"pit-trial","28","167566","0.0-1.0-1.26-0.26","battery-v0.2","","-1","1","elianto","#3366ff99","32","-1","0","0","","0","0","1",""
"pit-trial","29","173778","0.0-1.0-1.27-0.27","battery-v0.2","","-1","1","elianto","#3366ff99","32","-1","0","0","","0","0","1",""
"pit-trial","30","179989","0.0-1.0-1.28-0.28","battery-v0.2","","-1","1","elianto","#3366ff99","32","-1","0","0","","0","0","1",""
"pit-trial","31","186191","0.0-1.0-1.29-0.29","battery-v0.2","","-1","1","elianto","#3366ff99","32","-1","0","0","","0","0","1",""
"pit-trial","32","192400","0.0-1.0-1.30-0.30","battery-v0.2","","-1","1","elianto","#3366ff99","32","-1","0","0","","0","0","1",""
"pit-trial","33","198609","0.0-1.0-1.31-0.31","battery-v0.2","","-1","1","elianto","#3366ff99","32","-1","0","0","","0","0","1",""
"pit-trial","34","204821","0.0-1.0-1.32-0.32","battery-v0.2","","-1","1","elianto","#3366ff99","32","-1","0","0","","0","0","1",""
"pit-trial","35","211031","0.0-1.0-1.33-0.33","battery-v0.2","","-1","1","elianto","#3366ff99","32","-1","0","0","","0","0","1",""
"pit-trial","36","217241","0.0-1.0-1.34-0.34","battery-v0.2","","-1","1","elianto","#3366ff99","32","-1","0","0","","0","0","1",""
"pit-trial","37","223450","0.0-1.0-1.35-0.35","battery-v0.2","","-1","1","elianto","#3366ff99","32","-1","0","0","","0","0","1",""
"pit-trial","38","229658","0.0-1.0-1.36-0.36","battery-v0.2","","-1","1","elianto","#3366ff99","32","-1","0","0","","0","0","1",""
"pit-trial","39","235864","0.0-1.0-1.37-0.37","battery-v0.2","","-1","1","elianto","#3366ff99","32","-1","0","0","","0","0","1",""
"pit-trial","40","242377","0.0-1.0-1.38-0.38","battery-v0.2","","-1","1","elianto","#3366ff99","32","-1","0","0","","0","0","1",""
"pit-trial","41","248584","0.0-1.0-1.39-0.39","battery-v0.2","","-1","1","elianto","#3366ff99","32","-1","0","0","","0","0","1",""
"pit-trial","42","254792","0.0-1.0-1.40-0.40","battery-v0.2","","-1","1","elianto","#3366ff99","32","-1","0","0","","0","0","1",""
"pit-trial","43","260999","0.0-1.0-1.41-0.41","battery-v0.2","","-1","1","elianto","#3366ff99","32","-1","0","0","","0","0","1",""
"pit-trial","44","267209","0.0-1.0-1.42-0.42","battery-v0.2","","-1","1","elianto","#3366ff99","32","-1","0","0","","0","0","1",""
"pit-trial","45","273417","0.0-1.0-1.43-0.43","battery-v0.2","","-1","1","elianto","#3366ff99","32","-1","0","0","","0","0","1",""
"pit-trial","46","279625","0.0-1.0-1.44-0.44","battery-v0.2","","-1","1","elianto","#3366ff99","32","-1","0","0","","0","0","1",""
"pit-trial","47","285835","0.0-1.0-1.45-0.45","battery-v0.2","","-1","1","elianto","#3366ff99","32","-1","0","0","","0","0","1",""
"pit-trial","48","292046","0.0-1.0-1.46-0.46","battery-v0.2","","-1","1","elianto","#3366ff99","32","-1","0","0","","0","0","1",""
"pit-trial","49","298258","0.0-1.0-1.47-0.47","battery-v0.2","","-1","1","elianto","#3366ff99","32","-1","0","0","","0","0","1",""
"pit-trial","50","304471","0.0-1.0-1.48-0.48","battery-v0.2","","-1","1","elianto","#3366ff99","32","-1","0","0","","0","0","1",""
"pit-trial","51","310681","0.0-1.0-1.49-0.49","battery-v0.2","","-1","1","elianto","#3366ff99","32","-1","0","0","","0","0","1",""
"pit-trial","52","316892","0.0-1.0-1.50-0.50","battery-v0.2","","-1","1","elianto","#3366ff99","32","-1","0","0","","0","0","1",""
"pit-trial","53","323098","0.0-1.0-1.51-0.51","battery-v0.2","","-1","1","elianto","#3366ff99","32","-1","0","0","","0","0","1",""
"pit-trial","54","329309","0.0-1.0-1.52-0.52","battery-v0.2","","-1","1","elianto","#3366ff99","32","-1","0","0","","0","0","1",""
"pit-trial","55","335516","0.0-1.0-1.53-0.53","battery-v0.2","","-1","1","elianto","#3366ff99","32","-1","0","0","","0","0","1",""
"pit-trial","56","341720","0.0-1.0-1.54-0.54","battery-v0.2","","-1","1","elianto","#3366ff99","32","-1","0","0","","0","0","1",""
"pit-trial","57","349354","0.0-1.0-1.55-0.55","battery-v0.2","","-1","1","elianto","#3366ff99","32","-1","0","0","","0","0","1",""
"pit-trial","58","357354","0.0-1.0-1.56-0.56","battery-v0.2","","-1","1","elianto","#3366ff99","32","-1","0","0","","0","0","1",""
"pit-trial","59","365353","0.0-1.0-1.57-0.57","battery-v0.2","","-1","1","elianto","#3366ff99","32","-1","0","0","","0","0","1",""
"pit-trial","60","373353","0.0-1.0-1.58-0.58","battery-v0.2","","-1","1","elianto","#3366ff99","32","-1","0","0","","0","0","1",""
"pit-trial","61","381354","0.0-1.0-1.59-0.59","battery-v0.2","","-1","1","elianto","#3366ff99","32","-1","0","0","","0","0","1",""
"pit-trial","62","389354","0.0-1.0-1.60-0.60","battery-v0.2","","-1","1","elianto","#3366ff99","32","-1","0","0","","0","0","1",""
"call-function","63","389354","0.0-1.0-2.0","battery-v0.2","","","","","","","","","","","","","",""
