"trial_type","trial_index","time_elapsed","internal_node_id","task_version","success","view_history","rt","rune","rune_set","hex","correct","choice","accuracy","outcome","keys","total_keys","block","practice","subject","participantId","value","responses","num_errors","sub","trial","stimulus","robot","valence","action","sham"
"pavlovia","0","23","0.0-0.0","battery-v0.2","","","","","","","","","","","","","","","","","","","","","","","","","",""
"fullscreen","1","4846","0.0-1.0","battery-v0.2","true","","","","","","","","","","","","","","","","","","","","","","","","",""
"pit-instructions","2","57529","0.0-2.0-0.0","battery-v0.2","","[{""page_index"":0,""viewing_time"":3252.5},{""page_index"":1,""viewing_time"":4177.800000011921},{""page_index"":2,""viewing_time"":2697.699999988079},{""page_index"":3,""viewing_time"":1986.300000011921},{""page_index"":4,""viewing_time"":1995.5999999940395},{""page_index"":5,""viewing_time"":2166.4000000059605},{""page_index"":6,""viewing_time"":2492.199999988079},{""page_index"":7,""viewing_time"":4042.9000000059605},{""page_index"":8,""viewing_time"":3209.4000000059605},{""page_index"":9,""viewing_time"":3202.5999999940395},{""page_index"":10,""viewing_time"":7649.5},{""page_index"":11,""viewing_time"":3365.0999999940395},{""page_index"":12,""viewing_time"":5249.5},{""page_index"":13,""viewing_time"":4928.9000000059605},{""page_index"":14,""viewing_time"":2260.2000000178814}]","52677.90000000596","","","","","","","","","","","","","","","","","","","","","","",""
"pit-trial","3","60985","0.0-2.0-1.0-0.0","battery-v0.2","","","596.4000000059605","&#9784;","elianto","#FFFFF080","32","32","1","&#10004","1449.0999999940395","1","0","0","615a0ad49f4aaece709552c5&order=&STUDY_ID=61f02a8661f82b834564f044","999","","","","","","","","","",""
"pit-trial","4","64465","0.0-2.0-1.1-0.1","battery-v0.2","","","617.1000000238419","&#9784;","elianto","#FFFFF080","32","32","1","&#10004","1467.6000000238419","1","0","0","615a0ad49f4aaece709552c5&order=&STUDY_ID=61f02a8661f82b834564f044","999","","","","","","","","","",""
"pit-trial","5","68025","0.0-2.0-1.2-0.2","battery-v0.2","","","703.0999999940395","&#9784;","elianto","#FFFFF080","32","32","1","&#10004","1553.800000011921","1","0","0","615a0ad49f4aaece709552c5&order=&STUDY_ID=61f02a8661f82b834564f044","999","","","","","","","","","",""
"pit-trial","6","71409","0.0-2.0-1.3-0.3","battery-v0.2","","","524.6999999880791","&#9784;","elianto","#FFFFF080","32","32","1","&#10004","1376.7000000178814","1","0","0","615a0ad49f4aaece709552c5&order=&STUDY_ID=61f02a8661f82b834564f044","999","","","","","","","","","",""
"pit-trial","7","74912","0.0-2.0-1.4-0.4","battery-v0.2","","","642.3000000119209","&#9784;","elianto","#FFFFF080","32","32","1","&#10004","1494.2000000178814","1","0","0","615a0ad49f4aaece709552c5&order=&STUDY_ID=61f02a8661f82b834564f044","999","","","","","","","","","",""
"pit-instructions","8","84110","0.0-2.0-2.0","battery-v0.2","","[{""page_index"":0,""viewing_time"":2723.699999988079},{""page_index"":1,""viewing_time"":2241.7000000178814},{""page_index"":2,""viewing_time"":2346},{""page_index"":3,""viewing_time"":1880.5}]","9192.5","","","","","","","","","","","","","","","","","","","","","","",""
"pit-trial","9","88972","0.0-2.0-3.0-0.0","battery-v0.2","","","-1","&#9854;","elianto","#FFFFF080","-1","-1","1","&#10004","","0","0","1","615a0ad49f4aaece709552c5&order=&STUDY_ID=61f02a8661f82b834564f044","999","","","","","","","","","",""
"pit-trial","10","93839","0.0-2.0-3.1-0.1","battery-v0.2","","","-1","&#9854;","elianto","#FFFFF080","-1","-1","1","&#10004","","0","0","1","615a0ad49f4aaece709552c5&order=&STUDY_ID=61f02a8661f82b834564f044","999","","","","","","","","","",""
"pit-trial","11","98698","0.0-2.0-3.2-0.2","battery-v0.2","","","-1","&#9854;","elianto","#FFFFF080","-1","-1","1","&#10004","","0","0","1","615a0ad49f4aaece709552c5&order=&STUDY_ID=61f02a8661f82b834564f044","999","","","","","","","","","",""
"pit-trial","12","103562","0.0-2.0-3.3-0.3","battery-v0.2","","","-1","&#9854;","elianto","#FFFFF080","-1","-1","1","&#10004","","0","0","1","615a0ad49f4aaece709552c5&order=&STUDY_ID=61f02a8661f82b834564f044","999","","","","","","","","","",""
"pit-trial","13","108426","0.0-2.0-3.4-0.4","battery-v0.2","","","-1","&#9854;","elianto","#FFFFF080","-1","-1","1","&#10004","","0","0","1","615a0ad49f4aaece709552c5&order=&STUDY_ID=61f02a8661f82b834564f044","999","","","","","","","","","",""
"pit-instructions","14","168788","0.0-2.0-4.0","battery-v0.2","","[{""page_index"":0,""viewing_time"":2619.5},{""page_index"":1,""viewing_time"":4451.700000017881},{""page_index"":2,""viewing_time"":4120.5999999940395},{""page_index"":3,""viewing_time"":4061},{""page_index"":4,""viewing_time"":2199.5},{""page_index"":5,""viewing_time"":1380.5999999940395},{""page_index"":6,""viewing_time"":88.90000000596046},{""page_index"":7,""viewing_time"":2731.699999988079},{""page_index"":8,""viewing_time"":2665.800000011921},{""page_index"":9,""viewing_time"":3605.5},{""page_index"":10,""viewing_time"":3295.0999999940395},{""page_index"":11,""viewing_time"":2705.4000000059605},{""page_index"":12,""viewing_time"":2690},{""page_index"":13,""viewing_time"":2411.5},{""page_index"":14,""viewing_time"":5297.800000011921},{""page_index"":15,""viewing_time"":5551.199999988079},{""page_index"":16,""viewing_time"":6466.699999988079},{""page_index"":17,""viewing_time"":4015.800000011921}]","60359.20000001788","","","","","","","","","","","","","","","","","","","","","","",""
"pit-trial","15","172802","0.0-2.0-5.0-0.0","battery-v0.2","","","1154.5999999940395","&#9776;","elianto","#3366ff99","32","32","1","+10","2005","1","0","1","615a0ad49f4aaece709552c5&order=&STUDY_ID=61f02a8661f82b834564f044","999","","","","","","","","","",""
"pit-trial","16","176160","0.0-2.0-5.0-1.0","battery-v0.2","","","502.5","&#9776;","elianto","#3366ff99","32","32","1","+10","1353.2000000178814","1","0","1","615a0ad49f4aaece709552c5&order=&STUDY_ID=61f02a8661f82b834564f044","999","","","","","","","","","",""
"pit-trial","17","181022","0.0-2.0-5.0-2.0","battery-v0.2","","","-1","&#9776;","elianto","#3366ff99","32","-1","0","0","3000.7999999821186","1","0","1","615a0ad49f4aaece709552c5&order=&STUDY_ID=61f02a8661f82b834564f044","999","","","","","","","","","",""
"pit-trial","18","184190","0.0-2.0-5.0-3.0","battery-v0.2","","","308.5","&#9776;","elianto","#3366ff99","32","32","1","0","1159.5999999940395","1","0","1","615a0ad49f4aaece709552c5&order=&STUDY_ID=61f02a8661f82b834564f044","999","","","","","","","","","",""
"pit-trial","19","187428","0.0-2.0-5.0-4.0","battery-v0.2","","","379.40000000596046","&#9776;","elianto","#3366ff99","32","32","1","+10","1229.800000011921","1","0","1","615a0ad49f4aaece709552c5&order=&STUDY_ID=61f02a8661f82b834564f044","999","","","","","","","","","",""
"pit-trial","20","191240","0.0-2.0-5.1-0.1","battery-v0.2","","","952.1000000238419","&#9776;","elianto","#3366ff99","32","32","1","+10","1804.6000000238419","1","0","1","615a0ad49f4aaece709552c5&order=&STUDY_ID=61f02a8661f82b834564f044","999","","","","","","","","","",""
"pit-trial","21","194740","0.0-2.0-5.1-1.1","battery-v0.2","","","642","&#9776;","elianto","#3366ff99","32","32","1","+10","1492.4000000059605","1","0","1","615a0ad49f4aaece709552c5&order=&STUDY_ID=61f02a8661f82b834564f044","999","","","","","","","","","",""
"pit-trial","22","198039","0.0-2.0-5.1-2.1","battery-v0.2","","","439.69999998807907","&#9776;","elianto","#3366ff99","32","32","1","+10","1290.300000011921","1","0","1","615a0ad49f4aaece709552c5&order=&STUDY_ID=61f02a8661f82b834564f044","999","","","","","","","","","",""
"pit-trial","23","201374","0.0-2.0-5.1-3.1","battery-v0.2","","","475.80000001192093","&#9776;","elianto","#3366ff99","32","32","1","0","1326.7999999821186","1","0","1","615a0ad49f4aaece709552c5&order=&STUDY_ID=61f02a8661f82b834564f044","999","","","","","","","","","",""
"pit-trial","24","204631","0.0-2.0-5.1-4.1","battery-v0.2","","","397.69999998807907","&#9776;","elianto","#3366ff99","32","32","1","+10","1249","1","0","1","615a0ad49f4aaece709552c5&order=&STUDY_ID=61f02a8661f82b834564f044","999","","","","","","","","","",""
"call-function","25","204631","0.0-2.0-6.0","battery-v0.2","","","","","","","","","","","","","","","","","","","","","","","","","",""
"pit-instructions","26","226756","0.0-2.0-7.0","battery-v0.2","","[{""page_index"":0,""viewing_time"":3880.399999976158},{""page_index"":1,""viewing_time"":1700.7000000178814},{""page_index"":2,""viewing_time"":2288},{""page_index"":3,""viewing_time"":5576.299999982119},{""page_index"":4,""viewing_time"":4888.4000000059605},{""page_index"":5,""viewing_time"":3790.2000000178814}]","22124.899999976158","","","","","","","","","","","","","","","","","","","","","","",""
"pit-trial","27","230039","0.0-2.0-8.0-0.0","battery-v0.2","","","424.69999998807907","&#9761;","elianto","#3366ff99","-1","32","0","0","1276","1","0","2","615a0ad49f4aaece709552c5&order=&STUDY_ID=61f02a8661f82b834564f044","999","","","","","","","","","",""
"pit-trial","28","234899","0.0-2.0-8.0-1.0","battery-v0.2","","","-1","&#9761;","elianto","#3366ff99","-1","-1","1","+10","","0","0","2","615a0ad49f4aaece709552c5&order=&STUDY_ID=61f02a8661f82b834564f044","999","","","","","","","","","",""
"pit-trial","29","239759","0.0-2.0-8.0-2.0","battery-v0.2","","","-1","&#9761;","elianto","#3366ff99","-1","-1","1","+10","","0","0","2","615a0ad49f4aaece709552c5&order=&STUDY_ID=61f02a8661f82b834564f044","999","","","","","","","","","",""
"pit-trial","30","244617","0.0-2.0-8.0-3.0","battery-v0.2","","","-1","&#9761;","elianto","#3366ff99","-1","-1","1","0","","0","0","2","615a0ad49f4aaece709552c5&order=&STUDY_ID=61f02a8661f82b834564f044","999","","","","","","","","","",""
"pit-trial","31","249480","0.0-2.0-8.0-4.0","battery-v0.2","","","-1","&#9761;","elianto","#3366ff99","-1","-1","1","+10","","0","0","2","615a0ad49f4aaece709552c5&order=&STUDY_ID=61f02a8661f82b834564f044","999","","","","","","","","","",""
"call-function","32","249483","0.0-2.0-9.0","battery-v0.2","","","","","","","","","","","","","","","","","","","","","","","","","",""
"pit-instructions","33","261834","0.0-2.0-10.0","battery-v0.2","","[{""page_index"":0,""viewing_time"":2243.800000011921},{""page_index"":1,""viewing_time"":2870.2999999821186},{""page_index"":2,""viewing_time"":1700.9000000059605},{""page_index"":3,""viewing_time"":2991.9000000059605},{""page_index"":4,""viewing_time"":2542.5}]","12350.300000011921","","","","","","","","","","","","","","","","","","","","","","",""
"pit-trial","34","265237","0.0-2.0-11.0-0.0","battery-v0.2","","","548.2000000178814","&#9826;","elianto","#f73b6a7A","-1","32","0","-10","1399.0999999940395","1","0","3","615a0ad49f4aaece709552c5&order=&STUDY_ID=61f02a8661f82b834564f044","999","","","","","","","","","",""
"pit-trial","35","270098","0.0-2.0-11.0-1.0","battery-v0.2","","","-1","&#9826;","elianto","#f73b6a7A","-1","-1","1","0","","0","0","3","615a0ad49f4aaece709552c5&order=&STUDY_ID=61f02a8661f82b834564f044","999","","","","","","","","","",""
"pit-trial","36","274962","0.0-2.0-11.0-2.0","battery-v0.2","","","-1","&#9826;","elianto","#f73b6a7A","-1","-1","1","0","","0","0","3","615a0ad49f4aaece709552c5&order=&STUDY_ID=61f02a8661f82b834564f044","999","","","","","","","","","",""
"pit-trial","37","279821","0.0-2.0-11.0-3.0","battery-v0.2","","","-1","&#9826;","elianto","#f73b6a7A","-1","-1","1","-10","","0","0","3","615a0ad49f4aaece709552c5&order=&STUDY_ID=61f02a8661f82b834564f044","999","","","","","","","","","",""
"pit-trial","38","284684","0.0-2.0-11.0-4.0","battery-v0.2","","","-1","&#9826;","elianto","#f73b6a7A","-1","-1","1","0","","0","0","3","615a0ad49f4aaece709552c5&order=&STUDY_ID=61f02a8661f82b834564f044","999","","","","","","","","","",""
"call-function","39","284687","0.0-2.0-12.0","battery-v0.2","","","","","","","","","","","","","","","","","","","","","","","","","",""
"pit-instructions","40","295188","0.0-2.0-13.0","battery-v0.2","","[{""page_index"":0,""viewing_time"":3110.800000011921},{""page_index"":1,""viewing_time"":3040.0999999940395},{""page_index"":2,""viewing_time"":1568.2000000178814},{""page_index"":3,""viewing_time"":2780.5999999940395}]","10500.5","","","","","","","","","","","","","","","","","","","","","","",""
"pit-trial","41","298421","0.0-2.0-14.0-0.0","battery-v0.2","","","374.7000000178814","&#9789;","elianto","#f73b6a7A","32","32","1","0","1225.5","1","0","4","615a0ad49f4aaece709552c5&order=&STUDY_ID=61f02a8661f82b834564f044","999","","","","","","","","","",""
"pit-trial","42","301468","0.0-2.0-14.0-1.0","battery-v0.2","","","188.19999998807907","&#9789;","elianto","#f73b6a7A","32","32","1","0","1038.5","1","0","4","615a0ad49f4aaece709552c5&order=&STUDY_ID=61f02a8661f82b834564f044","999","","","","","","","","","",""
"pit-trial","43","304487","0.0-2.0-14.0-2.0","battery-v0.2","","","164.59999999403954","&#9789;","elianto","#f73b6a7A","32","32","1","0","1014.8000000119209","1","0","4","615a0ad49f4aaece709552c5&order=&STUDY_ID=61f02a8661f82b834564f044","999","","","","","","","","","",""
"pit-trial","44","307500","0.0-2.0-14.0-3.0","battery-v0.2","","","154.30000001192093","&#9789;","elianto","#f73b6a7A","32","32","1","-10","1005.2000000178814","1","0","4","615a0ad49f4aaece709552c5&order=&STUDY_ID=61f02a8661f82b834564f044","999","","","","","","","","","",""
"pit-trial","45","310825","0.0-2.0-14.0-4.0","battery-v0.2","","","465.30000001192093","&#9789;","elianto","#f73b6a7A","32","32","1","0","1316.300000011921","1","0","4","615a0ad49f4aaece709552c5&order=&STUDY_ID=61f02a8661f82b834564f044","999","","","","","","","","","",""
"call-function","46","310828","0.0-2.0-15.0","battery-v0.2","","","","","","","","","","","","","","","","","","","","","","","","","",""
"pit-instructions","47","341327","0.0-2.0-16.0","battery-v0.2","","[{""page_index"":0,""viewing_time"":2025.5},{""page_index"":1,""viewing_time"":2019.2000000178814},{""page_index"":2,""viewing_time"":5623},{""page_index"":3,""viewing_time"":3781.5},{""page_index"":4,""viewing_time"":3919.0999999940395},{""page_index"":5,""viewing_time"":1807.5},{""page_index"":6,""viewing_time"":6599.199999988079},{""page_index"":7,""viewing_time"":3096.9000000059605},{""page_index"":8,""viewing_time"":1626.5999999940395}]","30499.100000023842","","","","","","","","","","","","","","","","","","","","","","",""
"pit-comprehension","48","345606","0.0-2.0-17.0-0.0","battery-v0.2","","","4273.300000011921","","","","","","","","","","","","","","","SPACE","0","","","","","","",""
"pit-instructions","49","347198","0.0-2.0-17.0-1.0","battery-v0.2","","[{""page_index"":0,""viewing_time"":1555.4000000059605}]","1556.2000000178814","","","","","","","","","","","","","","","","","","","","","","",""
"pit-comprehension","50","350903","0.0-2.0-18.0-0.0","battery-v0.2","","","3700","","","","","","","","","","","","","","","10","0","","","","","","",""
"pit-instructions","51","355221","0.0-2.0-18.0-1.0","battery-v0.2","","[{""page_index"":0,""viewing_time"":4300.300000011921}]","4301.100000023842","","","","","","","","","","","","","","","","","","","","","","",""
"pit-comprehension","52","359228","0.0-2.0-19.0-0.0","battery-v0.2","","","4002.399999976158","","","","","","","","","","","","","","","-10","1","","","","","","",""
"pit-instructions","53","365209","0.0-2.0-19.0-1.0","battery-v0.2","","[{""page_index"":0,""viewing_time"":5962}]","5962.9000000059605","","","","","","","","","","","","","","","","","","","","","","",""
"pit-instructions","54","366590","0.0-2.0-19.0-2.0-0.0","battery-v0.2","","[{""page_index"":0,""viewing_time"":1377.7999999821186}]","1378.5","","","","","","","","","","","","","","","","","","","","","","",""
"pit-comprehension","55","371873","0.0-2.0-19.1-0.1","battery-v0.2","","","5278","","","","","","","","","","","","","","","0","0","","","","","","",""
"pit-instructions","56","373058","0.0-2.0-19.1-1.1","battery-v0.2","","[{""page_index"":0,""viewing_time"":1167}]","1167.9000000059605","","","","","","","","","","","","","","","","","","","","","","",""
"pit-comprehension","57","380297","0.0-2.0-20.0-0.0","battery-v0.2","","","7235.300000011921","","","","","","","","","","","","","","","True","0","","","","","","",""
"pit-instructions","58","381426","0.0-2.0-20.0-1.0","battery-v0.2","","[{""page_index"":0,""viewing_time"":1113}]","1113.7999999821186","","","","","","","","","","","","","","","","","","","","","","",""
"pit-comprehension","59","385261","0.0-2.0-21.0-0.0","battery-v0.2","","","3831","","","","","","","","","","","","","","","True","0","","","","","","",""
"pit-instructions","60","386397","0.0-2.0-21.0-1.0","battery-v0.2","","[{""page_index"":0,""viewing_time"":1116.5999999940395}]","1117.5","","","","","","","","","","","","","","","","","","","","","","",""
"pit-comprehension","61","390273","0.0-2.0-22.0-0.0","battery-v0.2","","","3872.0999999940395","","","","","","","","","","","","","","","True","0","","","","","","",""
"pit-instructions","62","391432","0.0-2.0-22.0-1.0","battery-v0.2","","[{""page_index"":0,""viewing_time"":1140.5}]","1141.5","","","","","","","","","","","","","","","","","","","","","","",""
"pit-comprehension","63","395995","0.0-2.0-23.0-0.0","battery-v0.2","","","4558.300000011921","","","","","","","","","","","","","","","False","0","","","","","","",""
"pit-instructions","64","396958","0.0-2.0-23.0-1.0","battery-v0.2","","[{""page_index"":0,""viewing_time"":945.4000000059605}]","946","","","","","","","","","","","","","","","","","","","","","","",""
"pit-instructions","65","408452","0.0-3.0","battery-v0.2","","[{""page_index"":0,""viewing_time"":1052},{""page_index"":1,""viewing_time"":5278.4000000059605},{""page_index"":2,""viewing_time"":5159.5}]","11490.59999999404","","","","","","","","","","","","","","","","","","","","","","",""
"pit-trial","66","412114","0.0-4.0","battery-v0.2","","","800.6000000238419","&#9752;","elianto","#f73b6a7A","32","32","1","0","1651.0999999940395","1","1","","","","","","","615a0ad49f4aaece709552c5&order=&STUDY_ID=61f02a8661f82b834564f044","1","3","3","lose","go","0"
"pit-trial","67","415600","0.0-5.0","battery-v0.2","","","627.1000000238419","&#9733;","elianto","#3366ff99","-1","32","0","+10","1477.800000011921","1","1","","","","","","","615a0ad49f4aaece709552c5&order=&STUDY_ID=61f02a8661f82b834564f044","2","2","2","win","no-go","1"
"pit-trial","68","419033","0.0-6.0","battery-v0.2","","","576.5","&#9730;","elianto","#3366ff99","32","32","1","+10","1426.5","1","1","","","","","","","615a0ad49f4aaece709552c5&order=&STUDY_ID=61f02a8661f82b834564f044","3","1","1","win","go","0"
"pit-trial","69","422638","0.0-7.0","battery-v0.2","","","746","&#9728;","elianto","#f73b6a7A","-1","32","0","-10","1596.0999999940395","1","1","","","","","","","615a0ad49f4aaece709552c5&order=&STUDY_ID=61f02a8661f82b834564f044","4","0","4","lose","no-go","0"
"pit-trial","70","426415","0.0-8.0","battery-v0.2","","","918.7999999821186","&#9752;","elianto","#f73b6a7A","32","32","1","0","1769.4000000059605","1","1","","","","","","","615a0ad49f4aaece709552c5&order=&STUDY_ID=61f02a8661f82b834564f044","5","3","3","lose","go","0"
"pit-trial","71","431272","0.0-9.0","battery-v0.2","","","-1","&#9728;","elianto","#f73b6a7A","-1","-1","1","0","","0","1","","","","","","","615a0ad49f4aaece709552c5&order=&STUDY_ID=61f02a8661f82b834564f044","6","0","4","lose","no-go","0"
"pit-trial","72","434824","0.0-10.0","battery-v0.2","","","693.2999999821186","&#9730;","elianto","#3366ff99","32","32","1","+10","1543.3999999761581","1","1","","","","","","","615a0ad49f4aaece709552c5&order=&STUDY_ID=61f02a8661f82b834564f044","7","1","1","win","go","0"
"pit-trial","73","438492","0.0-11.0","battery-v0.2","","","806.4000000059605","&#9733;","elianto","#3366ff99","-1","32","0","0","1658.2000000178814","1","1","","","","","","","615a0ad49f4aaece709552c5&order=&STUDY_ID=61f02a8661f82b834564f044","8","2","2","win","no-go","0"
"pit-trial","74","443356","0.0-12.0","battery-v0.2","","","-1","&#9728;","elianto","#f73b6a7A","-1","-1","1","0","","0","1","","","","","","","615a0ad49f4aaece709552c5&order=&STUDY_ID=61f02a8661f82b834564f044","9","0","4","lose","no-go","0"
"pit-trial","75","446927","0.0-13.0","battery-v0.2","","","713.1999999880791","&#9730;","elianto","#3366ff99","32","32","1","0","1564.699999988079","1","1","","","","","","","615a0ad49f4aaece709552c5&order=&STUDY_ID=61f02a8661f82b834564f044","10","1","1","win","go","1"
"pit-trial","76","451788","0.0-14.0","battery-v0.2","","","-1","&#9733;","elianto","#3366ff99","-1","-1","1","+10","","0","1","","","","","","","615a0ad49f4aaece709552c5&order=&STUDY_ID=61f02a8661f82b834564f044","11","2","2","win","no-go","0"
"pit-trial","77","455632","0.0-15.0","battery-v0.2","","","987.9000000059605","&#9752;","elianto","#f73b6a7A","32","32","1","0","1838.1000000238419","1","1","","","","","","","615a0ad49f4aaece709552c5&order=&STUDY_ID=61f02a8661f82b834564f044","12","3","3","lose","go","0"
"pit-trial","78","460497","0.0-16.0","battery-v0.2","","","-1","&#9730;","elianto","#3366ff99","32","-1","0","0","","0","1","","","","","","","615a0ad49f4aaece709552c5&order=&STUDY_ID=61f02a8661f82b834564f044","13","1","1","win","go","0"
"pit-trial","79","465362","0.0-17.0","battery-v0.2","","","-1","&#9728;","elianto","#f73b6a7A","-1","-1","1","0","","0","1","","","","","","","615a0ad49f4aaece709552c5&order=&STUDY_ID=61f02a8661f82b834564f044","14","0","4","lose","no-go","0"
"pit-trial","80","469282","0.0-18.0","battery-v0.2","","","1059.0999999940395","&#9752;","elianto","#f73b6a7A","32","32","1","0","1911.4000000059605","1","1","","","","","","","615a0ad49f4aaece709552c5&order=&STUDY_ID=61f02a8661f82b834564f044","15","3","3","lose","go","0"
"pit-trial","81","474143","0.0-19.0","battery-v0.2","","","-1","&#9733;","elianto","#3366ff99","-1","-1","1","+10","","0","1","","","","","","","615a0ad49f4aaece709552c5&order=&STUDY_ID=61f02a8661f82b834564f044","16","2","2","win","no-go","0"
"pit-trial","82","477831","0.0-20.0","battery-v0.2","","","827.5999999940395","&#9730;","elianto","#3366ff99","32","32","1","+10","1679.9000000059605","1","1","","","","","","","615a0ad49f4aaece709552c5&order=&STUDY_ID=61f02a8661f82b834564f044","17","1","1","win","go","0"
"pit-trial","83","482115","0.0-21.0","battery-v0.2","","","1421.699999988079","&#9752;","elianto","#f73b6a7A","32","32","1","0","2273.4000000059605","1","1","","","","","","","615a0ad49f4aaece709552c5&order=&STUDY_ID=61f02a8661f82b834564f044","18","3","3","lose","go","0"
"pit-trial","84","486978","0.0-22.0","battery-v0.2","","","-1","&#9728;","elianto","#f73b6a7A","-1","-1","1","-10","","0","1","","","","","","","615a0ad49f4aaece709552c5&order=&STUDY_ID=61f02a8661f82b834564f044","19","0","4","lose","no-go","1"
"pit-trial","85","491842","0.0-23.0","battery-v0.2","","","-1","&#9733;","elianto","#3366ff99","-1","-1","1","+10","","0","1","","","","","","","615a0ad49f4aaece709552c5&order=&STUDY_ID=61f02a8661f82b834564f044","20","2","2","win","no-go","0"
"pit-instructions","86","498578","0.0-24.0","battery-v0.2","","[{""page_index"":0,""viewing_time"":2405.2000000178814},{""page_index"":1,""viewing_time"":4327.199999988079}]","6733.200000017881","","","","","","","","","","","","","","","","","","","","","","",""
"pit-trial","87","502545","0.0-25.0","battery-v0.2","","","1107.5","d","elianto","#3366ff99","32","32","1","+10","1958.5","1","2","","","","","","","615a0ad49f4aaece709552c5&order=&STUDY_ID=61f02a8661f82b834564f044","21","2","1","win","go","0"
"pit-trial","88","506413","0.0-26.0","battery-v0.2","","","1006.5999999940395","v","elianto","#3366ff99","-1","32","0","0","1858.9000000059605","1","2","","","","","","","615a0ad49f4aaece709552c5&order=&STUDY_ID=61f02a8661f82b834564f044","22","0","2","win","no-go","0"
"pit-trial","89","510169","0.0-27.0","battery-v0.2","","","898.8999999761581","k","elianto","#f73b6a7A","32","32","1","0","1750.0999999940395","1","2","","","","","","","615a0ad49f4aaece709552c5&order=&STUDY_ID=61f02a8661f82b834564f044","23","3","3","lose","go","0"
"pit-trial","90","514099","0.0-28.0","battery-v0.2","","","1070.5999999940395","j","elianto","#3366ff99","-1","32","0","0","1921.0999999940395","1","2","","","","","","","615a0ad49f4aaece709552c5&order=&STUDY_ID=61f02a8661f82b834564f044","24","1","2","win","no-go","0"
"pit-trial","91","518839","0.0-29.0","battery-v0.2","","","1879.5999999940395","k","elianto","#f73b6a7A","32","32","1","-10","2731","1","2","","","","","","","615a0ad49f4aaece709552c5&order=&STUDY_ID=61f02a8661f82b834564f044","25","3","3","lose","go","1"
"pit-trial","92","523695","0.0-30.0","battery-v0.2","","","-1","v","elianto","#3366ff99","-1","-1","1","+10","","0","2","","","","","","","615a0ad49f4aaece709552c5&order=&STUDY_ID=61f02a8661f82b834564f044","26","0","2","win","no-go","0"
"pit-trial","93","528559","0.0-31.0","battery-v0.2","","","-1","j","elianto","#3366ff99","-1","-1","1","+10","2902.0999999940395","1","2","","","","","","","615a0ad49f4aaece709552c5&order=&STUDY_ID=61f02a8661f82b834564f044","27","1","2","win","no-go","0"
"pit-trial","94","532345","0.0-32.0","battery-v0.2","","","924.9000000059605","d","elianto","#3366ff99","32","32","1","+10","1777.5999999940395","1","2","","","","","","","615a0ad49f4aaece709552c5&order=&STUDY_ID=61f02a8661f82b834564f044","28","2","1","win","go","0"
"pit-trial","95","536480","0.0-33.0","battery-v0.2","","","1275.2000000178814","k","elianto","#f73b6a7A","32","32","1","0","2127.5","1","2","","","","","","","615a0ad49f4aaece709552c5&order=&STUDY_ID=61f02a8661f82b834564f044","29","3","3","lose","go","0"
"pit-trial","96","540593","0.0-34.0","battery-v0.2","","","1252.800000011921","j","elianto","#3366ff99","-1","32","0","0","2104.5999999940395","1","2","","","","","","","615a0ad49f4aaece709552c5&order=&STUDY_ID=61f02a8661f82b834564f044","30","1","2","win","no-go","0"
"pit-trial","97","544143","0.0-35.0","battery-v0.2","","","688.5","d","elianto","#3366ff99","32","32","1","0","1541.7000000178814","1","2","","","","","","","615a0ad49f4aaece709552c5&order=&STUDY_ID=61f02a8661f82b834564f044","31","2","1","win","go","1"
"pit-trial","98","549001","0.0-36.0","battery-v0.2","","","-1","v","elianto","#3366ff99","-1","-1","1","0","","0","2","","","","","","","615a0ad49f4aaece709552c5&order=&STUDY_ID=61f02a8661f82b834564f044","32","0","2","win","no-go","1"
"pit-trial","99","552876","0.0-37.0","battery-v0.2","","","1015.5999999940395","v","elianto","#3366ff99","-1","32","0","0","1865.800000011921","1","2","","","","","","","615a0ad49f4aaece709552c5&order=&STUDY_ID=61f02a8661f82b834564f044","33","0","2","win","no-go","0"
"pit-trial","100","556611","0.0-38.0","battery-v0.2","","","877.5999999940395","d","elianto","#3366ff99","32","32","1","+10","1730.199999988079","1","2","","","","","","","615a0ad49f4aaece709552c5&order=&STUDY_ID=61f02a8661f82b834564f044","34","2","1","win","go","0"
"pit-trial","101","560340","0.0-39.0","battery-v0.2","","","869.7000000178814","j","elianto","#3366ff99","-1","32","0","0","1720","1","2","","","","","","","615a0ad49f4aaece709552c5&order=&STUDY_ID=61f02a8661f82b834564f044","35","1","2","win","no-go","0"
"pit-trial","102","564492","0.0-40.0","battery-v0.2","","","1294.5","k","elianto","#f73b6a7A","32","32","1","0","2146.800000011921","1","2","","","","","","","615a0ad49f4aaece709552c5&order=&STUDY_ID=61f02a8661f82b834564f044","36","3","3","lose","go","0"
"pit-trial","103","568277","0.0-41.0","battery-v0.2","","","925.5","j","elianto","#3366ff99","-1","32","0","0","1778.2000000178814","1","2","","","","","","","615a0ad49f4aaece709552c5&order=&STUDY_ID=61f02a8661f82b834564f044","37","1","2","win","no-go","0"
"pit-trial","104","573141","0.0-42.0","battery-v0.2","","","-1","v","elianto","#3366ff99","-1","-1","1","+10","","0","2","","","","","","","615a0ad49f4aaece709552c5&order=&STUDY_ID=61f02a8661f82b834564f044","38","0","2","win","no-go","0"
"pit-trial","105","576831","0.0-43.0","battery-v0.2","","","829.7999999821186","d","elianto","#3366ff99","32","32","1","+10","1682.699999988079","1","2","","","","","","","615a0ad49f4aaece709552c5&order=&STUDY_ID=61f02a8661f82b834564f044","39","2","1","win","go","0"
"pit-trial","106","580343","0.0-44.0","battery-v0.2","","","652.3000000119209","k","elianto","#f73b6a7A","32","32","1","0","1502.0999999940395","1","2","","","","","","","615a0ad49f4aaece709552c5&order=&STUDY_ID=61f02a8661f82b834564f044","40","3","3","lose","go","0"
"pit-trial","107","585201","0.0-45.0","battery-v0.2","","","-1","j","elianto","#3366ff99","-1","-1","1","+10","","0","2","","","","","","","615a0ad49f4aaece709552c5&order=&STUDY_ID=61f02a8661f82b834564f044","41","1","2","win","no-go","0"
"pit-trial","108","588891","0.0-46.0","battery-v0.2","","","829.3000000119209","d","elianto","#3366ff99","32","32","1","+10","1680.4000000059605","1","2","","","","","","","615a0ad49f4aaece709552c5&order=&STUDY_ID=61f02a8661f82b834564f044","42","2","1","win","go","0"
"pit-trial","109","593756","0.0-47.0","battery-v0.2","","","-1","v","elianto","#3366ff99","-1","-1","1","+10","","0","2","","","","","","","615a0ad49f4aaece709552c5&order=&STUDY_ID=61f02a8661f82b834564f044","43","0","2","win","no-go","0"
"pit-trial","110","597437","0.0-48.0","battery-v0.2","","","818.7999999821186","k","elianto","#f73b6a7A","32","32","1","0","1671.699999988079","1","2","","","","","","","615a0ad49f4aaece709552c5&order=&STUDY_ID=61f02a8661f82b834564f044","44","3","3","lose","go","0"
"pit-trial","111","600875","0.0-49.0","battery-v0.2","","","579.8000000119209","d","elianto","#3366ff99","32","32","1","+10","1431","1","2","","","","","","","615a0ad49f4aaece709552c5&order=&STUDY_ID=61f02a8661f82b834564f044","45","2","1","win","go","0"
"pit-trial","112","605739","0.0-50.0","battery-v0.2","","","-1","j","elianto","#3366ff99","-1","-1","1","+10","","0","2","","","","","","","615a0ad49f4aaece709552c5&order=&STUDY_ID=61f02a8661f82b834564f044","46","1","2","win","no-go","0"
"pit-trial","113","609471","0.0-51.0","battery-v0.2","","","870.3000000119209","k","elianto","#f73b6a7A","32","32","1","0","1722.6000000238419","1","2","","","","","","","615a0ad49f4aaece709552c5&order=&STUDY_ID=61f02a8661f82b834564f044","47","3","3","lose","go","0"
"pit-trial","114","614330","0.0-52.0","battery-v0.2","","","-1","v","elianto","#3366ff99","-1","-1","1","+10","","0","2","","","","","","","615a0ad49f4aaece709552c5&order=&STUDY_ID=61f02a8661f82b834564f044","48","0","2","win","no-go","0"
"pit-trial","115","618294","0.0-53.0","battery-v0.2","","","1104","k","elianto","#f73b6a7A","32","32","1","0","1954.0999999940395","1","2","","","","","","","615a0ad49f4aaece709552c5&order=&STUDY_ID=61f02a8661f82b834564f044","49","3","3","lose","go","0"
"pit-trial","116","623158","0.0-54.0","battery-v0.2","","","-1","v","elianto","#3366ff99","-1","-1","1","+10","","0","2","","","","","","","615a0ad49f4aaece709552c5&order=&STUDY_ID=61f02a8661f82b834564f044","50","0","2","win","no-go","0"
"pit-trial","117","628020","0.0-55.0","battery-v0.2","","","-1","j","elianto","#3366ff99","-1","-1","1","+10","","0","2","","","","","","","615a0ad49f4aaece709552c5&order=&STUDY_ID=61f02a8661f82b834564f044","51","1","2","win","no-go","0"
"pit-trial","118","631494","0.0-56.0","battery-v0.2","","","614","d","elianto","#3366ff99","32","32","1","0","1465.0999999940395","1","2","","","","","","","615a0ad49f4aaece709552c5&order=&STUDY_ID=61f02a8661f82b834564f044","52","2","1","win","go","1"
"pit-trial","119","636354","0.0-57.0","battery-v0.2","","","-1","v","elianto","#3366ff99","-1","-1","1","+10","","0","2","","","","","","","615a0ad49f4aaece709552c5&order=&STUDY_ID=61f02a8661f82b834564f044","53","0","2","win","no-go","0"
"pit-trial","120","639978","0.0-58.0","battery-v0.2","","","763.9000000059605","d","elianto","#3366ff99","32","32","1","+10","1616.0999999940395","1","2","","","","","","","615a0ad49f4aaece709552c5&order=&STUDY_ID=61f02a8661f82b834564f044","54","2","1","win","go","0"
"pit-trial","121","644190","0.0-59.0","battery-v0.2","","","1352","w","elianto","#f73b6a7A","32","32","1","0","2202.2999999821186","1","2","","","","","","","615a0ad49f4aaece709552c5&order=&STUDY_ID=61f02a8661f82b834564f044","55","5","3","lose","go","0"
"pit-trial","122","648074","0.0-60.0","battery-v0.2","","","1023.5999999940395","e","elianto","#f73b6a7A","-1","32","0","-10","1875.8999999761581","1","2","","","","","","","615a0ad49f4aaece709552c5&order=&STUDY_ID=61f02a8661f82b834564f044","56","4","4","lose","no-go","0"
"pit-trial","123","651698","0.0-61.0","battery-v0.2","","","762","d","elianto","#3366ff99","32","32","1","+10","1614.800000011921","1","2","","","","","","","615a0ad49f4aaece709552c5&order=&STUDY_ID=61f02a8661f82b834564f044","57","2","1","win","go","0"
"pit-trial","124","656563","0.0-62.0","battery-v0.2","","","-1","e","elianto","#f73b6a7A","-1","-1","1","0","","0","2","","","","","","","615a0ad49f4aaece709552c5&order=&STUDY_ID=61f02a8661f82b834564f044","58","4","4","lose","no-go","0"
"pit-trial","125","661423","0.0-63.0","battery-v0.2","","","-1","v","elianto","#3366ff99","-1","-1","1","+10","","0","2","","","","","","","615a0ad49f4aaece709552c5&order=&STUDY_ID=61f02a8661f82b834564f044","59","0","2","win","no-go","0"
"pit-trial","126","665056","0.0-64.0","battery-v0.2","","","770.2999999821186","w","elianto","#f73b6a7A","32","32","1","-10","1623.5","1","2","","","","","","","615a0ad49f4aaece709552c5&order=&STUDY_ID=61f02a8661f82b834564f044","60","5","3","lose","go","1"
"pit-trial","127","669921","0.0-65.0","battery-v0.2","","","-1","e","elianto","#f73b6a7A","-1","-1","1","0","","0","2","","","","","","","615a0ad49f4aaece709552c5&order=&STUDY_ID=61f02a8661f82b834564f044","61","4","4","lose","no-go","0"
"pit-trial","128","673437","0.0-66.0","battery-v0.2","","","654.5","d","elianto","#3366ff99","32","32","1","+10","1506.5999999940395","1","2","","","","","","","615a0ad49f4aaece709552c5&order=&STUDY_ID=61f02a8661f82b834564f044","62","2","1","win","go","0"
"pit-trial","129","678302","0.0-67.0","battery-v0.2","","","-1","w","elianto","#f73b6a7A","32","-1","0","-10","","0","2","","","","","","","615a0ad49f4aaece709552c5&order=&STUDY_ID=61f02a8661f82b834564f044","63","5","3","lose","go","0"
"pit-trial","130","682523","0.0-68.0","battery-v0.2","","","1360.7999999821186","s","elianto","#3366ff99","-1","32","0","0","117.09999999403954,2212.199999988079","2","2","","","","","","","615a0ad49f4aaece709552c5&order=&STUDY_ID=61f02a8661f82b834564f044","64","6","2","win","no-go","0"
"pit-trial","131","685993","0.0-69.0","battery-v0.2","","","609.5","s","elianto","#3366ff99","-1","32","0","0","1460.0999999940395","1","2","","","","","","","615a0ad49f4aaece709552c5&order=&STUDY_ID=61f02a8661f82b834564f044","65","6","2","win","no-go","0"
"pit-trial","132","690858","0.0-70.0","battery-v0.2","","","-1","e","elianto","#f73b6a7A","-1","-1","1","0","","0","2","","","","","","","615a0ad49f4aaece709552c5&order=&STUDY_ID=61f02a8661f82b834564f044","66","4","4","lose","no-go","0"
"pit-trial","133","694756","0.0-71.0","battery-v0.2","","","1036.7000000178814","w","elianto","#f73b6a7A","32","32","1","-10","1889.300000011921","1","2","","","","","","","615a0ad49f4aaece709552c5&order=&STUDY_ID=61f02a8661f82b834564f044","67","5","3","lose","go","1"
"pit-trial","134","698544","0.0-72.0","battery-v0.2","","","926.8999999761581","d","elianto","#3366ff99","32","32","1","0","1778.2999999821186","1","2","","","","","","","615a0ad49f4aaece709552c5&order=&STUDY_ID=61f02a8661f82b834564f044","68","2","1","win","go","1"
"pit-trial","135","702397","0.0-73.0","battery-v0.2","","","997.2000000178814","p","elianto","#f73b6a7A","-1","32","0","-10","1847.7000000178814","1","2","","","","","","","615a0ad49f4aaece709552c5&order=&STUDY_ID=61f02a8661f82b834564f044","69","7","4","lose","no-go","0"
"pit-trial","136","707258","0.0-74.0","battery-v0.2","","","-1","w","elianto","#f73b6a7A","32","-1","0","0","","0","2","","","","","","","615a0ad49f4aaece709552c5&order=&STUDY_ID=61f02a8661f82b834564f044","70","5","3","lose","go","1"
"pit-trial","137","711718","0.0-75.0","battery-v0.2","","","1598.300000011921","e","elianto","#f73b6a7A","-1","32","0","-10","2451.100000023842","1","2","","","","","","","615a0ad49f4aaece709552c5&order=&STUDY_ID=61f02a8661f82b834564f044","71","4","4","lose","no-go","0"
"pit-trial","138","715361","0.0-76.0","battery-v0.2","","","783.6999999880791","s","elianto","#3366ff99","-1","32","0","0","1634.199999988079","1","2","","","","","","","615a0ad49f4aaece709552c5&order=&STUDY_ID=61f02a8661f82b834564f044","72","6","2","win","no-go","0"
"pit-trial","139","720221","0.0-77.0","battery-v0.2","","","-1","e","elianto","#f73b6a7A","-1","-1","1","0","","0","2","","","","","","","615a0ad49f4aaece709552c5&order=&STUDY_ID=61f02a8661f82b834564f044","73","4","4","lose","no-go","0"
"pit-trial","140","724171","0.0-78.0","battery-v0.2","","","1093","p","elianto","#f73b6a7A","-1","32","0","0","1945.699999988079","1","2","","","","","","","615a0ad49f4aaece709552c5&order=&STUDY_ID=61f02a8661f82b834564f044","74","7","4","lose","no-go","1"
"pit-trial","141","729035","0.0-79.0","battery-v0.2","","","-1","w","elianto","#f73b6a7A","32","-1","0","-10","","0","2","","","","","","","615a0ad49f4aaece709552c5&order=&STUDY_ID=61f02a8661f82b834564f044","75","5","3","lose","go","0"
"pit-trial","142","733899","0.0-80.0","battery-v0.2","","","-1","s","elianto","#3366ff99","-1","-1","1","+10","","0","2","","","","","","","615a0ad49f4aaece709552c5&order=&STUDY_ID=61f02a8661f82b834564f044","76","6","2","win","no-go","0"
"pit-trial","143","738759","0.0-81.0","battery-v0.2","","","-1","w","elianto","#f73b6a7A","32","-1","0","-10","","0","2","","","","","","","615a0ad49f4aaece709552c5&order=&STUDY_ID=61f02a8661f82b834564f044","77","5","3","lose","go","0"
"pit-trial","144","743620","0.0-82.0","battery-v0.2","","","-1","p","elianto","#f73b6a7A","-1","-1","1","-10","","0","2","","","","","","","615a0ad49f4aaece709552c5&order=&STUDY_ID=61f02a8661f82b834564f044","78","7","4","lose","no-go","1"
"pit-trial","145","748481","0.0-83.0","battery-v0.2","","","-1","e","elianto","#f73b6a7A","-1","-1","1","0","","0","2","","","","","","","615a0ad49f4aaece709552c5&order=&STUDY_ID=61f02a8661f82b834564f044","79","4","4","lose","no-go","0"
"pit-trial","146","753345","0.0-84.0","battery-v0.2","","","-1","s","elianto","#3366ff99","-1","-1","1","+10","","0","2","","","","","","","615a0ad49f4aaece709552c5&order=&STUDY_ID=61f02a8661f82b834564f044","80","6","2","win","no-go","0"
"pit-trial","147","758205","0.0-85.0","battery-v0.2","","","-1","e","elianto","#f73b6a7A","-1","-1","1","0","","0","2","","","","","","","615a0ad49f4aaece709552c5&order=&STUDY_ID=61f02a8661f82b834564f044","81","4","4","lose","no-go","0"
"pit-trial","148","763069","0.0-86.0","battery-v0.2","","","-1","s","elianto","#3366ff99","-1","-1","1","+10","","0","2","","","","","","","615a0ad49f4aaece709552c5&order=&STUDY_ID=61f02a8661f82b834564f044","82","6","2","win","no-go","0"
"pit-trial","149","767044","0.0-87.0","battery-v0.2","","","1114.5999999940395","p","elianto","#f73b6a7A","-1","32","0","0","1965.800000011921","1","2","","","","","","","615a0ad49f4aaece709552c5&order=&STUDY_ID=61f02a8661f82b834564f044","83","7","4","lose","no-go","1"
"pit-trial","150","771903","0.0-88.0","battery-v0.2","","","-1","w","elianto","#f73b6a7A","32","-1","0","-10","","0","2","","","","","","","615a0ad49f4aaece709552c5&order=&STUDY_ID=61f02a8661f82b834564f044","84","5","3","lose","go","0"
"pit-trial","151","776764","0.0-89.0","battery-v0.2","","","-1","s","elianto","#3366ff99","-1","-1","1","+10","","0","2","","","","","","","615a0ad49f4aaece709552c5&order=&STUDY_ID=61f02a8661f82b834564f044","85","6","2","win","no-go","0"
"pit-trial","152","781622","0.0-90.0","battery-v0.2","","","-1","e","elianto","#f73b6a7A","-1","-1","1","0","","0","2","","","","","","","615a0ad49f4aaece709552c5&order=&STUDY_ID=61f02a8661f82b834564f044","86","4","4","lose","no-go","0"
"pit-trial","153","785401","0.0-91.0","battery-v0.2","","","916.5","w","elianto","#f73b6a7A","32","32","1","0","1769.199999988079","1","2","","","","","","","615a0ad49f4aaece709552c5&order=&STUDY_ID=61f02a8661f82b834564f044","87","5","3","lose","go","0"
"pit-trial","154","788778","0.0-92.0","battery-v0.2","","","520.5","p","elianto","#f73b6a7A","-1","32","0","0","1371","1","2","","","","","","","615a0ad49f4aaece709552c5&order=&STUDY_ID=61f02a8661f82b834564f044","88","7","4","lose","no-go","1"
"pit-trial","155","793638","0.0-93.0","battery-v0.2","","","-1","s","elianto","#3366ff99","-1","-1","1","+10","","0","2","","","","","","","615a0ad49f4aaece709552c5&order=&STUDY_ID=61f02a8661f82b834564f044","89","6","2","win","no-go","0"
"pit-trial","156","797517","0.0-94.0","battery-v0.2","","","1017.1000000238419","p","elianto","#f73b6a7A","-1","32","0","0","1869.800000011921","1","2","","","","","","","615a0ad49f4aaece709552c5&order=&STUDY_ID=61f02a8661f82b834564f044","90","7","4","lose","no-go","1"
"pit-trial","157","802380","0.0-95.0","battery-v0.2","","","-1","e","elianto","#f73b6a7A","-1","-1","1","-10","","0","2","","","","","","","615a0ad49f4aaece709552c5&order=&STUDY_ID=61f02a8661f82b834564f044","91","4","4","lose","no-go","1"
"pit-trial","158","806161","0.0-96.0","battery-v0.2","","","922.2000000178814","w","elianto","#f73b6a7A","32","32","1","0","1772.4000000059605","1","2","","","","","","","615a0ad49f4aaece709552c5&order=&STUDY_ID=61f02a8661f82b834564f044","92","5","3","lose","go","0"
"pit-trial","159","810091","0.0-97.0","battery-v0.2","","","1068.9000000059605","g","elianto","#f73b6a7A","-1","32","0","-10","1920.800000011921","1","2","","","","","","","615a0ad49f4aaece709552c5&order=&STUDY_ID=61f02a8661f82b834564f044","93","8","4","lose","no-go","0"
"pit-trial","160","814318","0.0-98.0","battery-v0.2","","","1371.0999999940395","w","elianto","#f73b6a7A","32","32","1","0","2223.2999999821186","1","2","","","","","","","615a0ad49f4aaece709552c5&order=&STUDY_ID=61f02a8661f82b834564f044","94","5","3","lose","go","0"
"pit-trial","161","819183","0.0-99.0","battery-v0.2","","","-1","s","elianto","#3366ff99","-1","-1","1","0","","0","2","","","","","","","615a0ad49f4aaece709552c5&order=&STUDY_ID=61f02a8661f82b834564f044","95","6","2","win","no-go","1"
"pit-trial","162","822834","0.0-100.0","battery-v0.2","","","794.9000000059605","p","elianto","#f73b6a7A","-1","32","0","-10","1645.5","1","2","","","","","","","615a0ad49f4aaece709552c5&order=&STUDY_ID=61f02a8661f82b834564f044","96","7","4","lose","no-go","0"
"pit-trial","163","826648","0.0-101.0","battery-v0.2","","","958","w","elianto","#f73b6a7A","32","32","1","-10","1808.4000000059605","1","2","","","","","","","615a0ad49f4aaece709552c5&order=&STUDY_ID=61f02a8661f82b834564f044","97","5","3","lose","go","1"
"pit-trial","164","831508","0.0-102.0","battery-v0.2","","","-1","g","elianto","#f73b6a7A","-1","-1","1","0","","0","2","","","","","","","615a0ad49f4aaece709552c5&order=&STUDY_ID=61f02a8661f82b834564f044","98","8","4","lose","no-go","0"
"pit-trial","165","835423","0.0-103.0","battery-v0.2","","","1057.5","p","elianto","#f73b6a7A","-1","32","0","-10","1909.699999988079","1","2","","","","","","","615a0ad49f4aaece709552c5&order=&STUDY_ID=61f02a8661f82b834564f044","99","7","4","lose","no-go","0"
"pit-trial","166","840280","0.0-104.0","battery-v0.2","","","-1","s","elianto","#3366ff99","-1","-1","1","+10","","0","2","","","","","","","615a0ad49f4aaece709552c5&order=&STUDY_ID=61f02a8661f82b834564f044","100","6","2","win","no-go","0"
"pit-trial","167","845144","0.0-105.0","battery-v0.2","","","-1","l","elianto","#f73b6a7A","32","-1","0","0","","0","2","","","","","","","615a0ad49f4aaece709552c5&order=&STUDY_ID=61f02a8661f82b834564f044","101","10","3","lose","go","1"
"pit-trial","168","850007","0.0-106.0","battery-v0.2","","","-1","g","elianto","#f73b6a7A","-1","-1","1","0","","0","2","","","","","","","615a0ad49f4aaece709552c5&order=&STUDY_ID=61f02a8661f82b834564f044","102","8","4","lose","no-go","0"
"pit-trial","169","854867","0.0-107.0","battery-v0.2","","","-1","s","elianto","#3366ff99","-1","-1","1","0","","0","2","","","","","","","615a0ad49f4aaece709552c5&order=&STUDY_ID=61f02a8661f82b834564f044","103","6","2","win","no-go","1"
"pit-trial","170","858630","0.0-108.0","battery-v0.2","","","908","a","elianto","#3366ff99","32","32","1","0","1758.4000000059605","1","2","","","","","","","615a0ad49f4aaece709552c5&order=&STUDY_ID=61f02a8661f82b834564f044","104","9","1","win","go","1"
"pit-trial","171","863495","0.0-109.0","battery-v0.2","","","-1","l","elianto","#f73b6a7A","32","-1","0","-10","","0","2","","","","","","","615a0ad49f4aaece709552c5&order=&STUDY_ID=61f02a8661f82b834564f044","105","10","3","lose","go","0"
"pit-trial","172","868355","0.0-110.0","battery-v0.2","","","-1","g","elianto","#f73b6a7A","-1","-1","1","0","","0","2","","","","","","","615a0ad49f4aaece709552c5&order=&STUDY_ID=61f02a8661f82b834564f044","106","8","4","lose","no-go","0"
"pit-trial","173","873217","0.0-111.0","battery-v0.2","","","-1","a","elianto","#3366ff99","32","-1","0","0","","0","2","","","","","","","615a0ad49f4aaece709552c5&order=&STUDY_ID=61f02a8661f82b834564f044","107","9","1","win","go","0"
"pit-trial","174","878081","0.0-112.0","battery-v0.2","","","-1","s","elianto","#3366ff99","-1","-1","1","+10","","0","2","","","","","","","615a0ad49f4aaece709552c5&order=&STUDY_ID=61f02a8661f82b834564f044","108","6","2","win","no-go","0"
"pit-trial","175","882393","0.0-113.0","battery-v0.2","","","1451.300000011921","l","elianto","#f73b6a7A","32","32","1","0","2302","1","2","","","","","","","615a0ad49f4aaece709552c5&order=&STUDY_ID=61f02a8661f82b834564f044","109","10","3","lose","go","0"
"pit-trial","176","886072","0.0-114.0","battery-v0.2","","","821.9000000059605","a","elianto","#3366ff99","32","32","1","0","1673.9000000059605","1","2","","","","","","","615a0ad49f4aaece709552c5&order=&STUDY_ID=61f02a8661f82b834564f044","110","9","1","win","go","1"
"pit-trial","177","890385","0.0-115.0","battery-v0.2","","","1450.699999988079","u","elianto","#3366ff99","32","32","1","+10","2303.0999999940395","1","2","","","","","","","615a0ad49f4aaece709552c5&order=&STUDY_ID=61f02a8661f82b834564f044","111","11","1","win","go","0"
"pit-trial","178","895247","0.0-116.0","battery-v0.2","","","-1","g","elianto","#f73b6a7A","-1","-1","1","0","","0","2","","","","","","","615a0ad49f4aaece709552c5&order=&STUDY_ID=61f02a8661f82b834564f044","112","8","4","lose","no-go","0"
"pit-trial","179","898972","0.0-117.0","battery-v0.2","","","869.2999999821186","u","elianto","#3366ff99","32","32","1","+10","1720.0999999940395","1","2","","","","","","","615a0ad49f4aaece709552c5&order=&STUDY_ID=61f02a8661f82b834564f044","113","11","1","win","go","0"
"pit-trial","180","902748","0.0-118.0","battery-v0.2","","","913.6000000238419","l","elianto","#f73b6a7A","32","32","1","0","1766.2000000178814","1","2","","","","","","","615a0ad49f4aaece709552c5&order=&STUDY_ID=61f02a8661f82b834564f044","114","10","3","lose","go","0"
"pit-trial","181","907611","0.0-119.0","battery-v0.2","","","-1","g","elianto","#f73b6a7A","-1","-1","1","-10","","0","2","","","","","","","615a0ad49f4aaece709552c5&order=&STUDY_ID=61f02a8661f82b834564f044","115","8","4","lose","no-go","1"
"pit-trial","182","912471","0.0-120.0","battery-v0.2","","","-1","a","elianto","#3366ff99","32","-1","0","0","","0","2","","","","","","","615a0ad49f4aaece709552c5&order=&STUDY_ID=61f02a8661f82b834564f044","116","9","1","win","go","0"
"pit-trial","183","916059","0.0-121.0","battery-v0.2","","","726.6999999880791","u","elianto","#3366ff99","32","32","1","0","1579.2999999821186","1","2","","","","","","","615a0ad49f4aaece709552c5&order=&STUDY_ID=61f02a8661f82b834564f044","117","11","1","win","go","1"
"pit-trial","184","920921","0.0-122.0","battery-v0.2","","","-1","a","elianto","#3366ff99","32","-1","0","0","","0","2","","","","","","","615a0ad49f4aaece709552c5&order=&STUDY_ID=61f02a8661f82b834564f044","118","9","1","win","go","0"
"pit-trial","185","925784","0.0-123.0","battery-v0.2","","","-1","g","elianto","#f73b6a7A","-1","-1","1","0","","0","2","","","","","","","615a0ad49f4aaece709552c5&order=&STUDY_ID=61f02a8661f82b834564f044","119","8","4","lose","no-go","0"
"pit-trial","186","929422","0.0-124.0","battery-v0.2","","","780","l","elianto","#f73b6a7A","32","32","1","0","1631.0999999940395","1","2","","","","","","","615a0ad49f4aaece709552c5&order=&STUDY_ID=61f02a8661f82b834564f044","120","10","3","lose","go","0"
"pit-trial","187","933220","0.0-125.0","battery-v0.2","","","936.8000000119209","l","elianto","#f73b6a7A","32","32","1","0","1789.5","1","2","","","","","","","615a0ad49f4aaece709552c5&order=&STUDY_ID=61f02a8661f82b834564f044","121","10","3","lose","go","0"
"pit-trial","188","937023","0.0-126.0","battery-v0.2","","","941.1999999880791","u","elianto","#3366ff99","32","32","1","+10","1793.199999988079","1","2","","","","","","","615a0ad49f4aaece709552c5&order=&STUDY_ID=61f02a8661f82b834564f044","122","11","1","win","go","0"
"pit-trial","189","940761","0.0-127.0","battery-v0.2","","","878.3000000119209","a","elianto","#3366ff99","32","32","1","+10","1730.5999999940395","1","2","","","","","","","615a0ad49f4aaece709552c5&order=&STUDY_ID=61f02a8661f82b834564f044","123","9","1","win","go","0"
"pit-trial","190","945621","0.0-128.0","battery-v0.2","","","-1","g","elianto","#f73b6a7A","-1","-1","1","0","","0","2","","","","","","","615a0ad49f4aaece709552c5&order=&STUDY_ID=61f02a8661f82b834564f044","124","8","4","lose","no-go","0"
"pit-trial","191","949157","0.0-129.0","battery-v0.2","","","673.3000000119209","l","elianto","#f73b6a7A","32","32","1","0","1526.2000000178814","1","2","","","","","","","615a0ad49f4aaece709552c5&order=&STUDY_ID=61f02a8661f82b834564f044","125","10","3","lose","go","0"
"pit-trial","192","952650","0.0-130.0","battery-v0.2","","","631.0999999940395","a","elianto","#3366ff99","32","32","1","+10","1483.300000011921","1","2","","","","","","","615a0ad49f4aaece709552c5&order=&STUDY_ID=61f02a8661f82b834564f044","126","9","1","win","go","0"
"pit-trial","193","957507","0.0-131.0","battery-v0.2","","","-1","g","elianto","#f73b6a7A","-1","-1","1","0","","0","2","","","","","","","615a0ad49f4aaece709552c5&order=&STUDY_ID=61f02a8661f82b834564f044","127","8","4","lose","no-go","0"
"pit-trial","194","961061","0.0-132.0","battery-v0.2","","","693.9000000059605","u","elianto","#3366ff99","32","32","1","0","1545.5","1","2","","","","","","","615a0ad49f4aaece709552c5&order=&STUDY_ID=61f02a8661f82b834564f044","128","11","1","win","go","1"
"pit-trial","195","965923","0.0-133.0","battery-v0.2","","","-1","g","elianto","#f73b6a7A","-1","-1","1","0","","0","2","","","","","","","615a0ad49f4aaece709552c5&order=&STUDY_ID=61f02a8661f82b834564f044","129","8","4","lose","no-go","0"
"pit-trial","196","969454","0.0-134.0","battery-v0.2","","","668.5999999940395","a","elianto","#3366ff99","32","32","1","+10","1520.800000011921","1","2","","","","","","","615a0ad49f4aaece709552c5&order=&STUDY_ID=61f02a8661f82b834564f044","130","9","1","win","go","0"
"pit-trial","197","972914","0.0-135.0","battery-v0.2","","","603.1999999880791","u","elianto","#3366ff99","32","32","1","+10","1455.300000011921","1","2","","","","","","","615a0ad49f4aaece709552c5&order=&STUDY_ID=61f02a8661f82b834564f044","131","11","1","win","go","0"
"pit-trial","198","976446","0.0-136.0","battery-v0.2","","","671.7000000178814","l","elianto","#f73b6a7A","32","32","1","0","1522.5","1","2","","","","","","","615a0ad49f4aaece709552c5&order=&STUDY_ID=61f02a8661f82b834564f044","132","10","3","lose","go","0"
"pit-trial","199","981311","0.0-137.0","battery-v0.2","","","-1","g","elianto","#f73b6a7A","-1","-1","1","-10","","0","2","","","","","","","615a0ad49f4aaece709552c5&order=&STUDY_ID=61f02a8661f82b834564f044","133","8","4","lose","no-go","1"
"pit-trial","200","985041","0.0-138.0","battery-v0.2","","","870.6000000238419","l","elianto","#f73b6a7A","32","32","1","0","1720.9000000059605","1","2","","","","","","","615a0ad49f4aaece709552c5&order=&STUDY_ID=61f02a8661f82b834564f044","134","10","3","lose","go","0"
"pit-trial","201","988642","0.0-139.0","battery-v0.2","","","740.5","u","elianto","#3366ff99","32","32","1","+10","1591.5999999940395","1","2","","","","","","","615a0ad49f4aaece709552c5&order=&STUDY_ID=61f02a8661f82b834564f044","135","11","1","win","go","0"
"pit-trial","202","992091","0.0-140.0","battery-v0.2","","","588.2999999821186","a","elianto","#3366ff99","32","32","1","+10","1439.199999988079","1","2","","","","","","","615a0ad49f4aaece709552c5&order=&STUDY_ID=61f02a8661f82b834564f044","136","9","1","win","go","0"
"pit-trial","203","995595","0.0-141.0","battery-v0.2","","","643.8000000119209","a","elianto","#3366ff99","32","32","1","+10","1494.300000011921","1","2","","","","","","","615a0ad49f4aaece709552c5&order=&STUDY_ID=61f02a8661f82b834564f044","137","9","1","win","go","0"
"pit-trial","204","1000461","0.0-142.0","battery-v0.2","","","-1","g","elianto","#f73b6a7A","-1","-1","1","0","","0","2","","","","","","","615a0ad49f4aaece709552c5&order=&STUDY_ID=61f02a8661f82b834564f044","138","8","4","lose","no-go","0"
"pit-trial","205","1003959","0.0-143.0","battery-v0.2","","","639.5","u","elianto","#3366ff99","32","32","1","0","1491","1","2","","","","","","","615a0ad49f4aaece709552c5&order=&STUDY_ID=61f02a8661f82b834564f044","139","11","1","win","go","1"
"pit-trial","206","1007495","0.0-144.0","battery-v0.2","","","675.3000000119209","l","elianto","#f73b6a7A","32","32","1","-10","1526","1","2","","","","","","","615a0ad49f4aaece709552c5&order=&STUDY_ID=61f02a8661f82b834564f044","140","10","3","lose","go","1"
"pit-instructions","207","1103502","0.0-145.0","battery-v0.2","","[{""page_index"":0,""viewing_time"":3994.699999988079},{""page_index"":1,""viewing_time"":92011.20000001788}]","96006.90000000596","","","","","","","","","","","","","","","","","","","","","","",""
"pit-trial","208","1107054","0.0-146.0","battery-v0.2","","","686.7999999821186","f","elianto","#f73b6a7A","-1","32","0","-10","1537.800000011921","1","3","","","","","","","615a0ad49f4aaece709552c5&order=&STUDY_ID=61f02a8661f82b834564f044","141","2","4","lose","no-go","0"
"pit-trial","209","1110569","0.0-147.0","battery-v0.2","","","654.6999999880791","q","elianto","#3366ff99","-1","32","0","+10","1506.800000011921","1","3","","","","","","","615a0ad49f4aaece709552c5&order=&STUDY_ID=61f02a8661f82b834564f044","142","0","2","win","no-go","1"
"pit-trial","210","1115434","0.0-148.0","battery-v0.2","","","-1","n","elianto","#f73b6a7A","32","-1","0","-10","","0","3","","","","","","","615a0ad49f4aaece709552c5&order=&STUDY_ID=61f02a8661f82b834564f044","143","1","3","lose","go","0"
"pit-trial","211","1119278","0.0-149.0","battery-v0.2","","","983.9000000059605","x","elianto","#3366ff99","32","32","1","+10","1835.300000011921","1","3","","","","","","","615a0ad49f4aaece709552c5&order=&STUDY_ID=61f02a8661f82b834564f044","144","3","1","win","go","0"
"pit-trial","212","1123106","0.0-150.0","battery-v0.2","","","968.6999999880791","q","elianto","#3366ff99","-1","32","0","0","1818.9000000059605","1","3","","","","","","","615a0ad49f4aaece709552c5&order=&STUDY_ID=61f02a8661f82b834564f044","145","0","2","win","no-go","0"
"pit-trial","213","1127969","0.0-151.0","battery-v0.2","","","-1","f","elianto","#f73b6a7A","-1","-1","1","0","","0","3","","","","","","","615a0ad49f4aaece709552c5&order=&STUDY_ID=61f02a8661f82b834564f044","146","2","4","lose","no-go","0"
"pit-trial","214","1131725","0.0-152.0","battery-v0.2","","","893.7999999821186","x","elianto","#3366ff99","32","32","1","+10","1746.2999999821186","1","3","","","","","","","615a0ad49f4aaece709552c5&order=&STUDY_ID=61f02a8661f82b834564f044","147","3","1","win","go","0"
"pit-trial","215","1135379","0.0-153.0","battery-v0.2","","","794","n","elianto","#f73b6a7A","32","32","1","0","1644.699999988079","1","3","","","","","","","615a0ad49f4aaece709552c5&order=&STUDY_ID=61f02a8661f82b834564f044","148","1","3","lose","go","0"
"pit-trial","216","1139025","0.0-154.0","battery-v0.2","","","791.0999999940395","x","elianto","#3366ff99","32","32","1","+10","1641.2000000178814","1","3","","","","","","","615a0ad49f4aaece709552c5&order=&STUDY_ID=61f02a8661f82b834564f044","149","3","1","win","go","0"
"pit-trial","217","1142558","0.0-155.0","battery-v0.2","","","678.3000000119209","q","elianto","#3366ff99","-1","32","0","0","1529.0999999940395","1","3","","","","","","","615a0ad49f4aaece709552c5&order=&STUDY_ID=61f02a8661f82b834564f044","150","0","2","win","no-go","0"
"pit-trial","218","1147421","0.0-156.0","battery-v0.2","","","-1","f","elianto","#f73b6a7A","-1","-1","1","0","","0","3","","","","","","","615a0ad49f4aaece709552c5&order=&STUDY_ID=61f02a8661f82b834564f044","151","2","4","lose","no-go","0"
"pit-trial","219","1151335","0.0-157.0","battery-v0.2","","","1052.1000000238419","n","elianto","#f73b6a7A","32","32","1","0","1904.7000000178814","1","3","","","","","","","615a0ad49f4aaece709552c5&order=&STUDY_ID=61f02a8661f82b834564f044","152","1","3","lose","go","0"
"pit-trial","220","1154945","0.0-158.0","battery-v0.2","","","747.5","q","elianto","#3366ff99","-1","32","0","0","1600.199999988079","1","3","","","","","","","615a0ad49f4aaece709552c5&order=&STUDY_ID=61f02a8661f82b834564f044","153","0","2","win","no-go","0"
"pit-trial","221","1159081","0.0-159.0","battery-v0.2","","","1280.9000000059605","x","elianto","#3366ff99","32","32","1","+10","2131","1","3","","","","","","","615a0ad49f4aaece709552c5&order=&STUDY_ID=61f02a8661f82b834564f044","154","3","1","win","go","0"
"pit-trial","222","1163946","0.0-160.0","battery-v0.2","","","-1","f","elianto","#f73b6a7A","-1","-1","1","0","","0","3","","","","","","","615a0ad49f4aaece709552c5&order=&STUDY_ID=61f02a8661f82b834564f044","155","2","4","lose","no-go","0"
"pit-trial","223","1167764","0.0-161.0","battery-v0.2","","","959","n","elianto","#f73b6a7A","32","32","1","-10","1809.300000011921","1","3","","","","","","","615a0ad49f4aaece709552c5&order=&STUDY_ID=61f02a8661f82b834564f044","156","1","3","lose","go","1"
"pit-trial","224","1172628","0.0-162.0","battery-v0.2","","","-1","f","elianto","#f73b6a7A","-1","-1","1","0","","0","3","","","","","","","615a0ad49f4aaece709552c5&order=&STUDY_ID=61f02a8661f82b834564f044","157","2","4","lose","no-go","0"
"pit-trial","225","1176286","0.0-163.0","battery-v0.2","","","797.5999999940395","q","elianto","#3366ff99","-1","32","0","0","1647.7999999821186","1","3","","","","","","","615a0ad49f4aaece709552c5&order=&STUDY_ID=61f02a8661f82b834564f044","158","0","2","win","no-go","0"
"pit-trial","226","1180071","0.0-164.0","battery-v0.2","","","922.4000000059605","n","elianto","#f73b6a7A","32","32","1","0","1774.699999988079","1","3","","","","","","","615a0ad49f4aaece709552c5&order=&STUDY_ID=61f02a8661f82b834564f044","159","1","3","lose","go","0"
"pit-trial","227","1183750","0.0-165.0","battery-v0.2","","","816.5999999940395","x","elianto","#3366ff99","32","32","1","+10","1669.2999999821186","1","3","","","","","","","615a0ad49f4aaece709552c5&order=&STUDY_ID=61f02a8661f82b834564f044","160","3","1","win","go","0"
"pit-trial","228","1187874","0.0-166.0","battery-v0.2","","","1262.300000011921","n","elianto","#f73b6a7A","32","32","1","0","2114.300000011921","1","3","","","","","","","615a0ad49f4aaece709552c5&order=&STUDY_ID=61f02a8661f82b834564f044","161","1","3","lose","go","0"
"pit-trial","229","1192739","0.0-167.0","battery-v0.2","","","-1","q","elianto","#3366ff99","-1","-1","1","+10","","0","3","","","","","","","615a0ad49f4aaece709552c5&order=&STUDY_ID=61f02a8661f82b834564f044","162","0","2","win","no-go","0"
"pit-trial","230","1197601","0.0-168.0","battery-v0.2","","","-1","f","elianto","#f73b6a7A","-1","-1","1","-10","","0","3","","","","","","","615a0ad49f4aaece709552c5&order=&STUDY_ID=61f02a8661f82b834564f044","163","2","4","lose","no-go","1"
"pit-trial","231","1202107","0.0-169.0","battery-v0.2","","","1643.9000000059605","x","elianto","#3366ff99","32","32","1","0","2495.2999999821186","1","3","","","","","","","615a0ad49f4aaece709552c5&order=&STUDY_ID=61f02a8661f82b834564f044","164","3","1","win","go","1"
"pit-trial","232","1206966","0.0-170.0","battery-v0.2","","","-1","f","elianto","#f73b6a7A","-1","-1","1","0","","0","3","","","","","","","615a0ad49f4aaece709552c5&order=&STUDY_ID=61f02a8661f82b834564f044","165","2","4","lose","no-go","0"
"pit-trial","233","1210783","0.0-171.0","battery-v0.2","","","956.9000000059605","q","elianto","#3366ff99","-1","32","0","0","1807.300000011921","1","3","","","","","","","615a0ad49f4aaece709552c5&order=&STUDY_ID=61f02a8661f82b834564f044","166","0","2","win","no-go","0"
"pit-trial","234","1214439","0.0-172.0","battery-v0.2","","","795.4000000059605","x","elianto","#3366ff99","32","32","1","+10","1647","1","3","","","","","","","615a0ad49f4aaece709552c5&order=&STUDY_ID=61f02a8661f82b834564f044","167","3","1","win","go","0"
"pit-trial","235","1218476","0.0-173.0","battery-v0.2","","","1180.0999999940395","n","elianto","#f73b6a7A","32","32","1","0","2031.2999999821186","1","3","","","","","","","615a0ad49f4aaece709552c5&order=&STUDY_ID=61f02a8661f82b834564f044","168","1","3","lose","go","0"
"pit-trial","236","1223336","0.0-174.0","battery-v0.2","","","-1","q","elianto","#3366ff99","-1","-1","1","+10","","0","3","","","","","","","615a0ad49f4aaece709552c5&order=&STUDY_ID=61f02a8661f82b834564f044","169","0","2","win","no-go","0"
"pit-trial","237","1228197","0.0-175.0","battery-v0.2","","","-1","f","elianto","#f73b6a7A","-1","-1","1","0","","0","3","","","","","","","615a0ad49f4aaece709552c5&order=&STUDY_ID=61f02a8661f82b834564f044","170","2","4","lose","no-go","0"
"pit-trial","238","1231877","0.0-176.0","battery-v0.2","","","819.9000000059605","n","elianto","#f73b6a7A","32","32","1","-10","1670.5999999940395","1","3","","","","","","","615a0ad49f4aaece709552c5&order=&STUDY_ID=61f02a8661f82b834564f044","171","1","3","lose","go","1"
"pit-trial","239","1236273","0.0-177.0","battery-v0.2","","","1538.7000000178814","x","elianto","#3366ff99","32","32","1","0","2388.9000000059605","1","3","","","","","","","615a0ad49f4aaece709552c5&order=&STUDY_ID=61f02a8661f82b834564f044","172","3","1","win","go","1"
"pit-trial","240","1240553","0.0-178.0","battery-v0.2","","","1419.699999988079","t","elianto","#f73b6a7A","32","32","1","0","2270.300000011921","1","3","","","","","","","615a0ad49f4aaece709552c5&order=&STUDY_ID=61f02a8661f82b834564f044","173","4","3","lose","go","0"
"pit-trial","241","1244524","0.0-179.0","battery-v0.2","","","1109.800000011921","b","elianto","#f73b6a7A","-1","32","0","-10","1962","1","3","","","","","","","615a0ad49f4aaece709552c5&order=&STUDY_ID=61f02a8661f82b834564f044","174","5","4","lose","no-go","0"
"pit-trial","242","1249389","0.0-180.0","battery-v0.2","","","-1","f","elianto","#f73b6a7A","-1","-1","1","0","","0","3","","","","","","","615a0ad49f4aaece709552c5&order=&STUDY_ID=61f02a8661f82b834564f044","175","2","4","lose","no-go","0"
"pit-trial","243","1254252","0.0-181.0","battery-v0.2","","","-1","n","elianto","#f73b6a7A","32","-1","0","0","","0","3","","","","","","","615a0ad49f4aaece709552c5&order=&STUDY_ID=61f02a8661f82b834564f044","176","1","3","lose","go","1"
"pit-trial","244","1257934","0.0-182.0","battery-v0.2","","","820.4000000059605","t","elianto","#f73b6a7A","32","32","1","0","1671.5999999940395","1","3","","","","","","","615a0ad49f4aaece709552c5&order=&STUDY_ID=61f02a8661f82b834564f044","177","4","3","lose","go","0"
"pit-trial","245","1262792","0.0-183.0","battery-v0.2","","","-1","f","elianto","#f73b6a7A","-1","-1","1","0","","0","3","","","","","","","615a0ad49f4aaece709552c5&order=&STUDY_ID=61f02a8661f82b834564f044","178","2","4","lose","no-go","0"
"pit-trial","246","1267652","0.0-184.0","battery-v0.2","","","-1","b","elianto","#f73b6a7A","-1","-1","1","0","","0","3","","","","","","","615a0ad49f4aaece709552c5&order=&STUDY_ID=61f02a8661f82b834564f044","179","5","4","lose","no-go","0"
"pit-trial","247","1272517","0.0-185.0","battery-v0.2","","","-1","n","elianto","#f73b6a7A","32","-1","0","0","","0","3","","","","","","","615a0ad49f4aaece709552c5&order=&STUDY_ID=61f02a8661f82b834564f044","180","1","3","lose","go","1"
"pit-trial","248","1276557","0.0-186.0","battery-v0.2","","","1181.4000000059605","c","elianto","#3366ff99","-1","32","0","+10","2033.2000000178814","1","3","","","","","","","615a0ad49f4aaece709552c5&order=&STUDY_ID=61f02a8661f82b834564f044","181","6","2","win","no-go","1"
"pit-trial","249","1281422","0.0-187.0","battery-v0.2","","","-1","f","elianto","#f73b6a7A","-1","-1","1","0","","0","3","","","","","","","615a0ad49f4aaece709552c5&order=&STUDY_ID=61f02a8661f82b834564f044","182","2","4","lose","no-go","0"
"pit-trial","250","1285044","0.0-188.0","battery-v0.2","","","760.5","t","elianto","#f73b6a7A","32","32","1","0","1611.6000000238419","1","3","","","","","","","615a0ad49f4aaece709552c5&order=&STUDY_ID=61f02a8661f82b834564f044","183","4","3","lose","go","0"
"pit-trial","251","1289904","0.0-189.0","battery-v0.2","","","-1","b","elianto","#f73b6a7A","-1","-1","1","0","","0","3","","","","","","","615a0ad49f4aaece709552c5&order=&STUDY_ID=61f02a8661f82b834564f044","184","5","4","lose","no-go","0"
"pit-trial","252","1294766","0.0-190.0","battery-v0.2","","","-1","b","elianto","#f73b6a7A","-1","-1","1","-10","","0","3","","","","","","","615a0ad49f4aaece709552c5&order=&STUDY_ID=61f02a8661f82b834564f044","185","5","4","lose","no-go","1"
"pit-trial","253","1298296","0.0-191.0","battery-v0.2","","","669","c","elianto","#3366ff99","-1","32","0","0","1520.2999999821186","1","3","","","","","","","615a0ad49f4aaece709552c5&order=&STUDY_ID=61f02a8661f82b834564f044","186","6","2","win","no-go","0"
"pit-trial","254","1301919","0.0-192.0","battery-v0.2","","","762.5999999940395","t","elianto","#f73b6a7A","32","32","1","-10","1613.4000000059605","1","3","","","","","","","615a0ad49f4aaece709552c5&order=&STUDY_ID=61f02a8661f82b834564f044","187","4","3","lose","go","1"
"pit-trial","255","1306781","0.0-193.0","battery-v0.2","","","-1","f","elianto","#f73b6a7A","-1","-1","1","0","","0","3","","","","","","","615a0ad49f4aaece709552c5&order=&STUDY_ID=61f02a8661f82b834564f044","188","2","4","lose","no-go","0"
"pit-trial","256","1311641","0.0-194.0","battery-v0.2","","","-1","b","elianto","#f73b6a7A","-1","-1","1","0","","0","3","","","","","","","615a0ad49f4aaece709552c5&order=&STUDY_ID=61f02a8661f82b834564f044","189","5","4","lose","no-go","0"
"pit-trial","257","1315593","0.0-195.0","battery-v0.2","","","1091.300000011921","z","elianto","#3366ff99","32","32","1","+10","1942","1","3","","","","","","","615a0ad49f4aaece709552c5&order=&STUDY_ID=61f02a8661f82b834564f044","190","7","1","win","go","0"
"pit-trial","258","1319136","0.0-196.0","battery-v0.2","","","683.1999999880791","c","elianto","#3366ff99","-1","32","0","0","1533.4000000059605","1","3","","","","","","","615a0ad49f4aaece709552c5&order=&STUDY_ID=61f02a8661f82b834564f044","191","6","2","win","no-go","0"
"pit-trial","259","1322924","0.0-197.0","battery-v0.2","","","925.7000000178814","t","elianto","#f73b6a7A","32","32","1","0","1777.300000011921","1","3","","","","","","","615a0ad49f4aaece709552c5&order=&STUDY_ID=61f02a8661f82b834564f044","192","4","3","lose","go","0"
"pit-trial","260","1327789","0.0-198.0","battery-v0.2","","","-1","b","elianto","#f73b6a7A","-1","-1","1","0","","0","3","","","","","","","615a0ad49f4aaece709552c5&order=&STUDY_ID=61f02a8661f82b834564f044","193","5","4","lose","no-go","0"
"pit-trial","261","1332643","0.0-199.0","battery-v0.2","","","-1","c","elianto","#3366ff99","-1","-1","1","+10","","0","3","","","","","","","615a0ad49f4aaece709552c5&order=&STUDY_ID=61f02a8661f82b834564f044","194","6","2","win","no-go","0"
"pit-trial","262","1336402","0.0-200.0","battery-v0.2","","","904.2000000178814","t","elianto","#f73b6a7A","32","32","1","0","1754.5","1","3","","","","","","","615a0ad49f4aaece709552c5&order=&STUDY_ID=61f02a8661f82b834564f044","195","4","3","lose","go","0"
"pit-trial","263","1340022","0.0-201.0","battery-v0.2","","","758.2000000178814","z","elianto","#3366ff99","32","32","1","+10","1610.800000011921","1","3","","","","","","","615a0ad49f4aaece709552c5&order=&STUDY_ID=61f02a8661f82b834564f044","196","7","1","win","go","0"
"pit-trial","264","1344884","0.0-202.0","battery-v0.2","","","-1","c","elianto","#3366ff99","-1","-1","1","+10","","0","3","","","","","","","615a0ad49f4aaece709552c5&order=&STUDY_ID=61f02a8661f82b834564f044","197","6","2","win","no-go","0"
"pit-trial","265","1349748","0.0-203.0","battery-v0.2","","","-1","b","elianto","#f73b6a7A","-1","-1","1","0","","0","3","","","","","","","615a0ad49f4aaece709552c5&order=&STUDY_ID=61f02a8661f82b834564f044","198","5","4","lose","no-go","0"
"pit-trial","266","1353576","0.0-204.0","battery-v0.2","","","967.5999999940395","t","elianto","#f73b6a7A","32","32","1","0","1818.5","1","3","","","","","","","615a0ad49f4aaece709552c5&order=&STUDY_ID=61f02a8661f82b834564f044","199","4","3","lose","go","0"
"pit-trial","267","1357164","0.0-205.0","battery-v0.2","","","730","z","elianto","#3366ff99","32","32","1","+10","1580.199999988079","1","3","","","","","","","615a0ad49f4aaece709552c5&order=&STUDY_ID=61f02a8661f82b834564f044","200","7","1","win","go","0"
"pit-trial","268","1362028","0.0-206.0","battery-v0.2","","","-1","c","elianto","#3366ff99","-1","-1","1","+10","","0","3","","","","","","","615a0ad49f4aaece709552c5&order=&STUDY_ID=61f02a8661f82b834564f044","201","6","2","win","no-go","0"
"pit-trial","269","1365738","0.0-207.0","battery-v0.2","","","850.1999999880791","t","elianto","#f73b6a7A","32","32","1","0","1700.7999999821186","1","3","","","","","","","615a0ad49f4aaece709552c5&order=&STUDY_ID=61f02a8661f82b834564f044","202","4","3","lose","go","0"
"pit-trial","270","1370601","0.0-208.0","battery-v0.2","","","-1","z","elianto","#3366ff99","32","-1","0","0","","0","3","","","","","","","615a0ad49f4aaece709552c5&order=&STUDY_ID=61f02a8661f82b834564f044","203","7","1","win","go","0"
"pit-trial","271","1375466","0.0-209.0","battery-v0.2","","","-1","b","elianto","#f73b6a7A","-1","-1","1","0","","0","3","","","","","","","615a0ad49f4aaece709552c5&order=&STUDY_ID=61f02a8661f82b834564f044","204","5","4","lose","no-go","0"
"pit-trial","272","1379193","0.0-210.0","battery-v0.2","","","865.7000000178814","t","elianto","#f73b6a7A","32","32","1","0","1717.5999999940395","1","3","","","","","","","615a0ad49f4aaece709552c5&order=&STUDY_ID=61f02a8661f82b834564f044","205","4","3","lose","go","0"
"pit-trial","273","1384053","0.0-211.0","battery-v0.2","","","-1","c","elianto","#3366ff99","-1","-1","1","0","","0","3","","","","","","","615a0ad49f4aaece709552c5&order=&STUDY_ID=61f02a8661f82b834564f044","206","6","2","win","no-go","1"
"pit-trial","274","1388917","0.0-212.0","battery-v0.2","","","-1","b","elianto","#f73b6a7A","-1","-1","1","-10","","0","3","","","","","","","615a0ad49f4aaece709552c5&order=&STUDY_ID=61f02a8661f82b834564f044","207","5","4","lose","no-go","1"
"pit-trial","275","1392451","0.0-213.0","battery-v0.2","","","676.3000000119209","z","elianto","#3366ff99","32","32","1","+10","1528.4000000059605","1","3","","","","","","","615a0ad49f4aaece709552c5&order=&STUDY_ID=61f02a8661f82b834564f044","208","7","1","win","go","0"
"pit-trial","276","1396189","0.0-214.0","battery-v0.2","","","876.3000000119209","z","elianto","#3366ff99","32","32","1","+10","1728.5","1","3","","","","","","","615a0ad49f4aaece709552c5&order=&STUDY_ID=61f02a8661f82b834564f044","209","7","1","win","go","0"
"pit-trial","277","1401051","0.0-215.0","battery-v0.2","","","-1","c","elianto","#3366ff99","-1","-1","1","+10","","0","3","","","","","","","615a0ad49f4aaece709552c5&order=&STUDY_ID=61f02a8661f82b834564f044","210","6","2","win","no-go","0"
"pit-trial","278","1404708","0.0-216.0","battery-v0.2","","","796.9000000059605","t","elianto","#f73b6a7A","32","32","1","0","1648.8999999761581","1","3","","","","","","","615a0ad49f4aaece709552c5&order=&STUDY_ID=61f02a8661f82b834564f044","211","4","3","lose","go","0"
"pit-trial","279","1409183","0.0-217.0","battery-v0.2","","","1621.300000011921","b","elianto","#f73b6a7A","-1","32","0","-10","2471.300000011921","1","3","","","","","","","615a0ad49f4aaece709552c5&order=&STUDY_ID=61f02a8661f82b834564f044","212","5","4","lose","no-go","0"
"pit-trial","280","1413450","0.0-218.0","battery-v0.2","","","1409.1000000238419","h","elianto","#3366ff99","32","32","1","+10","2261","1","3","","","","","","","615a0ad49f4aaece709552c5&order=&STUDY_ID=61f02a8661f82b834564f044","213","8","1","win","go","0"
"pit-trial","281","1418311","0.0-219.0","battery-v0.2","","","-1","c","elianto","#3366ff99","-1","-1","1","+10","","0","3","","","","","","","615a0ad49f4aaece709552c5&order=&STUDY_ID=61f02a8661f82b834564f044","214","6","2","win","no-go","0"
"pit-trial","282","1422200","0.0-220.0","battery-v0.2","","","1030.5","t","elianto","#f73b6a7A","32","32","1","0","1880.9000000059605","1","3","","","","","","","615a0ad49f4aaece709552c5&order=&STUDY_ID=61f02a8661f82b834564f044","215","4","3","lose","go","0"
"pit-trial","283","1425937","0.0-221.0","battery-v0.2","","","874","z","elianto","#3366ff99","32","32","1","+10","1726.4000000059605","1","3","","","","","","","615a0ad49f4aaece709552c5&order=&STUDY_ID=61f02a8661f82b834564f044","216","7","1","win","go","0"
"pit-trial","284","1429418","0.0-222.0","battery-v0.2","","","623.5999999940395","h","elianto","#3366ff99","32","32","1","+10","1475.9000000059605","1","3","","","","","","","615a0ad49f4aaece709552c5&order=&STUDY_ID=61f02a8661f82b834564f044","217","8","1","win","go","0"
"pit-trial","285","1433102","0.0-223.0","battery-v0.2","","","826.8999999761581","t","elianto","#f73b6a7A","32","32","1","0","1678.800000011921","1","3","","","","","","","615a0ad49f4aaece709552c5&order=&STUDY_ID=61f02a8661f82b834564f044","218","4","3","lose","go","0"
"pit-trial","286","1436606","0.0-224.0","battery-v0.2","","","641.4000000059605","z","elianto","#3366ff99","32","32","1","+10","1493.9000000059605","1","3","","","","","","","615a0ad49f4aaece709552c5&order=&STUDY_ID=61f02a8661f82b834564f044","219","7","1","win","go","0"
"pit-trial","287","1441468","0.0-225.0","battery-v0.2","","","-1","c","elianto","#3366ff99","-1","-1","1","+10","","0","3","","","","","","","615a0ad49f4aaece709552c5&order=&STUDY_ID=61f02a8661f82b834564f044","220","6","2","win","no-go","0"
"pit-trial","288","1445069","0.0-226.0","battery-v0.2","","","743.4000000059605","z","elianto","#3366ff99","32","32","1","+10","1595.7000000178814","1","3","","","","","","","615a0ad49f4aaece709552c5&order=&STUDY_ID=61f02a8661f82b834564f044","221","7","1","win","go","0"
"pit-trial","289","1449932","0.0-227.0","battery-v0.2","","","-1","c","elianto","#3366ff99","-1","-1","1","+10","","0","3","","","","","","","615a0ad49f4aaece709552c5&order=&STUDY_ID=61f02a8661f82b834564f044","222","6","2","win","no-go","0"
"pit-trial","290","1453521","0.0-228.0","battery-v0.2","","","733.6999999880791","h","elianto","#3366ff99","32","32","1","+10","1585","1","3","","","","","","","615a0ad49f4aaece709552c5&order=&STUDY_ID=61f02a8661f82b834564f044","223","8","1","win","go","0"
"pit-trial","291","1457442","0.0-229.0","battery-v0.2","","","1063.0999999940395","y","elianto","#3366ff99","-1","32","0","0","1914.2000000178814","1","3","","","","","","","615a0ad49f4aaece709552c5&order=&STUDY_ID=61f02a8661f82b834564f044","224","9","2","win","no-go","0"
"pit-trial","292","1462304","0.0-230.0","battery-v0.2","","","-1","c","elianto","#3366ff99","-1","-1","1","+10","","0","3","","","","","","","615a0ad49f4aaece709552c5&order=&STUDY_ID=61f02a8661f82b834564f044","225","6","2","win","no-go","0"
"pit-trial","293","1466112","0.0-231.0","battery-v0.2","","","946.4000000059605","h","elianto","#3366ff99","32","32","1","+10","1798.4000000059605","1","3","","","","","","","615a0ad49f4aaece709552c5&order=&STUDY_ID=61f02a8661f82b834564f044","226","8","1","win","go","0"
"pit-trial","294","1469748","0.0-232.0","battery-v0.2","","","776.4000000059605","z","elianto","#3366ff99","32","32","1","+10","1627","1","3","","","","","","","615a0ad49f4aaece709552c5&order=&STUDY_ID=61f02a8661f82b834564f044","227","7","1","win","go","0"
"pit-trial","295","1474613","0.0-233.0","battery-v0.2","","","-1","y","elianto","#3366ff99","-1","-1","1","+10","","0","3","","","","","","","615a0ad49f4aaece709552c5&order=&STUDY_ID=61f02a8661f82b834564f044","228","9","2","win","no-go","0"
"pit-trial","296","1479098","0.0-234.0","battery-v0.2","","","1627.699999988079","r","elianto","#f73b6a7A","32","32","1","0","2478.699999988079","1","3","","","","","","","615a0ad49f4aaece709552c5&order=&STUDY_ID=61f02a8661f82b834564f044","229","10","3","lose","go","0"
"pit-trial","297","1483959","0.0-235.0","battery-v0.2","","","-1","m","elianto","#f73b6a7A","-1","-1","1","0","","0","3","","","","","","","615a0ad49f4aaece709552c5&order=&STUDY_ID=61f02a8661f82b834564f044","230","11","4","lose","no-go","0"
"pit-trial","298","1488822","0.0-236.0","battery-v0.2","","","-1","y","elianto","#3366ff99","-1","-1","1","+10","","0","3","","","","","","","615a0ad49f4aaece709552c5&order=&STUDY_ID=61f02a8661f82b834564f044","231","9","2","win","no-go","0"
"pit-trial","299","1492383","0.0-237.0","battery-v0.2","","","701.5","h","elianto","#3366ff99","32","32","1","+10","1551.7000000178814","1","3","","","","","","","615a0ad49f4aaece709552c5&order=&STUDY_ID=61f02a8661f82b834564f044","232","8","1","win","go","0"
"pit-trial","300","1497248","0.0-238.0","battery-v0.2","","","-1","m","elianto","#f73b6a7A","-1","-1","1","0","","0","3","","","","","","","615a0ad49f4aaece709552c5&order=&STUDY_ID=61f02a8661f82b834564f044","233","11","4","lose","no-go","0"
"pit-trial","301","1501168","0.0-239.0","battery-v0.2","","","1058.800000011921","r","elianto","#f73b6a7A","32","32","1","0","1910.800000011921","1","3","","","","","","","615a0ad49f4aaece709552c5&order=&STUDY_ID=61f02a8661f82b834564f044","234","10","3","lose","go","0"
"pit-trial","302","1504847","0.0-240.0","battery-v0.2","","","821.5","h","elianto","#3366ff99","32","32","1","+10","1673.9000000059605","1","3","","","","","","","615a0ad49f4aaece709552c5&order=&STUDY_ID=61f02a8661f82b834564f044","235","8","1","win","go","0"
"pit-trial","303","1509712","0.0-241.0","battery-v0.2","","","-1","y","elianto","#3366ff99","-1","-1","1","+10","","0","3","","","","","","","615a0ad49f4aaece709552c5&order=&STUDY_ID=61f02a8661f82b834564f044","236","9","2","win","no-go","0"
"pit-trial","304","1514575","0.0-242.0","battery-v0.2","","","-1","m","elianto","#f73b6a7A","-1","-1","1","-10","","0","3","","","","","","","615a0ad49f4aaece709552c5&order=&STUDY_ID=61f02a8661f82b834564f044","237","11","4","lose","no-go","1"
"pit-trial","305","1518379","0.0-243.0","battery-v0.2","","","943.5999999940395","h","elianto","#3366ff99","32","32","1","+10","1794.0999999940395","1","3","","","","","","","615a0ad49f4aaece709552c5&order=&STUDY_ID=61f02a8661f82b834564f044","238","8","1","win","go","0"
"pit-trial","306","1523236","0.0-244.0","battery-v0.2","","","-1","y","elianto","#3366ff99","-1","-1","1","+10","","0","3","","","","","","","615a0ad49f4aaece709552c5&order=&STUDY_ID=61f02a8661f82b834564f044","239","9","2","win","no-go","0"
"pit-trial","307","1527046","0.0-245.0","battery-v0.2","","","947.8999999761581","r","elianto","#f73b6a7A","32","32","1","0","1799.699999988079","1","3","","","","","","","615a0ad49f4aaece709552c5&order=&STUDY_ID=61f02a8661f82b834564f044","240","10","3","lose","go","0"
"pit-trial","308","1531911","0.0-246.0","battery-v0.2","","","-1","y","elianto","#3366ff99","-1","-1","1","+10","","0","3","","","","","","","615a0ad49f4aaece709552c5&order=&STUDY_ID=61f02a8661f82b834564f044","241","9","2","win","no-go","0"
"pit-trial","309","1535532","0.0-247.0","battery-v0.2","","","760.2000000178814","h","elianto","#3366ff99","32","32","1","+10","1610.9000000059605","1","3","","","","","","","615a0ad49f4aaece709552c5&order=&STUDY_ID=61f02a8661f82b834564f044","242","8","1","win","go","0"
"pit-trial","310","1540396","0.0-248.0","battery-v0.2","","","-1","m","elianto","#f73b6a7A","-1","-1","1","0","","0","3","","","","","","","615a0ad49f4aaece709552c5&order=&STUDY_ID=61f02a8661f82b834564f044","243","11","4","lose","no-go","0"
"pit-trial","311","1544117","0.0-249.0","battery-v0.2","","","866","r","elianto","#f73b6a7A","32","32","1","0","1716","1","3","","","","","","","615a0ad49f4aaece709552c5&order=&STUDY_ID=61f02a8661f82b834564f044","244","10","3","lose","go","0"
"pit-trial","312","1548278","0.0-250.0","battery-v0.2","","","1300.5999999940395","r","elianto","#f73b6a7A","32","32","1","0","2152.5999999940395","1","3","","","","","","","615a0ad49f4aaece709552c5&order=&STUDY_ID=61f02a8661f82b834564f044","245","10","3","lose","go","0"
"pit-trial","313","1551922","0.0-251.0","battery-v0.2","","","787.5999999940395","h","elianto","#3366ff99","32","32","1","+10","1638.5999999940395","1","3","","","","","","","615a0ad49f4aaece709552c5&order=&STUDY_ID=61f02a8661f82b834564f044","246","8","1","win","go","0"
"pit-trial","314","1556782","0.0-252.0","battery-v0.2","","","-1","y","elianto","#3366ff99","-1","-1","1","0","","0","3","","","","","","","615a0ad49f4aaece709552c5&order=&STUDY_ID=61f02a8661f82b834564f044","247","9","2","win","no-go","1"
"pit-trial","315","1561645","0.0-253.0","battery-v0.2","","","-1","m","elianto","#f73b6a7A","-1","-1","1","0","","0","3","","","","","","","615a0ad49f4aaece709552c5&order=&STUDY_ID=61f02a8661f82b834564f044","248","11","4","lose","no-go","0"
"pit-trial","316","1565300","0.0-254.0","battery-v0.2","","","795.3000000119209","h","elianto","#3366ff99","32","32","1","+10","1646.300000011921","1","3","","","","","","","615a0ad49f4aaece709552c5&order=&STUDY_ID=61f02a8661f82b834564f044","249","8","1","win","go","0"
"pit-trial","317","1570161","0.0-255.0","battery-v0.2","","","-1","m","elianto","#f73b6a7A","-1","-1","1","-10","","0","3","","","","","","","615a0ad49f4aaece709552c5&order=&STUDY_ID=61f02a8661f82b834564f044","250","11","4","lose","no-go","1"
"pit-trial","318","1573889","0.0-256.0","battery-v0.2","","","868.8000000119209","r","elianto","#f73b6a7A","32","32","1","-10","1719.2999999821186","1","3","","","","","","","615a0ad49f4aaece709552c5&order=&STUDY_ID=61f02a8661f82b834564f044","251","10","3","lose","go","1"
"pit-trial","319","1577858","0.0-257.0","battery-v0.2","","","1108.699999988079","y","elianto","#3366ff99","-1","32","0","0","1959.3999999761581","1","3","","","","","","","615a0ad49f4aaece709552c5&order=&STUDY_ID=61f02a8661f82b834564f044","252","9","2","win","no-go","0"
"pit-trial","320","1582719","0.0-258.0","battery-v0.2","","","-1","r","elianto","#f73b6a7A","32","-1","0","-10","","0","3","","","","","","","615a0ad49f4aaece709552c5&order=&STUDY_ID=61f02a8661f82b834564f044","253","10","3","lose","go","0"
"pit-trial","321","1586354","0.0-259.0","battery-v0.2","","","777.5","h","elianto","#3366ff99","32","32","1","+10","1629.5999999940395","1","3","","","","","","","615a0ad49f4aaece709552c5&order=&STUDY_ID=61f02a8661f82b834564f044","254","8","1","win","go","0"
"pit-trial","322","1591218","0.0-260.0","battery-v0.2","","","-1","m","elianto","#f73b6a7A","-1","-1","1","-10","","0","3","","","","","","","615a0ad49f4aaece709552c5&order=&STUDY_ID=61f02a8661f82b834564f044","255","11","4","lose","no-go","1"
"pit-trial","323","1596081","0.0-261.0","battery-v0.2","","","-1","y","elianto","#3366ff99","-1","-1","1","+10","","0","3","","","","","","","615a0ad49f4aaece709552c5&order=&STUDY_ID=61f02a8661f82b834564f044","256","9","2","win","no-go","0"
"pit-trial","324","1599826","0.0-262.0","battery-v0.2","","","885.1999999880791","h","elianto","#3366ff99","32","32","1","+10","1737.0999999940395","1","3","","","","","","","615a0ad49f4aaece709552c5&order=&STUDY_ID=61f02a8661f82b834564f044","257","8","1","win","go","0"
"pit-trial","325","1604688","0.0-263.0","battery-v0.2","","","-1","y","elianto","#3366ff99","-1","-1","1","+10","","0","3","","","","","","","615a0ad49f4aaece709552c5&order=&STUDY_ID=61f02a8661f82b834564f044","258","9","2","win","no-go","0"
"pit-trial","326","1609074","0.0-264.0","battery-v0.2","","","1525.2999999821186","r","elianto","#f73b6a7A","32","32","1","0","2377.0999999940395","1","3","","","","","","","615a0ad49f4aaece709552c5&order=&STUDY_ID=61f02a8661f82b834564f044","259","10","3","lose","go","0"
"pit-trial","327","1612844","0.0-265.0","battery-v0.2","","","912.0999999940395","m","elianto","#f73b6a7A","-1","32","0","-10","1762.699999988079","1","3","","","","","","","615a0ad49f4aaece709552c5&order=&STUDY_ID=61f02a8661f82b834564f044","260","11","4","lose","no-go","0"
