"trial_type","trial_index","time_elapsed","internal_node_id","task_version","subject_id","interactions","blur_events","focus_events","fullscreenenter_events","fullscreenexit_events","success","view_history","rt","responses","num_errors","age","subject","participantId","rune","rune_set","hex","correct","choice","accuracy","outcome","keys","total_keys","block","practice","value","sub","trial","stimulus","robot","valence","action","sham","browser_interactions"
"pavlovia","0","13","0.0-0.0","battery-v0.2","","""event"",""trial"",""time""
""fullscreenenter"",""1"",""7749""
","
","
","""event"",""trial"",""time""
""fullscreenenter"",""1"",""7749""
","
","","","","","","","","","","","","","","","","","","","","","","","","","","","",""
"fullscreen","1","8740","0.0-1.0","battery-v0.2","","""event"",""trial"",""time""
""fullscreenenter"",""1"",""7749""
","
","
","""event"",""trial"",""time""
""fullscreenenter"",""1"",""7749""
","
","true","","","","","","","","","","","","","","","","","","","","","","","","","","",""
"pit-instructions","2","16601","0.0-2.0-0.0","battery-v0.2","","""event"",""trial"",""time""
""fullscreenenter"",""1"",""7749""
","
","
","""event"",""trial"",""time""
""fullscreenenter"",""1"",""7749""
","
","","[{""page_index"":0,""viewing_time"":7857.300000011921}]","7857.599999964237","","","","","","","","","","","","","","","","","","","","","","","","",""
"pit-comprehension","3","20961","0.0-2.0-1.0-0.0","battery-v0.2","","""event"",""trial"",""time""
""fullscreenenter"",""1"",""7749""
","
","
","""event"",""trial"",""time""
""fullscreenenter"",""1"",""7749""
","
","","","4354.800000011921","[""shark""]","0","20","1211","1148","","","","","","","","","","","","","","","","","","","",""
"pit-instructions","4","25315","0.0-2.0-1.0-1.0","battery-v0.2","","""event"",""trial"",""time""
""fullscreenenter"",""1"",""7749""
","
","
","""event"",""trial"",""time""
""fullscreenenter"",""1"",""7749""
","
","","[{""page_index"":0,""viewing_time"":4342}]","4342.200000047684","","","","","","","","","","","","","","","","","","","","","","","","",""
"pit-comprehension","5","27897","0.0-2.0-2.0-0.0","battery-v0.2","","""event"",""trial"",""time""
""fullscreenenter"",""1"",""7749""
","
","
","""event"",""trial"",""time""
""fullscreenenter"",""1"",""7749""
","
","","","2578.5","[""tiger""]","0","20","1211","1148","","","","","","","","","","","","","","","","","","","",""
"pit-instructions","6","29098","0.0-2.0-2.0-1.0","battery-v0.2","","""event"",""trial"",""time""
""fullscreenenter"",""1"",""7749""
","
","
","""event"",""trial"",""time""
""fullscreenenter"",""1"",""7749""
","
","","[{""page_index"":0,""viewing_time"":1197.8999999761581}]","1198.0999999642372","","","","","","","","","","","","","","","","","","","","","","","","",""
"pit-instructions","7","154003","0.0-2.0-3.0","battery-v0.2","","""event"",""trial"",""time""
""fullscreenenter"",""1"",""7749""
","
","
","""event"",""trial"",""time""
""fullscreenenter"",""1"",""7749""
","
","","[{""page_index"":0,""viewing_time"":13106.599999964237},{""page_index"":1,""viewing_time"":8197.900000035763},{""page_index"":2,""viewing_time"":11761},{""page_index"":3,""viewing_time"":10508.899999976158},{""page_index"":4,""viewing_time"":5466.800000011921},{""page_index"":5,""viewing_time"":9325.300000011921},{""page_index"":6,""viewing_time"":10796.199999988079},{""page_index"":7,""viewing_time"":7961.5},{""page_index"":8,""viewing_time"":6081.300000011921},{""page_index"":9,""viewing_time"":9248.799999952316},{""page_index"":10,""viewing_time"":8533.5},{""page_index"":11,""viewing_time"":10730.5},{""page_index"":12,""viewing_time"":7295.900000035763},{""page_index"":13,""viewing_time"":5886.5}]","124901","","","","","","","","","","","","","","","","","","","","","","","","",""
"pit-trial","8","156931","0.0-2.0-4.0-0.0","battery-v0.2","","""event"",""trial"",""time""
""fullscreenenter"",""1"",""7749""
","
","
","""event"",""trial"",""time""
""fullscreenenter"",""1"",""7749""
","
","","","58.59999996423721","","","20","1211","1148","&#9784;","elianto","#FFFFF080"," "," ","1","&#10004","[909.4000000357628]","1","0","0","","","","","","","","",""
"pit-trial","9","160394","0.0-2.0-4.1-0.1","battery-v0.2","","""event"",""trial"",""time""
""fullscreenenter"",""1"",""7749""
","
","
","""event"",""trial"",""time""
""fullscreenenter"",""1"",""7749""
","
","","","589.3999999761581","","","20","1211","1148","&#9784;","elianto","#FFFFF080"," "," ","1","&#10004","[1443.5]","1","0","0","","","","","","","","",""
"pit-trial","10","163874","0.0-2.0-4.2-0.2","battery-v0.2","","""event"",""trial"",""time""
""fullscreenenter"",""1"",""7749""
","
","
","""event"",""trial"",""time""
""fullscreenenter"",""1"",""7749""
","
","","","618.3999999761581","","","20","1211","1148","&#9784;","elianto","#FFFFF080"," "," ","1","&#10004","[1468.800000011921]","1","0","0","","","","","","","","",""
"pit-trial","11","167332","0.0-2.0-4.3-0.3","battery-v0.2","","""event"",""trial"",""time""
""fullscreenenter"",""1"",""7749""
""blur"",""12"",""171092""
""focus"",""12"",""171218""
","""event"",""trial"",""time""
""blur"",""12"",""171092""
","""event"",""trial"",""time""
""focus"",""12"",""171218""
","""event"",""trial"",""time""
""fullscreenenter"",""1"",""7749""
","
","","","586.4000000357628","","","20","1211","1148","&#9784;","elianto","#FFFFF080"," "," ","1","&#10004","[1437]","1","0","0","","","","","","","","",""
"pit-trial","12","171532","0.0-2.0-4.4-0.4","battery-v0.2","","""event"",""trial"",""time""
""fullscreenenter"",""1"",""7749""
""blur"",""12"",""171092""
""focus"",""12"",""171218""
","""event"",""trial"",""time""
""blur"",""12"",""171092""
","""event"",""trial"",""time""
""focus"",""12"",""171218""
","""event"",""trial"",""time""
""fullscreenenter"",""1"",""7749""
","
","","","1337.800000011921","","","20","1211","1148","&#9784;","elianto","#FFFFF080"," "," ","1","&#10004","[2188.5]","1","0","0","","","","","","","","",""
"pit-instructions","13","203387","0.0-2.0-5.0","battery-v0.2","","""event"",""trial"",""time""
""fullscreenenter"",""1"",""7749""
""blur"",""12"",""171092""
""focus"",""12"",""171218""
","""event"",""trial"",""time""
""blur"",""12"",""171092""
","""event"",""trial"",""time""
""focus"",""12"",""171218""
","""event"",""trial"",""time""
""fullscreenenter"",""1"",""7749""
","
","","[{""page_index"":0,""viewing_time"":5694.900000035763},{""page_index"":1,""viewing_time"":7100.899999976158},{""page_index"":2,""viewing_time"":9160.699999988079},{""page_index"":3,""viewing_time"":9891.800000011921}]","31848.69999998808","","","","","","","","","","","","","","","","","","","","","","","","",""
"pit-trial","14","208244","0.0-2.0-6.0-0.0","battery-v0.2","","""event"",""trial"",""time""
""fullscreenenter"",""1"",""7749""
""blur"",""12"",""171092""
""focus"",""12"",""171218""
","""event"",""trial"",""time""
""blur"",""12"",""171092""
","""event"",""trial"",""time""
""focus"",""12"",""171218""
","""event"",""trial"",""time""
""fullscreenenter"",""1"",""7749""
","
","","","-1","","","20","1211","1148","&#9854;","elianto","#FFFFF080","-1","-1","1","&#10004","[]","0","0","1","","","","","","","","",""
"pit-trial","15","213109","0.0-2.0-6.1-0.1","battery-v0.2","","""event"",""trial"",""time""
""fullscreenenter"",""1"",""7749""
""blur"",""12"",""171092""
""focus"",""12"",""171218""
","""event"",""trial"",""time""
""blur"",""12"",""171092""
","""event"",""trial"",""time""
""focus"",""12"",""171218""
","""event"",""trial"",""time""
""fullscreenenter"",""1"",""7749""
","
","","","-1","","","20","1211","1148","&#9854;","elianto","#FFFFF080","-1","-1","1","&#10004","[]","0","0","1","","","","","","","","",""
"pit-trial","16","217970","0.0-2.0-6.2-0.2","battery-v0.2","","""event"",""trial"",""time""
""fullscreenenter"",""1"",""7749""
""blur"",""12"",""171092""
""focus"",""12"",""171218""
","""event"",""trial"",""time""
""blur"",""12"",""171092""
","""event"",""trial"",""time""
""focus"",""12"",""171218""
","""event"",""trial"",""time""
""fullscreenenter"",""1"",""7749""
","
","","","-1","","","20","1211","1148","&#9854;","elianto","#FFFFF080","-1","-1","1","&#10004","[]","0","0","1","","","","","","","","",""
"pit-trial","17","222843","0.0-2.0-6.3-0.3","battery-v0.2","","""event"",""trial"",""time""
""fullscreenenter"",""1"",""7749""
""blur"",""12"",""171092""
""focus"",""12"",""171218""
","""event"",""trial"",""time""
""blur"",""12"",""171092""
","""event"",""trial"",""time""
""focus"",""12"",""171218""
","""event"",""trial"",""time""
""fullscreenenter"",""1"",""7749""
","
","","","-1","","","20","1211","1148","&#9854;","elianto","#FFFFF080","-1","-1","1","&#10004","[]","0","0","1","","","","","","","","",""
"pit-trial","18","227704","0.0-2.0-6.4-0.4","battery-v0.2","","""event"",""trial"",""time""
""fullscreenenter"",""1"",""7749""
""blur"",""12"",""171092""
""focus"",""12"",""171218""
""blur"",""19"",""371196""
""focus"",""19"",""371789""
""blur"",""19"",""374131""
""focus"",""19"",""375756""
","""event"",""trial"",""time""
""blur"",""12"",""171092""
""blur"",""19"",""371196""
""blur"",""19"",""374131""
","""event"",""trial"",""time""
""focus"",""12"",""171218""
""focus"",""19"",""371789""
""focus"",""19"",""375756""
","""event"",""trial"",""time""
""fullscreenenter"",""1"",""7749""
","
","","","-1","","","20","1211","1148","&#9854;","elianto","#FFFFF080","-1","-1","1","&#10004","[]","0","0","1","","","","","","","","",""
"pit-instructions","19","395587","0.0-2.0-7.0","battery-v0.2","","""event"",""trial"",""time""
""fullscreenenter"",""1"",""7749""
""blur"",""12"",""171092""
""focus"",""12"",""171218""
""blur"",""19"",""371196""
""focus"",""19"",""371789""
""blur"",""19"",""374131""
""focus"",""19"",""375756""
","""event"",""trial"",""time""
""blur"",""12"",""171092""
""blur"",""19"",""371196""
""blur"",""19"",""374131""
","""event"",""trial"",""time""
""focus"",""12"",""171218""
""focus"",""19"",""371789""
""focus"",""19"",""375756""
","""event"",""trial"",""time""
""fullscreenenter"",""1"",""7749""
","
","","[{""page_index"":0,""viewing_time"":10464.200000047684},{""page_index"":1,""viewing_time"":13263.199999988079},{""page_index"":2,""viewing_time"":8271.199999988079},{""page_index"":3,""viewing_time"":7711.399999976158},{""page_index"":4,""viewing_time"":8422.5},{""page_index"":5,""viewing_time"":7611.700000047684},{""page_index"":6,""viewing_time"":6872},{""page_index"":7,""viewing_time"":9544.199999988079},{""page_index"":8,""viewing_time"":7719.899999976158},{""page_index"":9,""viewing_time"":6034.199999988079},{""page_index"":10,""viewing_time"":8217.5},{""page_index"":11,""viewing_time"":8908.200000047684},{""page_index"":12,""viewing_time"":13748.299999952316},{""page_index"":13,""viewing_time"":10837.700000047684},{""page_index"":14,""viewing_time"":11687.899999976158},{""page_index"":15,""viewing_time"":8850},{""page_index"":16,""viewing_time"":11369.800000011921},{""page_index"":17,""viewing_time"":8342.899999976158}]","167877.10000002384","","","","","","","","","","","","","","","","","","","","","","","","",""
"pit-trial","20","399230","0.0-2.0-8.0-0.0","battery-v0.2","","""event"",""trial"",""time""
""fullscreenenter"",""1"",""7749""
""blur"",""12"",""171092""
""focus"",""12"",""171218""
""blur"",""19"",""371196""
""focus"",""19"",""371789""
""blur"",""19"",""374131""
""focus"",""19"",""375756""
","""event"",""trial"",""time""
""blur"",""12"",""171092""
""blur"",""19"",""371196""
""blur"",""19"",""374131""
","""event"",""trial"",""time""
""focus"",""12"",""171218""
""focus"",""19"",""371789""
""focus"",""19"",""375756""
","""event"",""trial"",""time""
""fullscreenenter"",""1"",""7749""
","
","","","787.8000000119209","","","20","1211","1148","&#9776;","elianto","#3366ff99"," "," ","1","+10","[1638]","1","0","1","","","","","","","","",""
"pit-trial","21","402783","0.0-2.0-8.0-1.0","battery-v0.2","","""event"",""trial"",""time""
""fullscreenenter"",""1"",""7749""
""blur"",""12"",""171092""
""focus"",""12"",""171218""
""blur"",""19"",""371196""
""focus"",""19"",""371789""
""blur"",""19"",""374131""
""focus"",""19"",""375756""
","""event"",""trial"",""time""
""blur"",""12"",""171092""
""blur"",""19"",""371196""
""blur"",""19"",""374131""
","""event"",""trial"",""time""
""focus"",""12"",""171218""
""focus"",""19"",""371789""
""focus"",""19"",""375756""
","""event"",""trial"",""time""
""fullscreenenter"",""1"",""7749""
","
","","","685.8000000119209","","","20","1211","1148","&#9776;","elianto","#3366ff99"," "," ","1","+10","[1535.6000000238419]","1","0","1","","","","","","","","",""
"pit-trial","22","406184","0.0-2.0-8.0-2.0","battery-v0.2","","""event"",""trial"",""time""
""fullscreenenter"",""1"",""7749""
""blur"",""12"",""171092""
""focus"",""12"",""171218""
""blur"",""19"",""371196""
""focus"",""19"",""371789""
""blur"",""19"",""374131""
""focus"",""19"",""375756""
","""event"",""trial"",""time""
""blur"",""12"",""171092""
""blur"",""19"",""371196""
""blur"",""19"",""374131""
","""event"",""trial"",""time""
""focus"",""12"",""171218""
""focus"",""19"",""371789""
""focus"",""19"",""375756""
","""event"",""trial"",""time""
""fullscreenenter"",""1"",""7749""
","
","","","541","","","20","1211","1148","&#9776;","elianto","#3366ff99"," "," ","1","+10","[1392]","1","0","1","","","","","","","","",""
"pit-trial","23","409710","0.0-2.0-8.0-3.0","battery-v0.2","","""event"",""trial"",""time""
""fullscreenenter"",""1"",""7749""
""blur"",""12"",""171092""
""focus"",""12"",""171218""
""blur"",""19"",""371196""
""focus"",""19"",""371789""
""blur"",""19"",""374131""
""focus"",""19"",""375756""
","""event"",""trial"",""time""
""blur"",""12"",""171092""
""blur"",""19"",""371196""
""blur"",""19"",""374131""
","""event"",""trial"",""time""
""focus"",""12"",""171218""
""focus"",""19"",""371789""
""focus"",""19"",""375756""
","""event"",""trial"",""time""
""fullscreenenter"",""1"",""7749""
","
","","","648.1999999880791","","","20","1211","1148","&#9776;","elianto","#3366ff99"," "," ","1","0","[1510.5999999642372]","1","0","1","","","","","","","","",""
"pit-trial","24","413264","0.0-2.0-8.0-4.0","battery-v0.2","","""event"",""trial"",""time""
""fullscreenenter"",""1"",""7749""
""blur"",""12"",""171092""
""focus"",""12"",""171218""
""blur"",""19"",""371196""
""focus"",""19"",""371789""
""blur"",""19"",""374131""
""focus"",""19"",""375756""
","""event"",""trial"",""time""
""blur"",""12"",""171092""
""blur"",""19"",""371196""
""blur"",""19"",""374131""
","""event"",""trial"",""time""
""focus"",""12"",""171218""
""focus"",""19"",""371789""
""focus"",""19"",""375756""
","""event"",""trial"",""time""
""fullscreenenter"",""1"",""7749""
","
","","","689.3000000119209","","","20","1211","1148","&#9776;","elianto","#3366ff99"," "," ","1","+10","[1544.8999999761581]","1","0","1","","","","","","","","",""
"call-function","25","413269","0.0-2.0-9.0","battery-v0.2","","""event"",""trial"",""time""
""fullscreenenter"",""1"",""7749""
""blur"",""12"",""171092""
""focus"",""12"",""171218""
""blur"",""19"",""371196""
""focus"",""19"",""371789""
""blur"",""19"",""374131""
""focus"",""19"",""375756""
""blur"",""26"",""443971""
""focus"",""26"",""451241""
","""event"",""trial"",""time""
""blur"",""12"",""171092""
""blur"",""19"",""371196""
""blur"",""19"",""374131""
""blur"",""26"",""443971""
","""event"",""trial"",""time""
""focus"",""12"",""171218""
""focus"",""19"",""371789""
""focus"",""19"",""375756""
""focus"",""26"",""451241""
","""event"",""trial"",""time""
""fullscreenenter"",""1"",""7749""
","
","","","","","","","","","","","","","","","","","","","","","","","","","","","",""
"pit-instructions","26","458983","0.0-2.0-10.0","battery-v0.2","","""event"",""trial"",""time""
""fullscreenenter"",""1"",""7749""
""blur"",""12"",""171092""
""focus"",""12"",""171218""
""blur"",""19"",""371196""
""focus"",""19"",""371789""
""blur"",""19"",""374131""
""focus"",""19"",""375756""
""blur"",""26"",""443971""
""focus"",""26"",""451241""
","""event"",""trial"",""time""
""blur"",""12"",""171092""
""blur"",""19"",""371196""
""blur"",""19"",""374131""
""blur"",""26"",""443971""
","""event"",""trial"",""time""
""focus"",""12"",""171218""
""focus"",""19"",""371789""
""focus"",""19"",""375756""
""focus"",""26"",""451241""
","""event"",""trial"",""time""
""fullscreenenter"",""1"",""7749""
","
","","[{""page_index"":0,""viewing_time"":6363.399999976158},{""page_index"":1,""viewing_time"":8943.399999976158},{""page_index"":2,""viewing_time"":11378.600000023842},{""page_index"":3,""viewing_time"":11458.300000011921},{""page_index"":4,""viewing_time"":7568.599999964237}]","45712.5","","","","","","","","","","","","","","","","","","","","","","","","",""
"pit-trial","27","462549","0.0-2.0-11.0-0.0","battery-v0.2","","""event"",""trial"",""time""
""fullscreenenter"",""1"",""7749""
""blur"",""12"",""171092""
""focus"",""12"",""171218""
""blur"",""19"",""371196""
""focus"",""19"",""371789""
""blur"",""19"",""374131""
""focus"",""19"",""375756""
""blur"",""26"",""443971""
""focus"",""26"",""451241""
","""event"",""trial"",""time""
""blur"",""12"",""171092""
""blur"",""19"",""371196""
""blur"",""19"",""374131""
""blur"",""26"",""443971""
","""event"",""trial"",""time""
""focus"",""12"",""171218""
""focus"",""19"",""371789""
""focus"",""19"",""375756""
""focus"",""26"",""451241""
","""event"",""trial"",""time""
""fullscreenenter"",""1"",""7749""
","
","","","712.3000000119209","","","20","1211","1148","&#9761;","elianto","#3366ff99","-1"," ","0","0","[1563.2999999523163]","1","0","2","","","","","","","","",""
"pit-trial","28","466019","0.0-2.0-11.0-1.0","battery-v0.2","","""event"",""trial"",""time""
""fullscreenenter"",""1"",""7749""
""blur"",""12"",""171092""
""focus"",""12"",""171218""
""blur"",""19"",""371196""
""focus"",""19"",""371789""
""blur"",""19"",""374131""
""focus"",""19"",""375756""
""blur"",""26"",""443971""
""focus"",""26"",""451241""
","""event"",""trial"",""time""
""blur"",""12"",""171092""
""blur"",""19"",""371196""
""blur"",""19"",""374131""
""blur"",""26"",""443971""
","""event"",""trial"",""time""
""focus"",""12"",""171218""
""focus"",""19"",""371789""
""focus"",""19"",""375756""
""focus"",""26"",""451241""
","""event"",""trial"",""time""
""fullscreenenter"",""1"",""7749""
","
","","","607.5","","","20","1211","1148","&#9761;","elianto","#3366ff99","-1"," ","0","0","[1457.5]","1","0","2","","","","","","","","",""
"pit-trial","29","469445","0.0-2.0-11.0-2.0","battery-v0.2","","""event"",""trial"",""time""
""fullscreenenter"",""1"",""7749""
""blur"",""12"",""171092""
""focus"",""12"",""171218""
""blur"",""19"",""371196""
""focus"",""19"",""371789""
""blur"",""19"",""374131""
""focus"",""19"",""375756""
""blur"",""26"",""443971""
""focus"",""26"",""451241""
","""event"",""trial"",""time""
""blur"",""12"",""171092""
""blur"",""19"",""371196""
""blur"",""19"",""374131""
""blur"",""26"",""443971""
","""event"",""trial"",""time""
""focus"",""12"",""171218""
""focus"",""19"",""371789""
""focus"",""19"",""375756""
""focus"",""26"",""451241""
","""event"",""trial"",""time""
""fullscreenenter"",""1"",""7749""
","
","","","555.3000000119209","","","20","1211","1148","&#9761;","elianto","#3366ff99","-1"," ","0","0","[1418.800000011921]","1","0","2","","","","","","","","",""
"pit-trial","30","472828","0.0-2.0-11.0-3.0","battery-v0.2","","""event"",""trial"",""time""
""fullscreenenter"",""1"",""7749""
""blur"",""12"",""171092""
""focus"",""12"",""171218""
""blur"",""19"",""371196""
""focus"",""19"",""371789""
""blur"",""19"",""374131""
""focus"",""19"",""375756""
""blur"",""26"",""443971""
""focus"",""26"",""451241""
","""event"",""trial"",""time""
""blur"",""12"",""171092""
""blur"",""19"",""371196""
""blur"",""19"",""374131""
""blur"",""26"",""443971""
","""event"",""trial"",""time""
""focus"",""12"",""171218""
""focus"",""19"",""371789""
""focus"",""19"",""375756""
""focus"",""26"",""451241""
","""event"",""trial"",""time""
""fullscreenenter"",""1"",""7749""
","
","","","513.5","","","20","1211","1148","&#9761;","elianto","#3366ff99","-1"," ","0","+10","[1370.699999988079]","1","0","2","","","","","","","","",""
"pit-trial","31","476293","0.0-2.0-11.0-4.0","battery-v0.2","","""event"",""trial"",""time""
""fullscreenenter"",""1"",""7749""
""blur"",""12"",""171092""
""focus"",""12"",""171218""
""blur"",""19"",""371196""
""focus"",""19"",""371789""
""blur"",""19"",""374131""
""focus"",""19"",""375756""
""blur"",""26"",""443971""
""focus"",""26"",""451241""
","""event"",""trial"",""time""
""blur"",""12"",""171092""
""blur"",""19"",""371196""
""blur"",""19"",""374131""
""blur"",""26"",""443971""
","""event"",""trial"",""time""
""focus"",""12"",""171218""
""focus"",""19"",""371789""
""focus"",""19"",""375756""
""focus"",""26"",""451241""
","""event"",""trial"",""time""
""fullscreenenter"",""1"",""7749""
","
","","","599.9000000357628","","","20","1211","1148","&#9761;","elianto","#3366ff99","-1"," ","0","0","[1451.1000000238419]","1","0","2","","","","","","","","",""
"pit-trial","32","479716","0.0-2.0-11.1-0.1","battery-v0.2","","""event"",""trial"",""time""
""fullscreenenter"",""1"",""7749""
""blur"",""12"",""171092""
""focus"",""12"",""171218""
""blur"",""19"",""371196""
""focus"",""19"",""371789""
""blur"",""19"",""374131""
""focus"",""19"",""375756""
""blur"",""26"",""443971""
""focus"",""26"",""451241""
","""event"",""trial"",""time""
""blur"",""12"",""171092""
""blur"",""19"",""371196""
""blur"",""19"",""374131""
""blur"",""26"",""443971""
","""event"",""trial"",""time""
""focus"",""12"",""171218""
""focus"",""19"",""371789""
""focus"",""19"",""375756""
""focus"",""26"",""451241""
","""event"",""trial"",""time""
""fullscreenenter"",""1"",""7749""
","
","","","557.5999999642372","","","20","1211","1148","&#9761;","elianto","#3366ff99","-1"," ","0","0","[1409]","1","0","2","","","","","","","","",""
"pit-trial","33","483138","0.0-2.0-11.1-1.1","battery-v0.2","","""event"",""trial"",""time""
""fullscreenenter"",""1"",""7749""
""blur"",""12"",""171092""
""focus"",""12"",""171218""
""blur"",""19"",""371196""
""focus"",""19"",""371789""
""blur"",""19"",""374131""
""focus"",""19"",""375756""
""blur"",""26"",""443971""
""focus"",""26"",""451241""
","""event"",""trial"",""time""
""blur"",""12"",""171092""
""blur"",""19"",""371196""
""blur"",""19"",""374131""
""blur"",""26"",""443971""
","""event"",""trial"",""time""
""focus"",""12"",""171218""
""focus"",""19"",""371789""
""focus"",""19"",""375756""
""focus"",""26"",""451241""
","""event"",""trial"",""time""
""fullscreenenter"",""1"",""7749""
","
","","","555.6999999880791","","","20","1211","1148","&#9761;","elianto","#3366ff99","-1"," ","0","0","[1405.9000000357628]","1","0","2","","","","","","","","",""
"pit-trial","34","486506","0.0-2.0-11.1-2.1","battery-v0.2","","""event"",""trial"",""time""
""fullscreenenter"",""1"",""7749""
""blur"",""12"",""171092""
""focus"",""12"",""171218""
""blur"",""19"",""371196""
""focus"",""19"",""371789""
""blur"",""19"",""374131""
""focus"",""19"",""375756""
""blur"",""26"",""443971""
""focus"",""26"",""451241""
","""event"",""trial"",""time""
""blur"",""12"",""171092""
""blur"",""19"",""371196""
""blur"",""19"",""374131""
""blur"",""26"",""443971""
","""event"",""trial"",""time""
""focus"",""12"",""171218""
""focus"",""19"",""371789""
""focus"",""19"",""375756""
""focus"",""26"",""451241""
","""event"",""trial"",""time""
""fullscreenenter"",""1"",""7749""
","
","","","498","","","20","1211","1148","&#9761;","elianto","#3366ff99","-1"," ","0","0","[1349.300000011921]","1","0","2","","","","","","","","",""
"pit-trial","35","489949","0.0-2.0-11.1-3.1","battery-v0.2","","""event"",""trial"",""time""
""fullscreenenter"",""1"",""7749""
""blur"",""12"",""171092""
""focus"",""12"",""171218""
""blur"",""19"",""371196""
""focus"",""19"",""371789""
""blur"",""19"",""374131""
""focus"",""19"",""375756""
""blur"",""26"",""443971""
""focus"",""26"",""451241""
","""event"",""trial"",""time""
""blur"",""12"",""171092""
""blur"",""19"",""371196""
""blur"",""19"",""374131""
""blur"",""26"",""443971""
","""event"",""trial"",""time""
""focus"",""12"",""171218""
""focus"",""19"",""371789""
""focus"",""19"",""375756""
""focus"",""26"",""451241""
","""event"",""trial"",""time""
""fullscreenenter"",""1"",""7749""
","
","","","585.6000000238419","","","20","1211","1148","&#9761;","elianto","#3366ff99","-1"," ","0","+10","[1436.199999988079]","1","0","2","","","","","","","","",""
"pit-trial","36","493398","0.0-2.0-11.1-4.1","battery-v0.2","","""event"",""trial"",""time""
""fullscreenenter"",""1"",""7749""
""blur"",""12"",""171092""
""focus"",""12"",""171218""
""blur"",""19"",""371196""
""focus"",""19"",""371789""
""blur"",""19"",""374131""
""focus"",""19"",""375756""
""blur"",""26"",""443971""
""focus"",""26"",""451241""
","""event"",""trial"",""time""
""blur"",""12"",""171092""
""blur"",""19"",""371196""
""blur"",""19"",""374131""
""blur"",""26"",""443971""
","""event"",""trial"",""time""
""focus"",""12"",""171218""
""focus"",""19"",""371789""
""focus"",""19"",""375756""
""focus"",""26"",""451241""
","""event"",""trial"",""time""
""fullscreenenter"",""1"",""7749""
","
","","","590.3000000119209","","","20","1211","1148","&#9761;","elianto","#3366ff99","-1"," ","0","0","[1440.699999988079]","1","0","2","","","","","","","","",""
"pit-trial","37","497022","0.0-2.0-11.2-0.2","battery-v0.2","","""event"",""trial"",""time""
""fullscreenenter"",""1"",""7749""
""blur"",""12"",""171092""
""focus"",""12"",""171218""
""blur"",""19"",""371196""
""focus"",""19"",""371789""
""blur"",""19"",""374131""
""focus"",""19"",""375756""
""blur"",""26"",""443971""
""focus"",""26"",""451241""
","""event"",""trial"",""time""
""blur"",""12"",""171092""
""blur"",""19"",""371196""
""blur"",""19"",""374131""
""blur"",""26"",""443971""
","""event"",""trial"",""time""
""focus"",""12"",""171218""
""focus"",""19"",""371789""
""focus"",""19"",""375756""
""focus"",""26"",""451241""
","""event"",""trial"",""time""
""fullscreenenter"",""1"",""7749""
","
","","","765.3000000119209","","","20","1211","1148","&#9761;","elianto","#3366ff99","-1"," ","0","0","[1616.3999999761581]","1","0","2","","","","","","","","",""
"pit-trial","38","500484","0.0-2.0-11.2-1.2","battery-v0.2","","""event"",""trial"",""time""
""fullscreenenter"",""1"",""7749""
""blur"",""12"",""171092""
""focus"",""12"",""171218""
""blur"",""19"",""371196""
""focus"",""19"",""371789""
""blur"",""19"",""374131""
""focus"",""19"",""375756""
""blur"",""26"",""443971""
""focus"",""26"",""451241""
","""event"",""trial"",""time""
""blur"",""12"",""171092""
""blur"",""19"",""371196""
""blur"",""19"",""374131""
""blur"",""26"",""443971""
","""event"",""trial"",""time""
""focus"",""12"",""171218""
""focus"",""19"",""371789""
""focus"",""19"",""375756""
""focus"",""26"",""451241""
","""event"",""trial"",""time""
""fullscreenenter"",""1"",""7749""
","
","","","604.3000000119209","","","20","1211","1148","&#9761;","elianto","#3366ff99","-1"," ","0","0","[1455.300000011921]","1","0","2","","","","","","","","",""
"pit-trial","39","503973","0.0-2.0-11.2-2.2","battery-v0.2","","""event"",""trial"",""time""
""fullscreenenter"",""1"",""7749""
""blur"",""12"",""171092""
""focus"",""12"",""171218""
""blur"",""19"",""371196""
""focus"",""19"",""371789""
""blur"",""19"",""374131""
""focus"",""19"",""375756""
""blur"",""26"",""443971""
""focus"",""26"",""451241""
","""event"",""trial"",""time""
""blur"",""12"",""171092""
""blur"",""19"",""371196""
""blur"",""19"",""374131""
""blur"",""26"",""443971""
","""event"",""trial"",""time""
""focus"",""12"",""171218""
""focus"",""19"",""371789""
""focus"",""19"",""375756""
""focus"",""26"",""451241""
","""event"",""trial"",""time""
""fullscreenenter"",""1"",""7749""
","
","","","631.5","","","20","1211","1148","&#9761;","elianto","#3366ff99","-1"," ","0","0","[1481.699999988079]","1","0","2","","","","","","","","",""
"pit-trial","40","507398","0.0-2.0-11.2-3.2","battery-v0.2","","""event"",""trial"",""time""
""fullscreenenter"",""1"",""7749""
""blur"",""12"",""171092""
""focus"",""12"",""171218""
""blur"",""19"",""371196""
""focus"",""19"",""371789""
""blur"",""19"",""374131""
""focus"",""19"",""375756""
""blur"",""26"",""443971""
""focus"",""26"",""451241""
","""event"",""trial"",""time""
""blur"",""12"",""171092""
""blur"",""19"",""371196""
""blur"",""19"",""374131""
""blur"",""26"",""443971""
","""event"",""trial"",""time""
""focus"",""12"",""171218""
""focus"",""19"",""371789""
""focus"",""19"",""375756""
""focus"",""26"",""451241""
","""event"",""trial"",""time""
""fullscreenenter"",""1"",""7749""
","
","","","567.6000000238419","","","20","1211","1148","&#9761;","elianto","#3366ff99","-1"," ","0","+10","[1417.699999988079]","1","0","2","","","","","","","","",""
"pit-trial","41","510965","0.0-2.0-11.2-4.2","battery-v0.2","","""event"",""trial"",""time""
""fullscreenenter"",""1"",""7749""
""blur"",""12"",""171092""
""focus"",""12"",""171218""
""blur"",""19"",""371196""
""focus"",""19"",""371789""
""blur"",""19"",""374131""
""focus"",""19"",""375756""
""blur"",""26"",""443971""
""focus"",""26"",""451241""
","""event"",""trial"",""time""
""blur"",""12"",""171092""
""blur"",""19"",""371196""
""blur"",""19"",""374131""
""blur"",""26"",""443971""
","""event"",""trial"",""time""
""focus"",""12"",""171218""
""focus"",""19"",""371789""
""focus"",""19"",""375756""
""focus"",""26"",""451241""
","""event"",""trial"",""time""
""fullscreenenter"",""1"",""7749""
","
","","","710.4000000357628","","","20","1211","1148","&#9761;","elianto","#3366ff99","-1"," ","0","0","[1560.300000011921]","1","0","2","","","","","","","","",""
"pit-trial","42","514389","0.0-2.0-11.3-0.3","battery-v0.2","","""event"",""trial"",""time""
""fullscreenenter"",""1"",""7749""
""blur"",""12"",""171092""
""focus"",""12"",""171218""
""blur"",""19"",""371196""
""focus"",""19"",""371789""
""blur"",""19"",""374131""
""focus"",""19"",""375756""
""blur"",""26"",""443971""
""focus"",""26"",""451241""
","""event"",""trial"",""time""
""blur"",""12"",""171092""
""blur"",""19"",""371196""
""blur"",""19"",""374131""
""blur"",""26"",""443971""
","""event"",""trial"",""time""
""focus"",""12"",""171218""
""focus"",""19"",""371789""
""focus"",""19"",""375756""
""focus"",""26"",""451241""
","""event"",""trial"",""time""
""fullscreenenter"",""1"",""7749""
","
","","","565.9000000357628","","","20","1211","1148","&#9761;","elianto","#3366ff99","-1"," ","0","0","[1415.9000000357628]","1","0","2","","","","","","","","",""
"pit-trial","43","517902","0.0-2.0-11.3-1.3","battery-v0.2","","""event"",""trial"",""time""
""fullscreenenter"",""1"",""7749""
""blur"",""12"",""171092""
""focus"",""12"",""171218""
""blur"",""19"",""371196""
""focus"",""19"",""371789""
""blur"",""19"",""374131""
""focus"",""19"",""375756""
""blur"",""26"",""443971""
""focus"",""26"",""451241""
","""event"",""trial"",""time""
""blur"",""12"",""171092""
""blur"",""19"",""371196""
""blur"",""19"",""374131""
""blur"",""26"",""443971""
","""event"",""trial"",""time""
""focus"",""12"",""171218""
""focus"",""19"",""371789""
""focus"",""19"",""375756""
""focus"",""26"",""451241""
","""event"",""trial"",""time""
""fullscreenenter"",""1"",""7749""
","
","","","658.3000000119209","","","20","1211","1148","&#9761;","elianto","#3366ff99","-1"," ","0","0","[1509.5]","1","0","2","","","","","","","","",""
"pit-trial","44","521316","0.0-2.0-11.3-2.3","battery-v0.2","","""event"",""trial"",""time""
""fullscreenenter"",""1"",""7749""
""blur"",""12"",""171092""
""focus"",""12"",""171218""
""blur"",""19"",""371196""
""focus"",""19"",""371789""
""blur"",""19"",""374131""
""focus"",""19"",""375756""
""blur"",""26"",""443971""
""focus"",""26"",""451241""
","""event"",""trial"",""time""
""blur"",""12"",""171092""
""blur"",""19"",""371196""
""blur"",""19"",""374131""
""blur"",""26"",""443971""
","""event"",""trial"",""time""
""focus"",""12"",""171218""
""focus"",""19"",""371789""
""focus"",""19"",""375756""
""focus"",""26"",""451241""
","""event"",""trial"",""time""
""fullscreenenter"",""1"",""7749""
","
","","","557.9000000357628","","","20","1211","1148","&#9761;","elianto","#3366ff99","-1"," ","0","0","[1408.199999988079]","1","0","2","","","","","","","","",""
"pit-trial","45","525500","0.0-2.0-11.3-3.3","battery-v0.2","","""event"",""trial"",""time""
""fullscreenenter"",""1"",""7749""
""blur"",""12"",""171092""
""focus"",""12"",""171218""
""blur"",""19"",""371196""
""focus"",""19"",""371789""
""blur"",""19"",""374131""
""focus"",""19"",""375756""
""blur"",""26"",""443971""
""focus"",""26"",""451241""
","""event"",""trial"",""time""
""blur"",""12"",""171092""
""blur"",""19"",""371196""
""blur"",""19"",""374131""
""blur"",""26"",""443971""
","""event"",""trial"",""time""
""focus"",""12"",""171218""
""focus"",""19"",""371789""
""focus"",""19"",""375756""
""focus"",""26"",""451241""
","""event"",""trial"",""time""
""fullscreenenter"",""1"",""7749""
","
","","","1328.6000000238419","","","20","1211","1148","&#9761;","elianto","#3366ff99","-1"," ","0","+10","[2178.7000000476837]","1","0","2","","","","","","","","",""
"pit-trial","46","528837","0.0-2.0-11.3-4.3","battery-v0.2","","""event"",""trial"",""time""
""fullscreenenter"",""1"",""7749""
""blur"",""12"",""171092""
""focus"",""12"",""171218""
""blur"",""19"",""371196""
""focus"",""19"",""371789""
""blur"",""19"",""374131""
""focus"",""19"",""375756""
""blur"",""26"",""443971""
""focus"",""26"",""451241""
","""event"",""trial"",""time""
""blur"",""12"",""171092""
""blur"",""19"",""371196""
""blur"",""19"",""374131""
""blur"",""26"",""443971""
","""event"",""trial"",""time""
""focus"",""12"",""171218""
""focus"",""19"",""371789""
""focus"",""19"",""375756""
""focus"",""26"",""451241""
","""event"",""trial"",""time""
""fullscreenenter"",""1"",""7749""
","
","","","479.19999998807907","","","20","1211","1148","&#9761;","elianto","#3366ff99","-1"," ","0","0","[1329.3999999761581]","1","0","2","","","","","","","","",""
"pit-trial","47","532189","0.0-2.0-11.4-0.4","battery-v0.2","","""event"",""trial"",""time""
""fullscreenenter"",""1"",""7749""
""blur"",""12"",""171092""
""focus"",""12"",""171218""
""blur"",""19"",""371196""
""focus"",""19"",""371789""
""blur"",""19"",""374131""
""focus"",""19"",""375756""
""blur"",""26"",""443971""
""focus"",""26"",""451241""
""blur"",""48"",""532694""
""focus"",""48"",""532910""
""blur"",""48"",""535469""
","""event"",""trial"",""time""
""blur"",""12"",""171092""
""blur"",""19"",""371196""
""blur"",""19"",""374131""
""blur"",""26"",""443971""
""blur"",""48"",""532694""
""blur"",""48"",""535469""
","""event"",""trial"",""time""
""focus"",""12"",""171218""
""focus"",""19"",""371789""
""focus"",""19"",""375756""
""focus"",""26"",""451241""
""focus"",""48"",""532910""
","""event"",""trial"",""time""
""fullscreenenter"",""1"",""7749""
","
","","","493.9000000357628","","","20","1211","1148","&#9761;","elianto","#3366ff99","-1"," ","0","0","[1344.699999988079]","1","0","2","","","","","","","","",""
"pit-trial","48","535620","0.0-2.0-11.4-1.4","battery-v0.2","","""event"",""trial"",""time""
""fullscreenenter"",""1"",""7749""
""blur"",""12"",""171092""
""focus"",""12"",""171218""
""blur"",""19"",""371196""
""focus"",""19"",""371789""
""blur"",""19"",""374131""
""focus"",""19"",""375756""
""blur"",""26"",""443971""
""focus"",""26"",""451241""
""blur"",""48"",""532694""
""focus"",""48"",""532910""
""blur"",""48"",""535469""
","""event"",""trial"",""time""
""blur"",""12"",""171092""
""blur"",""19"",""371196""
""blur"",""19"",""374131""
""blur"",""26"",""443971""
""blur"",""48"",""532694""
""blur"",""48"",""535469""
","""event"",""trial"",""time""
""focus"",""12"",""171218""
""focus"",""19"",""371789""
""focus"",""19"",""375756""
""focus"",""26"",""451241""
""focus"",""48"",""532910""
","""event"",""trial"",""time""
""fullscreenenter"",""1"",""7749""
","
","","","573.7999999523163","","","20","1211","1148","&#9761;","elianto","#3366ff99","-1"," ","0","0","[1425]","1","0","2","","","","","","","","",""
"pit-trial","49","540475","0.0-2.0-11.4-2.4","battery-v0.2","","""event"",""trial"",""time""
""fullscreenenter"",""1"",""7749""
""blur"",""12"",""171092""
""focus"",""12"",""171218""
""blur"",""19"",""371196""
""focus"",""19"",""371789""
""blur"",""19"",""374131""
""focus"",""19"",""375756""
""blur"",""26"",""443971""
""focus"",""26"",""451241""
""blur"",""48"",""532694""
""focus"",""48"",""532910""
""blur"",""48"",""535469""
""focus"",""50"",""541474""
","""event"",""trial"",""time""
""blur"",""12"",""171092""
""blur"",""19"",""371196""
""blur"",""19"",""374131""
""blur"",""26"",""443971""
""blur"",""48"",""532694""
""blur"",""48"",""535469""
","""event"",""trial"",""time""
""focus"",""12"",""171218""
""focus"",""19"",""371789""
""focus"",""19"",""375756""
""focus"",""26"",""451241""
""focus"",""48"",""532910""
""focus"",""50"",""541474""
","""event"",""trial"",""time""
""fullscreenenter"",""1"",""7749""
","
","","","-1","","","20","1211","1148","&#9761;","elianto","#3366ff99","-1","-1","1","+10","[]","0","0","2","","","","","","","","",""
"pit-trial","50","543997","0.0-2.0-11.4-3.4","battery-v0.2","","""event"",""trial"",""time""
""fullscreenenter"",""1"",""7749""
""blur"",""12"",""171092""
""focus"",""12"",""171218""
""blur"",""19"",""371196""
""focus"",""19"",""371789""
""blur"",""19"",""374131""
""focus"",""19"",""375756""
""blur"",""26"",""443971""
""focus"",""26"",""451241""
""blur"",""48"",""532694""
""focus"",""48"",""532910""
""blur"",""48"",""535469""
""focus"",""50"",""541474""
","""event"",""trial"",""time""
""blur"",""12"",""171092""
""blur"",""19"",""371196""
""blur"",""19"",""374131""
""blur"",""26"",""443971""
""blur"",""48"",""532694""
""blur"",""48"",""535469""
","""event"",""trial"",""time""
""focus"",""12"",""171218""
""focus"",""19"",""371789""
""focus"",""19"",""375756""
""focus"",""26"",""451241""
""focus"",""48"",""532910""
""focus"",""50"",""541474""
","""event"",""trial"",""time""
""fullscreenenter"",""1"",""7749""
","
","","","667.6999999880791","","","20","1211","1148","&#9761;","elianto","#3366ff99","-1"," ","0","+10","[1517.8999999761581]","1","0","2","","","","","","","","",""
"pit-trial","51","547557","0.0-2.0-11.4-4.4","battery-v0.2","","""event"",""trial"",""time""
""fullscreenenter"",""1"",""7749""
""blur"",""12"",""171092""
""focus"",""12"",""171218""
""blur"",""19"",""371196""
""focus"",""19"",""371789""
""blur"",""19"",""374131""
""focus"",""19"",""375756""
""blur"",""26"",""443971""
""focus"",""26"",""451241""
""blur"",""48"",""532694""
""focus"",""48"",""532910""
""blur"",""48"",""535469""
""focus"",""50"",""541474""
""fullscreenexit"",""52"",""576280""
","""event"",""trial"",""time""
""blur"",""12"",""171092""
""blur"",""19"",""371196""
""blur"",""19"",""374131""
""blur"",""26"",""443971""
""blur"",""48"",""532694""
""blur"",""48"",""535469""
","""event"",""trial"",""time""
""focus"",""12"",""171218""
""focus"",""19"",""371789""
""focus"",""19"",""375756""
""focus"",""26"",""451241""
""focus"",""48"",""532910""
""focus"",""50"",""541474""
","""event"",""trial"",""time""
""fullscreenenter"",""1"",""7749""
","""event"",""trial"",""time""
""fullscreenexit"",""52"",""576280""
","","","702.8000000119209","","","20","1211","1148","&#9761;","elianto","#3366ff99","-1"," ","0","0","[1552.8999999761581]","1","0","2","","","","","","","","",""
"pit-instructions","52","586657","0.0-2.0-11.4-5.4-0.4","battery-v0.2","","""event"",""trial"",""time""
""fullscreenenter"",""1"",""7749""
""blur"",""12"",""171092""
""focus"",""12"",""171218""
""blur"",""19"",""371196""
""focus"",""19"",""371789""
""blur"",""19"",""374131""
""focus"",""19"",""375756""
""blur"",""26"",""443971""
""focus"",""26"",""451241""
""blur"",""48"",""532694""
""focus"",""48"",""532910""
""blur"",""48"",""535469""
""focus"",""50"",""541474""
""fullscreenexit"",""52"",""576280""
","""event"",""trial"",""time""
""blur"",""12"",""171092""
""blur"",""19"",""371196""
""blur"",""19"",""374131""
""blur"",""26"",""443971""
""blur"",""48"",""532694""
""blur"",""48"",""535469""
","""event"",""trial"",""time""
""focus"",""12"",""171218""
""focus"",""19"",""371789""
""focus"",""19"",""375756""
""focus"",""26"",""451241""
""focus"",""48"",""532910""
""focus"",""50"",""541474""
","""event"",""trial"",""time""
""fullscreenenter"",""1"",""7749""
","""event"",""trial"",""time""
""fullscreenexit"",""52"",""576280""
","","[{""page_index"":0,""viewing_time"":7467.199999988079},{""page_index"":1,""viewing_time"":9310.899999976158},{""page_index"":2,""viewing_time"":22315.19999998808}]","39093.59999996424","","","","","","","","","","","","","","","","","","","","","","","","",""
"pit-trial","53","590675","0.0-2.0-11.5-0.5","battery-v0.2","","""event"",""trial"",""time""
""fullscreenenter"",""1"",""7749""
""blur"",""12"",""171092""
""focus"",""12"",""171218""
""blur"",""19"",""371196""
""focus"",""19"",""371789""
""blur"",""19"",""374131""
""focus"",""19"",""375756""
""blur"",""26"",""443971""
""focus"",""26"",""451241""
""blur"",""48"",""532694""
""focus"",""48"",""532910""
""blur"",""48"",""535469""
""focus"",""50"",""541474""
""fullscreenexit"",""52"",""576280""
","""event"",""trial"",""time""
""blur"",""12"",""171092""
""blur"",""19"",""371196""
""blur"",""19"",""374131""
""blur"",""26"",""443971""
""blur"",""48"",""532694""
""blur"",""48"",""535469""
","""event"",""trial"",""time""
""focus"",""12"",""171218""
""focus"",""19"",""371789""
""focus"",""19"",""375756""
""focus"",""26"",""451241""
""focus"",""48"",""532910""
""focus"",""50"",""541474""
","""event"",""trial"",""time""
""fullscreenenter"",""1"",""7749""
","""event"",""trial"",""time""
""fullscreenexit"",""52"",""576280""
","","","1162.800000011921","","","20","1211","1148","&#9761;","elianto","#3366ff99","-1"," ","0","0","[2014.5]","1","0","2","","","","","","","","",""
"pit-trial","54","595545","0.0-2.0-11.5-1.5","battery-v0.2","","""event"",""trial"",""time""
""fullscreenenter"",""1"",""7749""
""blur"",""12"",""171092""
""focus"",""12"",""171218""
""blur"",""19"",""371196""
""focus"",""19"",""371789""
""blur"",""19"",""374131""
""focus"",""19"",""375756""
""blur"",""26"",""443971""
""focus"",""26"",""451241""
""blur"",""48"",""532694""
""focus"",""48"",""532910""
""blur"",""48"",""535469""
""focus"",""50"",""541474""
""fullscreenexit"",""52"",""576280""
","""event"",""trial"",""time""
""blur"",""12"",""171092""
""blur"",""19"",""371196""
""blur"",""19"",""374131""
""blur"",""26"",""443971""
""blur"",""48"",""532694""
""blur"",""48"",""535469""
","""event"",""trial"",""time""
""focus"",""12"",""171218""
""focus"",""19"",""371789""
""focus"",""19"",""375756""
""focus"",""26"",""451241""
""focus"",""48"",""532910""
""focus"",""50"",""541474""
","""event"",""trial"",""time""
""fullscreenenter"",""1"",""7749""
","""event"",""trial"",""time""
""fullscreenexit"",""52"",""576280""
","","","-1","","","20","1211","1148","&#9761;","elianto","#3366ff99","-1","-1","1","+10","[]","0","0","2","","","","","","","","",""
"pit-trial","55","600419","0.0-2.0-11.5-2.5","battery-v0.2","","""event"",""trial"",""time""
""fullscreenenter"",""1"",""7749""
""blur"",""12"",""171092""
""focus"",""12"",""171218""
""blur"",""19"",""371196""
""focus"",""19"",""371789""
""blur"",""19"",""374131""
""focus"",""19"",""375756""
""blur"",""26"",""443971""
""focus"",""26"",""451241""
""blur"",""48"",""532694""
""focus"",""48"",""532910""
""blur"",""48"",""535469""
""focus"",""50"",""541474""
""fullscreenexit"",""52"",""576280""
","""event"",""trial"",""time""
""blur"",""12"",""171092""
""blur"",""19"",""371196""
""blur"",""19"",""374131""
""blur"",""26"",""443971""
""blur"",""48"",""532694""
""blur"",""48"",""535469""
","""event"",""trial"",""time""
""focus"",""12"",""171218""
""focus"",""19"",""371789""
""focus"",""19"",""375756""
""focus"",""26"",""451241""
""focus"",""48"",""532910""
""focus"",""50"",""541474""
","""event"",""trial"",""time""
""fullscreenenter"",""1"",""7749""
","""event"",""trial"",""time""
""fullscreenexit"",""52"",""576280""
","","","-1","","","20","1211","1148","&#9761;","elianto","#3366ff99","-1","-1","1","+10","[]","0","0","2","","","","","","","","",""
"pit-trial","56","604213","0.0-2.0-11.5-3.5","battery-v0.2","","""event"",""trial"",""time""
""fullscreenenter"",""1"",""7749""
""blur"",""12"",""171092""
""focus"",""12"",""171218""
""blur"",""19"",""371196""
""focus"",""19"",""371789""
""blur"",""19"",""374131""
""focus"",""19"",""375756""
""blur"",""26"",""443971""
""focus"",""26"",""451241""
""blur"",""48"",""532694""
""focus"",""48"",""532910""
""blur"",""48"",""535469""
""focus"",""50"",""541474""
""fullscreenexit"",""52"",""576280""
","""event"",""trial"",""time""
""blur"",""12"",""171092""
""blur"",""19"",""371196""
""blur"",""19"",""374131""
""blur"",""26"",""443971""
""blur"",""48"",""532694""
""blur"",""48"",""535469""
","""event"",""trial"",""time""
""focus"",""12"",""171218""
""focus"",""19"",""371789""
""focus"",""19"",""375756""
""focus"",""26"",""451241""
""focus"",""48"",""532910""
""focus"",""50"",""541474""
","""event"",""trial"",""time""
""fullscreenenter"",""1"",""7749""
","""event"",""trial"",""time""
""fullscreenexit"",""52"",""576280""
","","","938.8000000119209","","","20","1211","1148","&#9761;","elianto","#3366ff99","-1"," ","0","+10","[1789.9000000357628]","1","0","2","","","","","","","","",""
"pit-trial","57","609069","0.0-2.0-11.5-4.5","battery-v0.2","","""event"",""trial"",""time""
""fullscreenenter"",""1"",""7749""
""blur"",""12"",""171092""
""focus"",""12"",""171218""
""blur"",""19"",""371196""
""focus"",""19"",""371789""
""blur"",""19"",""374131""
""focus"",""19"",""375756""
""blur"",""26"",""443971""
""focus"",""26"",""451241""
""blur"",""48"",""532694""
""focus"",""48"",""532910""
""blur"",""48"",""535469""
""focus"",""50"",""541474""
""fullscreenexit"",""52"",""576280""
","""event"",""trial"",""time""
""blur"",""12"",""171092""
""blur"",""19"",""371196""
""blur"",""19"",""374131""
""blur"",""26"",""443971""
""blur"",""48"",""532694""
""blur"",""48"",""535469""
","""event"",""trial"",""time""
""focus"",""12"",""171218""
""focus"",""19"",""371789""
""focus"",""19"",""375756""
""focus"",""26"",""451241""
""focus"",""48"",""532910""
""focus"",""50"",""541474""
","""event"",""trial"",""time""
""fullscreenenter"",""1"",""7749""
","""event"",""trial"",""time""
""fullscreenexit"",""52"",""576280""
","","","-1","","","20","1211","1148","&#9761;","elianto","#3366ff99","-1","-1","1","+10","[]","0","0","2","","","","","","","","",""
"pit-trial","58","613927","0.0-2.0-11.6-0.6","battery-v0.2","","""event"",""trial"",""time""
""fullscreenenter"",""1"",""7749""
""blur"",""12"",""171092""
""focus"",""12"",""171218""
""blur"",""19"",""371196""
""focus"",""19"",""371789""
""blur"",""19"",""374131""
""focus"",""19"",""375756""
""blur"",""26"",""443971""
""focus"",""26"",""451241""
""blur"",""48"",""532694""
""focus"",""48"",""532910""
""blur"",""48"",""535469""
""focus"",""50"",""541474""
""fullscreenexit"",""52"",""576280""
","""event"",""trial"",""time""
""blur"",""12"",""171092""
""blur"",""19"",""371196""
""blur"",""19"",""374131""
""blur"",""26"",""443971""
""blur"",""48"",""532694""
""blur"",""48"",""535469""
","""event"",""trial"",""time""
""focus"",""12"",""171218""
""focus"",""19"",""371789""
""focus"",""19"",""375756""
""focus"",""26"",""451241""
""focus"",""48"",""532910""
""focus"",""50"",""541474""
","""event"",""trial"",""time""
""fullscreenenter"",""1"",""7749""
","""event"",""trial"",""time""
""fullscreenexit"",""52"",""576280""
","","","-1","","","20","1211","1148","&#9761;","elianto","#3366ff99","-1","-1","1","+10","[]","0","0","2","","","","","","","","",""
"pit-trial","59","618786","0.0-2.0-11.6-1.6","battery-v0.2","","""event"",""trial"",""time""
""fullscreenenter"",""1"",""7749""
""blur"",""12"",""171092""
""focus"",""12"",""171218""
""blur"",""19"",""371196""
""focus"",""19"",""371789""
""blur"",""19"",""374131""
""focus"",""19"",""375756""
""blur"",""26"",""443971""
""focus"",""26"",""451241""
""blur"",""48"",""532694""
""focus"",""48"",""532910""
""blur"",""48"",""535469""
""focus"",""50"",""541474""
""fullscreenexit"",""52"",""576280""
","""event"",""trial"",""time""
""blur"",""12"",""171092""
""blur"",""19"",""371196""
""blur"",""19"",""374131""
""blur"",""26"",""443971""
""blur"",""48"",""532694""
""blur"",""48"",""535469""
","""event"",""trial"",""time""
""focus"",""12"",""171218""
""focus"",""19"",""371789""
""focus"",""19"",""375756""
""focus"",""26"",""451241""
""focus"",""48"",""532910""
""focus"",""50"",""541474""
","""event"",""trial"",""time""
""fullscreenenter"",""1"",""7749""
","""event"",""trial"",""time""
""fullscreenexit"",""52"",""576280""
","","","-1","","","20","1211","1148","&#9761;","elianto","#3366ff99","-1","-1","1","+10","[]","0","0","2","","","","","","","","",""
"pit-trial","60","623643","0.0-2.0-11.6-2.6","battery-v0.2","","""event"",""trial"",""time""
""fullscreenenter"",""1"",""7749""
""blur"",""12"",""171092""
""focus"",""12"",""171218""
""blur"",""19"",""371196""
""focus"",""19"",""371789""
""blur"",""19"",""374131""
""focus"",""19"",""375756""
""blur"",""26"",""443971""
""focus"",""26"",""451241""
""blur"",""48"",""532694""
""focus"",""48"",""532910""
""blur"",""48"",""535469""
""focus"",""50"",""541474""
""fullscreenexit"",""52"",""576280""
","""event"",""trial"",""time""
""blur"",""12"",""171092""
""blur"",""19"",""371196""
""blur"",""19"",""374131""
""blur"",""26"",""443971""
""blur"",""48"",""532694""
""blur"",""48"",""535469""
","""event"",""trial"",""time""
""focus"",""12"",""171218""
""focus"",""19"",""371789""
""focus"",""19"",""375756""
""focus"",""26"",""451241""
""focus"",""48"",""532910""
""focus"",""50"",""541474""
","""event"",""trial"",""time""
""fullscreenenter"",""1"",""7749""
","""event"",""trial"",""time""
""fullscreenexit"",""52"",""576280""
","","","-1","","","20","1211","1148","&#9761;","elianto","#3366ff99","-1","-1","1","+10","[]","0","0","2","","","","","","","","",""
"pit-trial","61","628500","0.0-2.0-11.6-3.6","battery-v0.2","","""event"",""trial"",""time""
""fullscreenenter"",""1"",""7749""
""blur"",""12"",""171092""
""focus"",""12"",""171218""
""blur"",""19"",""371196""
""focus"",""19"",""371789""
""blur"",""19"",""374131""
""focus"",""19"",""375756""
""blur"",""26"",""443971""
""focus"",""26"",""451241""
""blur"",""48"",""532694""
""focus"",""48"",""532910""
""blur"",""48"",""535469""
""focus"",""50"",""541474""
""fullscreenexit"",""52"",""576280""
","""event"",""trial"",""time""
""blur"",""12"",""171092""
""blur"",""19"",""371196""
""blur"",""19"",""374131""
""blur"",""26"",""443971""
""blur"",""48"",""532694""
""blur"",""48"",""535469""
","""event"",""trial"",""time""
""focus"",""12"",""171218""
""focus"",""19"",""371789""
""focus"",""19"",""375756""
""focus"",""26"",""451241""
""focus"",""48"",""532910""
""focus"",""50"",""541474""
","""event"",""trial"",""time""
""fullscreenenter"",""1"",""7749""
","""event"",""trial"",""time""
""fullscreenexit"",""52"",""576280""
","","","-1","","","20","1211","1148","&#9761;","elianto","#3366ff99","-1","-1","1","0","[]","0","0","2","","","","","","","","",""
"pit-trial","62","633359","0.0-2.0-11.6-4.6","battery-v0.2","","""event"",""trial"",""time""
""fullscreenenter"",""1"",""7749""
""blur"",""12"",""171092""
""focus"",""12"",""171218""
""blur"",""19"",""371196""
""focus"",""19"",""371789""
""blur"",""19"",""374131""
""focus"",""19"",""375756""
""blur"",""26"",""443971""
""focus"",""26"",""451241""
""blur"",""48"",""532694""
""focus"",""48"",""532910""
""blur"",""48"",""535469""
""focus"",""50"",""541474""
""fullscreenexit"",""52"",""576280""
","""event"",""trial"",""time""
""blur"",""12"",""171092""
""blur"",""19"",""371196""
""blur"",""19"",""374131""
""blur"",""26"",""443971""
""blur"",""48"",""532694""
""blur"",""48"",""535469""
","""event"",""trial"",""time""
""focus"",""12"",""171218""
""focus"",""19"",""371789""
""focus"",""19"",""375756""
""focus"",""26"",""451241""
""focus"",""48"",""532910""
""focus"",""50"",""541474""
","""event"",""trial"",""time""
""fullscreenenter"",""1"",""7749""
","""event"",""trial"",""time""
""fullscreenexit"",""52"",""576280""
","","","-1","","","20","1211","1148","&#9761;","elianto","#3366ff99","-1","-1","1","+10","[]","0","0","2","","","","","","","","",""
"call-function","63","633365","0.0-2.0-12.0","battery-v0.2","","""event"",""trial"",""time""
""fullscreenenter"",""1"",""7749""
""blur"",""12"",""171092""
""focus"",""12"",""171218""
""blur"",""19"",""371196""
""focus"",""19"",""371789""
""blur"",""19"",""374131""
""focus"",""19"",""375756""
""blur"",""26"",""443971""
""focus"",""26"",""451241""
""blur"",""48"",""532694""
""focus"",""48"",""532910""
""blur"",""48"",""535469""
""focus"",""50"",""541474""
""fullscreenexit"",""52"",""576280""
","""event"",""trial"",""time""
""blur"",""12"",""171092""
""blur"",""19"",""371196""
""blur"",""19"",""374131""
""blur"",""26"",""443971""
""blur"",""48"",""532694""
""blur"",""48"",""535469""
","""event"",""trial"",""time""
""focus"",""12"",""171218""
""focus"",""19"",""371789""
""focus"",""19"",""375756""
""focus"",""26"",""451241""
""focus"",""48"",""532910""
""focus"",""50"",""541474""
","""event"",""trial"",""time""
""fullscreenenter"",""1"",""7749""
","""event"",""trial"",""time""
""fullscreenexit"",""52"",""576280""
","","","","","","","","","","","","","","","","","","","","","","","","","","","",""
"pit-instructions","64","694443","0.0-2.0-13.0","battery-v0.2","","""event"",""trial"",""time""
""fullscreenenter"",""1"",""7749""
""blur"",""12"",""171092""
""focus"",""12"",""171218""
""blur"",""19"",""371196""
""focus"",""19"",""371789""
""blur"",""19"",""374131""
""focus"",""19"",""375756""
""blur"",""26"",""443971""
""focus"",""26"",""451241""
""blur"",""48"",""532694""
""focus"",""48"",""532910""
""blur"",""48"",""535469""
""focus"",""50"",""541474""
""fullscreenexit"",""52"",""576280""
","""event"",""trial"",""time""
""blur"",""12"",""171092""
""blur"",""19"",""371196""
""blur"",""19"",""374131""
""blur"",""26"",""443971""
""blur"",""48"",""532694""
""blur"",""48"",""535469""
","""event"",""trial"",""time""
""focus"",""12"",""171218""
""focus"",""19"",""371789""
""focus"",""19"",""375756""
""focus"",""26"",""451241""
""focus"",""48"",""532910""
""focus"",""50"",""541474""
","""event"",""trial"",""time""
""fullscreenenter"",""1"",""7749""
","""event"",""trial"",""time""
""fullscreenexit"",""52"",""576280""
","","[{""page_index"":0,""viewing_time"":25014},{""page_index"":1,""viewing_time"":10948.600000023842},{""page_index"":2,""viewing_time"":5099.399999976158},{""page_index"":3,""viewing_time"":12755.900000035763},{""page_index"":4,""viewing_time"":7260.5}]","61078.60000002384","","","","","","","","","","","","","","","","","","","","","","","","",""
"pit-trial","65","699307","0.0-2.0-14.0-0.0","battery-v0.2","","""event"",""trial"",""time""
""fullscreenenter"",""1"",""7749""
""blur"",""12"",""171092""
""focus"",""12"",""171218""
""blur"",""19"",""371196""
""focus"",""19"",""371789""
""blur"",""19"",""374131""
""focus"",""19"",""375756""
""blur"",""26"",""443971""
""focus"",""26"",""451241""
""blur"",""48"",""532694""
""focus"",""48"",""532910""
""blur"",""48"",""535469""
""focus"",""50"",""541474""
""fullscreenexit"",""52"",""576280""
","""event"",""trial"",""time""
""blur"",""12"",""171092""
""blur"",""19"",""371196""
""blur"",""19"",""374131""
""blur"",""26"",""443971""
""blur"",""48"",""532694""
""blur"",""48"",""535469""
","""event"",""trial"",""time""
""focus"",""12"",""171218""
""focus"",""19"",""371789""
""focus"",""19"",""375756""
""focus"",""26"",""451241""
""focus"",""48"",""532910""
""focus"",""50"",""541474""
","""event"",""trial"",""time""
""fullscreenenter"",""1"",""7749""
","""event"",""trial"",""time""
""fullscreenexit"",""52"",""576280""
","","","-1","","","20","1211","1148","&#9826;","elianto","#f73b6a7A","-1","-1","1","0","[]","0","0","3","","","","","","","","",""
"pit-trial","66","704177","0.0-2.0-14.0-1.0","battery-v0.2","","""event"",""trial"",""time""
""fullscreenenter"",""1"",""7749""
""blur"",""12"",""171092""
""focus"",""12"",""171218""
""blur"",""19"",""371196""
""focus"",""19"",""371789""
""blur"",""19"",""374131""
""focus"",""19"",""375756""
""blur"",""26"",""443971""
""focus"",""26"",""451241""
""blur"",""48"",""532694""
""focus"",""48"",""532910""
""blur"",""48"",""535469""
""focus"",""50"",""541474""
""fullscreenexit"",""52"",""576280""
","""event"",""trial"",""time""
""blur"",""12"",""171092""
""blur"",""19"",""371196""
""blur"",""19"",""374131""
""blur"",""26"",""443971""
""blur"",""48"",""532694""
""blur"",""48"",""535469""
","""event"",""trial"",""time""
""focus"",""12"",""171218""
""focus"",""19"",""371789""
""focus"",""19"",""375756""
""focus"",""26"",""451241""
""focus"",""48"",""532910""
""focus"",""50"",""541474""
","""event"",""trial"",""time""
""fullscreenenter"",""1"",""7749""
","""event"",""trial"",""time""
""fullscreenexit"",""52"",""576280""
","","","-1","","","20","1211","1148","&#9826;","elianto","#f73b6a7A","-1","-1","1","0","[]","0","0","3","","","","","","","","",""
"pit-trial","67","709058","0.0-2.0-14.0-2.0","battery-v0.2","","""event"",""trial"",""time""
""fullscreenenter"",""1"",""7749""
""blur"",""12"",""171092""
""focus"",""12"",""171218""
""blur"",""19"",""371196""
""focus"",""19"",""371789""
""blur"",""19"",""374131""
""focus"",""19"",""375756""
""blur"",""26"",""443971""
""focus"",""26"",""451241""
""blur"",""48"",""532694""
""focus"",""48"",""532910""
""blur"",""48"",""535469""
""focus"",""50"",""541474""
""fullscreenexit"",""52"",""576280""
","""event"",""trial"",""time""
""blur"",""12"",""171092""
""blur"",""19"",""371196""
""blur"",""19"",""374131""
""blur"",""26"",""443971""
""blur"",""48"",""532694""
""blur"",""48"",""535469""
","""event"",""trial"",""time""
""focus"",""12"",""171218""
""focus"",""19"",""371789""
""focus"",""19"",""375756""
""focus"",""26"",""451241""
""focus"",""48"",""532910""
""focus"",""50"",""541474""
","""event"",""trial"",""time""
""fullscreenenter"",""1"",""7749""
","""event"",""trial"",""time""
""fullscreenexit"",""52"",""576280""
","","","-1","","","20","1211","1148","&#9826;","elianto","#f73b6a7A","-1","-1","1","0","[]","0","0","3","","","","","","","","",""
"pit-trial","68","713918","0.0-2.0-14.0-3.0","battery-v0.2","","""event"",""trial"",""time""
""fullscreenenter"",""1"",""7749""
""blur"",""12"",""171092""
""focus"",""12"",""171218""
""blur"",""19"",""371196""
""focus"",""19"",""371789""
""blur"",""19"",""374131""
""focus"",""19"",""375756""
""blur"",""26"",""443971""
""focus"",""26"",""451241""
""blur"",""48"",""532694""
""focus"",""48"",""532910""
""blur"",""48"",""535469""
""focus"",""50"",""541474""
""fullscreenexit"",""52"",""576280""
","""event"",""trial"",""time""
""blur"",""12"",""171092""
""blur"",""19"",""371196""
""blur"",""19"",""374131""
""blur"",""26"",""443971""
""blur"",""48"",""532694""
""blur"",""48"",""535469""
","""event"",""trial"",""time""
""focus"",""12"",""171218""
""focus"",""19"",""371789""
""focus"",""19"",""375756""
""focus"",""26"",""451241""
""focus"",""48"",""532910""
""focus"",""50"",""541474""
","""event"",""trial"",""time""
""fullscreenenter"",""1"",""7749""
","""event"",""trial"",""time""
""fullscreenexit"",""52"",""576280""
","","","-1","","","20","1211","1148","&#9826;","elianto","#f73b6a7A","-1","-1","1","-10","[]","0","0","3","","","","","","","","",""
"pit-trial","69","718783","0.0-2.0-14.0-4.0","battery-v0.2","","""event"",""trial"",""time""
""fullscreenenter"",""1"",""7749""
""blur"",""12"",""171092""
""focus"",""12"",""171218""
""blur"",""19"",""371196""
""focus"",""19"",""371789""
""blur"",""19"",""374131""
""focus"",""19"",""375756""
""blur"",""26"",""443971""
""focus"",""26"",""451241""
""blur"",""48"",""532694""
""focus"",""48"",""532910""
""blur"",""48"",""535469""
""focus"",""50"",""541474""
""fullscreenexit"",""52"",""576280""
","""event"",""trial"",""time""
""blur"",""12"",""171092""
""blur"",""19"",""371196""
""blur"",""19"",""374131""
""blur"",""26"",""443971""
""blur"",""48"",""532694""
""blur"",""48"",""535469""
","""event"",""trial"",""time""
""focus"",""12"",""171218""
""focus"",""19"",""371789""
""focus"",""19"",""375756""
""focus"",""26"",""451241""
""focus"",""48"",""532910""
""focus"",""50"",""541474""
","""event"",""trial"",""time""
""fullscreenenter"",""1"",""7749""
","""event"",""trial"",""time""
""fullscreenexit"",""52"",""576280""
","","","-1","","","20","1211","1148","&#9826;","elianto","#f73b6a7A","-1","-1","1","0","[]","0","0","3","","","","","","","","",""
"call-function","70","718790","0.0-2.0-15.0","battery-v0.2","","""event"",""trial"",""time""
""fullscreenenter"",""1"",""7749""
""blur"",""12"",""171092""
""focus"",""12"",""171218""
""blur"",""19"",""371196""
""focus"",""19"",""371789""
""blur"",""19"",""374131""
""focus"",""19"",""375756""
""blur"",""26"",""443971""
""focus"",""26"",""451241""
""blur"",""48"",""532694""
""focus"",""48"",""532910""
""blur"",""48"",""535469""
""focus"",""50"",""541474""
""fullscreenexit"",""52"",""576280""
","""event"",""trial"",""time""
""blur"",""12"",""171092""
""blur"",""19"",""371196""
""blur"",""19"",""374131""
""blur"",""26"",""443971""
""blur"",""48"",""532694""
""blur"",""48"",""535469""
","""event"",""trial"",""time""
""focus"",""12"",""171218""
""focus"",""19"",""371789""
""focus"",""19"",""375756""
""focus"",""26"",""451241""
""focus"",""48"",""532910""
""focus"",""50"",""541474""
","""event"",""trial"",""time""
""fullscreenenter"",""1"",""7749""
","""event"",""trial"",""time""
""fullscreenexit"",""52"",""576280""
","","","","","","","","","","","","","","","","","","","","","","","","","","","",""
"pit-instructions","71","748013","0.0-2.0-16.0","battery-v0.2","","""event"",""trial"",""time""
""fullscreenenter"",""1"",""7749""
""blur"",""12"",""171092""
""focus"",""12"",""171218""
""blur"",""19"",""371196""
""focus"",""19"",""371789""
""blur"",""19"",""374131""
""focus"",""19"",""375756""
""blur"",""26"",""443971""
""focus"",""26"",""451241""
""blur"",""48"",""532694""
""focus"",""48"",""532910""
""blur"",""48"",""535469""
""focus"",""50"",""541474""
""fullscreenexit"",""52"",""576280""
","""event"",""trial"",""time""
""blur"",""12"",""171092""
""blur"",""19"",""371196""
""blur"",""19"",""374131""
""blur"",""26"",""443971""
""blur"",""48"",""532694""
""blur"",""48"",""535469""
","""event"",""trial"",""time""
""focus"",""12"",""171218""
""focus"",""19"",""371789""
""focus"",""19"",""375756""
""focus"",""26"",""451241""
""focus"",""48"",""532910""
""focus"",""50"",""541474""
","""event"",""trial"",""time""
""fullscreenenter"",""1"",""7749""
","""event"",""trial"",""time""
""fullscreenexit"",""52"",""576280""
","","[{""page_index"":0,""viewing_time"":7823},{""page_index"":1,""viewing_time"":9432.199999988079},{""page_index"":2,""viewing_time"":5761.5},{""page_index"":3,""viewing_time"":6205.100000023842}]","29222.100000023842","","","","","","","","","","","","","","","","","","","","","","","","",""
"pit-trial","72","752882","0.0-2.0-17.0-0.0","battery-v0.2","","""event"",""trial"",""time""
""fullscreenenter"",""1"",""7749""
""blur"",""12"",""171092""
""focus"",""12"",""171218""
""blur"",""19"",""371196""
""focus"",""19"",""371789""
""blur"",""19"",""374131""
""focus"",""19"",""375756""
""blur"",""26"",""443971""
""focus"",""26"",""451241""
""blur"",""48"",""532694""
""focus"",""48"",""532910""
""blur"",""48"",""535469""
""focus"",""50"",""541474""
""fullscreenexit"",""52"",""576280""
","""event"",""trial"",""time""
""blur"",""12"",""171092""
""blur"",""19"",""371196""
""blur"",""19"",""374131""
""blur"",""26"",""443971""
""blur"",""48"",""532694""
""blur"",""48"",""535469""
","""event"",""trial"",""time""
""focus"",""12"",""171218""
""focus"",""19"",""371789""
""focus"",""19"",""375756""
""focus"",""26"",""451241""
""focus"",""48"",""532910""
""focus"",""50"",""541474""
","""event"",""trial"",""time""
""fullscreenenter"",""1"",""7749""
","""event"",""trial"",""time""
""fullscreenexit"",""52"",""576280""
","","","-1","","","20","1211","1148","&#9789;","elianto","#f73b6a7A"," ","-1","0","-10","[]","0","0","4","","","","","","","","",""
"pit-trial","73","756118","0.0-2.0-17.0-1.0","battery-v0.2","","""event"",""trial"",""time""
""fullscreenenter"",""1"",""7749""
""blur"",""12"",""171092""
""focus"",""12"",""171218""
""blur"",""19"",""371196""
""focus"",""19"",""371789""
""blur"",""19"",""374131""
""focus"",""19"",""375756""
""blur"",""26"",""443971""
""focus"",""26"",""451241""
""blur"",""48"",""532694""
""focus"",""48"",""532910""
""blur"",""48"",""535469""
""focus"",""50"",""541474""
""fullscreenexit"",""52"",""576280""
","""event"",""trial"",""time""
""blur"",""12"",""171092""
""blur"",""19"",""371196""
""blur"",""19"",""374131""
""blur"",""26"",""443971""
""blur"",""48"",""532694""
""blur"",""48"",""535469""
","""event"",""trial"",""time""
""focus"",""12"",""171218""
""focus"",""19"",""371789""
""focus"",""19"",""375756""
""focus"",""26"",""451241""
""focus"",""48"",""532910""
""focus"",""50"",""541474""
","""event"",""trial"",""time""
""fullscreenenter"",""1"",""7749""
","""event"",""trial"",""time""
""fullscreenexit"",""52"",""576280""
","","","379.60000002384186","","","20","1211","1148","&#9789;","elianto","#f73b6a7A"," "," ","1","0","[1229.800000011921]","1","0","4","","","","","","","","",""
"pit-trial","74","759558","0.0-2.0-17.0-2.0","battery-v0.2","","""event"",""trial"",""time""
""fullscreenenter"",""1"",""7749""
""blur"",""12"",""171092""
""focus"",""12"",""171218""
""blur"",""19"",""371196""
""focus"",""19"",""371789""
""blur"",""19"",""374131""
""focus"",""19"",""375756""
""blur"",""26"",""443971""
""focus"",""26"",""451241""
""blur"",""48"",""532694""
""focus"",""48"",""532910""
""blur"",""48"",""535469""
""focus"",""50"",""541474""
""fullscreenexit"",""52"",""576280""
","""event"",""trial"",""time""
""blur"",""12"",""171092""
""blur"",""19"",""371196""
""blur"",""19"",""374131""
""blur"",""26"",""443971""
""blur"",""48"",""532694""
""blur"",""48"",""535469""
","""event"",""trial"",""time""
""focus"",""12"",""171218""
""focus"",""19"",""371789""
""focus"",""19"",""375756""
""focus"",""26"",""451241""
""focus"",""48"",""532910""
""focus"",""50"",""541474""
","""event"",""trial"",""time""
""fullscreenenter"",""1"",""7749""
","""event"",""trial"",""time""
""fullscreenexit"",""52"",""576280""
","","","574.3000000119209","","","20","1211","1148","&#9789;","elianto","#f73b6a7A"," "," ","1","0","[1424.5999999642372]","1","0","4","","","","","","","","",""
"pit-trial","75","762872","0.0-2.0-17.0-3.0","battery-v0.2","","""event"",""trial"",""time""
""fullscreenenter"",""1"",""7749""
""blur"",""12"",""171092""
""focus"",""12"",""171218""
""blur"",""19"",""371196""
""focus"",""19"",""371789""
""blur"",""19"",""374131""
""focus"",""19"",""375756""
""blur"",""26"",""443971""
""focus"",""26"",""451241""
""blur"",""48"",""532694""
""focus"",""48"",""532910""
""blur"",""48"",""535469""
""focus"",""50"",""541474""
""fullscreenexit"",""52"",""576280""
","""event"",""trial"",""time""
""blur"",""12"",""171092""
""blur"",""19"",""371196""
""blur"",""19"",""374131""
""blur"",""26"",""443971""
""blur"",""48"",""532694""
""blur"",""48"",""535469""
","""event"",""trial"",""time""
""focus"",""12"",""171218""
""focus"",""19"",""371789""
""focus"",""19"",""375756""
""focus"",""26"",""451241""
""focus"",""48"",""532910""
""focus"",""50"",""541474""
","""event"",""trial"",""time""
""fullscreenenter"",""1"",""7749""
","""event"",""trial"",""time""
""fullscreenexit"",""52"",""576280""
","","","445.60000002384186","","","20","1211","1148","&#9789;","elianto","#f73b6a7A"," "," ","1","-10","[1295.9000000357628]","1","0","4","","","","","","","","",""
"pit-trial","76","766181","0.0-2.0-17.0-4.0","battery-v0.2","","""event"",""trial"",""time""
""fullscreenenter"",""1"",""7749""
""blur"",""12"",""171092""
""focus"",""12"",""171218""
""blur"",""19"",""371196""
""focus"",""19"",""371789""
""blur"",""19"",""374131""
""focus"",""19"",""375756""
""blur"",""26"",""443971""
""focus"",""26"",""451241""
""blur"",""48"",""532694""
""focus"",""48"",""532910""
""blur"",""48"",""535469""
""focus"",""50"",""541474""
""fullscreenexit"",""52"",""576280""
","""event"",""trial"",""time""
""blur"",""12"",""171092""
""blur"",""19"",""371196""
""blur"",""19"",""374131""
""blur"",""26"",""443971""
""blur"",""48"",""532694""
""blur"",""48"",""535469""
","""event"",""trial"",""time""
""focus"",""12"",""171218""
""focus"",""19"",""371789""
""focus"",""19"",""375756""
""focus"",""26"",""451241""
""focus"",""48"",""532910""
""focus"",""50"",""541474""
","""event"",""trial"",""time""
""fullscreenenter"",""1"",""7749""
","""event"",""trial"",""time""
""fullscreenexit"",""52"",""576280""
","","","438","","","20","1211","1148","&#9789;","elianto","#f73b6a7A"," "," ","1","0","[1288.5]","1","0","4","","","","","","","","",""
"call-function","77","766187","0.0-2.0-18.0","battery-v0.2","","""event"",""trial"",""time""
""fullscreenenter"",""1"",""7749""
""blur"",""12"",""171092""
""focus"",""12"",""171218""
""blur"",""19"",""371196""
""focus"",""19"",""371789""
""blur"",""19"",""374131""
""focus"",""19"",""375756""
""blur"",""26"",""443971""
""focus"",""26"",""451241""
""blur"",""48"",""532694""
""focus"",""48"",""532910""
""blur"",""48"",""535469""
""focus"",""50"",""541474""
""fullscreenexit"",""52"",""576280""
""blur"",""78"",""782276""
""focus"",""78"",""790555""
""blur"",""78"",""792090""
""focus"",""78"",""792231""
","""event"",""trial"",""time""
""blur"",""12"",""171092""
""blur"",""19"",""371196""
""blur"",""19"",""374131""
""blur"",""26"",""443971""
""blur"",""48"",""532694""
""blur"",""48"",""535469""
""blur"",""78"",""782276""
""blur"",""78"",""792090""
","""event"",""trial"",""time""
""focus"",""12"",""171218""
""focus"",""19"",""371789""
""focus"",""19"",""375756""
""focus"",""26"",""451241""
""focus"",""48"",""532910""
""focus"",""50"",""541474""
""focus"",""78"",""790555""
""focus"",""78"",""792231""
","""event"",""trial"",""time""
""fullscreenenter"",""1"",""7749""
","""event"",""trial"",""time""
""fullscreenexit"",""52"",""576280""
","","","","","","","","","","","","","","","","","","","","","","","","","","","",""
"pit-instructions","78","852327","0.0-2.0-19.0","battery-v0.2","","""event"",""trial"",""time""
""fullscreenenter"",""1"",""7749""
""blur"",""12"",""171092""
""focus"",""12"",""171218""
""blur"",""19"",""371196""
""focus"",""19"",""371789""
""blur"",""19"",""374131""
""focus"",""19"",""375756""
""blur"",""26"",""443971""
""focus"",""26"",""451241""
""blur"",""48"",""532694""
""focus"",""48"",""532910""
""blur"",""48"",""535469""
""focus"",""50"",""541474""
""fullscreenexit"",""52"",""576280""
""blur"",""78"",""782276""
""focus"",""78"",""790555""
""blur"",""78"",""792090""
""focus"",""78"",""792231""
","""event"",""trial"",""time""
""blur"",""12"",""171092""
""blur"",""19"",""371196""
""blur"",""19"",""374131""
""blur"",""26"",""443971""
""blur"",""48"",""532694""
""blur"",""48"",""535469""
""blur"",""78"",""782276""
""blur"",""78"",""792090""
","""event"",""trial"",""time""
""focus"",""12"",""171218""
""focus"",""19"",""371789""
""focus"",""19"",""375756""
""focus"",""26"",""451241""
""focus"",""48"",""532910""
""focus"",""50"",""541474""
""focus"",""78"",""790555""
""focus"",""78"",""792231""
","""event"",""trial"",""time""
""fullscreenenter"",""1"",""7749""
","""event"",""trial"",""time""
""fullscreenexit"",""52"",""576280""
","","[{""page_index"":0,""viewing_time"":8018.700000047684},{""page_index"":1,""viewing_time"":16459.899999976158},{""page_index"":2,""viewing_time"":8857.5},{""page_index"":3,""viewing_time"":8174.600000023842},{""page_index"":4,""viewing_time"":9803.299999952316},{""page_index"":5,""viewing_time"":9602},{""page_index"":6,""viewing_time"":11296.5},{""page_index"":7,""viewing_time"":8295.800000011921},{""page_index"":8,""viewing_time"":5632}]","86140.5","","","","","","","","","","","","","","","","","","","","","","","","",""
"pit-comprehension","79","857280","0.0-2.0-20.0-0.0","battery-v0.2","","""event"",""trial"",""time""
""fullscreenenter"",""1"",""7749""
""blur"",""12"",""171092""
""focus"",""12"",""171218""
""blur"",""19"",""371196""
""focus"",""19"",""371789""
""blur"",""19"",""374131""
""focus"",""19"",""375756""
""blur"",""26"",""443971""
""focus"",""26"",""451241""
""blur"",""48"",""532694""
""focus"",""48"",""532910""
""blur"",""48"",""535469""
""focus"",""50"",""541474""
""fullscreenexit"",""52"",""576280""
""blur"",""78"",""782276""
""focus"",""78"",""790555""
""blur"",""78"",""792090""
""focus"",""78"",""792231""
","""event"",""trial"",""time""
""blur"",""12"",""171092""
""blur"",""19"",""371196""
""blur"",""19"",""374131""
""blur"",""26"",""443971""
""blur"",""48"",""532694""
""blur"",""48"",""535469""
""blur"",""78"",""782276""
""blur"",""78"",""792090""
","""event"",""trial"",""time""
""focus"",""12"",""171218""
""focus"",""19"",""371789""
""focus"",""19"",""375756""
""focus"",""26"",""451241""
""focus"",""48"",""532910""
""focus"",""50"",""541474""
""focus"",""78"",""790555""
""focus"",""78"",""792231""
","""event"",""trial"",""time""
""fullscreenenter"",""1"",""7749""
","""event"",""trial"",""time""
""fullscreenexit"",""52"",""576280""
","","","4948","[""SPACE""]","0","20","1211","1148","","","","","","","","","","","","","","","","","","","",""
"pit-instructions","80","861331","0.0-2.0-20.0-1.0","battery-v0.2","","""event"",""trial"",""time""
""fullscreenenter"",""1"",""7749""
""blur"",""12"",""171092""
""focus"",""12"",""171218""
""blur"",""19"",""371196""
""focus"",""19"",""371789""
""blur"",""19"",""374131""
""focus"",""19"",""375756""
""blur"",""26"",""443971""
""focus"",""26"",""451241""
""blur"",""48"",""532694""
""focus"",""48"",""532910""
""blur"",""48"",""535469""
""focus"",""50"",""541474""
""fullscreenexit"",""52"",""576280""
""blur"",""78"",""782276""
""focus"",""78"",""790555""
""blur"",""78"",""792090""
""focus"",""78"",""792231""
","""event"",""trial"",""time""
""blur"",""12"",""171092""
""blur"",""19"",""371196""
""blur"",""19"",""374131""
""blur"",""26"",""443971""
""blur"",""48"",""532694""
""blur"",""48"",""535469""
""blur"",""78"",""782276""
""blur"",""78"",""792090""
","""event"",""trial"",""time""
""focus"",""12"",""171218""
""focus"",""19"",""371789""
""focus"",""19"",""375756""
""focus"",""26"",""451241""
""focus"",""48"",""532910""
""focus"",""50"",""541474""
""focus"",""78"",""790555""
""focus"",""78"",""792231""
","""event"",""trial"",""time""
""fullscreenenter"",""1"",""7749""
","""event"",""trial"",""time""
""fullscreenexit"",""52"",""576280""
","","[{""page_index"":0,""viewing_time"":4024.5}]","4024.800000011921","","","","","","","","","","","","","","","","","","","","","","","","",""
"pit-comprehension","81","865918","0.0-2.0-21.0-0.0","battery-v0.2","","""event"",""trial"",""time""
""fullscreenenter"",""1"",""7749""
""blur"",""12"",""171092""
""focus"",""12"",""171218""
""blur"",""19"",""371196""
""focus"",""19"",""371789""
""blur"",""19"",""374131""
""focus"",""19"",""375756""
""blur"",""26"",""443971""
""focus"",""26"",""451241""
""blur"",""48"",""532694""
""focus"",""48"",""532910""
""blur"",""48"",""535469""
""focus"",""50"",""541474""
""fullscreenexit"",""52"",""576280""
""blur"",""78"",""782276""
""focus"",""78"",""790555""
""blur"",""78"",""792090""
""focus"",""78"",""792231""
","""event"",""trial"",""time""
""blur"",""12"",""171092""
""blur"",""19"",""371196""
""blur"",""19"",""374131""
""blur"",""26"",""443971""
""blur"",""48"",""532694""
""blur"",""48"",""535469""
""blur"",""78"",""782276""
""blur"",""78"",""792090""
","""event"",""trial"",""time""
""focus"",""12"",""171218""
""focus"",""19"",""371789""
""focus"",""19"",""375756""
""focus"",""26"",""451241""
""focus"",""48"",""532910""
""focus"",""50"",""541474""
""focus"",""78"",""790555""
""focus"",""78"",""792231""
","""event"",""trial"",""time""
""fullscreenenter"",""1"",""7749""
","""event"",""trial"",""time""
""fullscreenexit"",""52"",""576280""
","","","4582.300000011921","[""10""]","0","20","1211","1148","","","","","","","","","","","","","","","","","","","",""
"pit-instructions","82","873915","0.0-2.0-21.0-1.0","battery-v0.2","","""event"",""trial"",""time""
""fullscreenenter"",""1"",""7749""
""blur"",""12"",""171092""
""focus"",""12"",""171218""
""blur"",""19"",""371196""
""focus"",""19"",""371789""
""blur"",""19"",""374131""
""focus"",""19"",""375756""
""blur"",""26"",""443971""
""focus"",""26"",""451241""
""blur"",""48"",""532694""
""focus"",""48"",""532910""
""blur"",""48"",""535469""
""focus"",""50"",""541474""
""fullscreenexit"",""52"",""576280""
""blur"",""78"",""782276""
""focus"",""78"",""790555""
""blur"",""78"",""792090""
""focus"",""78"",""792231""
","""event"",""trial"",""time""
""blur"",""12"",""171092""
""blur"",""19"",""371196""
""blur"",""19"",""374131""
""blur"",""26"",""443971""
""blur"",""48"",""532694""
""blur"",""48"",""535469""
""blur"",""78"",""782276""
""blur"",""78"",""792090""
","""event"",""trial"",""time""
""focus"",""12"",""171218""
""focus"",""19"",""371789""
""focus"",""19"",""375756""
""focus"",""26"",""451241""
""focus"",""48"",""532910""
""focus"",""50"",""541474""
""focus"",""78"",""790555""
""focus"",""78"",""792231""
","""event"",""trial"",""time""
""fullscreenenter"",""1"",""7749""
","""event"",""trial"",""time""
""fullscreenexit"",""52"",""576280""
","","[{""page_index"":0,""viewing_time"":7970.5}]","7970.800000011921","","","","","","","","","","","","","","","","","","","","","","","","",""
"pit-comprehension","83","880534","0.0-2.0-22.0-0.0","battery-v0.2","","""event"",""trial"",""time""
""fullscreenenter"",""1"",""7749""
""blur"",""12"",""171092""
""focus"",""12"",""171218""
""blur"",""19"",""371196""
""focus"",""19"",""371789""
""blur"",""19"",""374131""
""focus"",""19"",""375756""
""blur"",""26"",""443971""
""focus"",""26"",""451241""
""blur"",""48"",""532694""
""focus"",""48"",""532910""
""blur"",""48"",""535469""
""focus"",""50"",""541474""
""fullscreenexit"",""52"",""576280""
""blur"",""78"",""782276""
""focus"",""78"",""790555""
""blur"",""78"",""792090""
""focus"",""78"",""792231""
","""event"",""trial"",""time""
""blur"",""12"",""171092""
""blur"",""19"",""371196""
""blur"",""19"",""374131""
""blur"",""26"",""443971""
""blur"",""48"",""532694""
""blur"",""48"",""535469""
""blur"",""78"",""782276""
""blur"",""78"",""792090""
","""event"",""trial"",""time""
""focus"",""12"",""171218""
""focus"",""19"",""371789""
""focus"",""19"",""375756""
""focus"",""26"",""451241""
""focus"",""48"",""532910""
""focus"",""50"",""541474""
""focus"",""78"",""790555""
""focus"",""78"",""792231""
","""event"",""trial"",""time""
""fullscreenenter"",""1"",""7749""
","""event"",""trial"",""time""
""fullscreenexit"",""52"",""576280""
","","","6615.199999988079","[""0""]","0","20","1211","1148","","","","","","","","","","","","","","","","","","","",""
"pit-instructions","84","886067","0.0-2.0-22.0-1.0","battery-v0.2","","""event"",""trial"",""time""
""fullscreenenter"",""1"",""7749""
""blur"",""12"",""171092""
""focus"",""12"",""171218""
""blur"",""19"",""371196""
""focus"",""19"",""371789""
""blur"",""19"",""374131""
""focus"",""19"",""375756""
""blur"",""26"",""443971""
""focus"",""26"",""451241""
""blur"",""48"",""532694""
""focus"",""48"",""532910""
""blur"",""48"",""535469""
""focus"",""50"",""541474""
""fullscreenexit"",""52"",""576280""
""blur"",""78"",""782276""
""focus"",""78"",""790555""
""blur"",""78"",""792090""
""focus"",""78"",""792231""
","""event"",""trial"",""time""
""blur"",""12"",""171092""
""blur"",""19"",""371196""
""blur"",""19"",""374131""
""blur"",""26"",""443971""
""blur"",""48"",""532694""
""blur"",""48"",""535469""
""blur"",""78"",""782276""
""blur"",""78"",""792090""
","""event"",""trial"",""time""
""focus"",""12"",""171218""
""focus"",""19"",""371789""
""focus"",""19"",""375756""
""focus"",""26"",""451241""
""focus"",""48"",""532910""
""focus"",""50"",""541474""
""focus"",""78"",""790555""
""focus"",""78"",""792231""
","""event"",""trial"",""time""
""fullscreenenter"",""1"",""7749""
","""event"",""trial"",""time""
""fullscreenexit"",""52"",""576280""
","","[{""page_index"":0,""viewing_time"":5507.599999964237}]","5507.800000011921","","","","","","","","","","","","","","","","","","","","","","","","",""
"pit-comprehension","85","894673","0.0-2.0-23.0-0.0","battery-v0.2","","""event"",""trial"",""time""
""fullscreenenter"",""1"",""7749""
""blur"",""12"",""171092""
""focus"",""12"",""171218""
""blur"",""19"",""371196""
""focus"",""19"",""371789""
""blur"",""19"",""374131""
""focus"",""19"",""375756""
""blur"",""26"",""443971""
""focus"",""26"",""451241""
""blur"",""48"",""532694""
""focus"",""48"",""532910""
""blur"",""48"",""535469""
""focus"",""50"",""541474""
""fullscreenexit"",""52"",""576280""
""blur"",""78"",""782276""
""focus"",""78"",""790555""
""blur"",""78"",""792090""
""focus"",""78"",""792231""
","""event"",""trial"",""time""
""blur"",""12"",""171092""
""blur"",""19"",""371196""
""blur"",""19"",""374131""
""blur"",""26"",""443971""
""blur"",""48"",""532694""
""blur"",""48"",""535469""
""blur"",""78"",""782276""
""blur"",""78"",""792090""
","""event"",""trial"",""time""
""focus"",""12"",""171218""
""focus"",""19"",""371789""
""focus"",""19"",""375756""
""focus"",""26"",""451241""
""focus"",""48"",""532910""
""focus"",""50"",""541474""
""focus"",""78"",""790555""
""focus"",""78"",""792231""
","""event"",""trial"",""time""
""fullscreenenter"",""1"",""7749""
","""event"",""trial"",""time""
""fullscreenexit"",""52"",""576280""
","","","8602.400000035763","[""True""]","0","20","1211","1148","","","","","","","","","","","","","","","","","","","",""
"pit-instructions","86","901461","0.0-2.0-23.0-1.0","battery-v0.2","","""event"",""trial"",""time""
""fullscreenenter"",""1"",""7749""
""blur"",""12"",""171092""
""focus"",""12"",""171218""
""blur"",""19"",""371196""
""focus"",""19"",""371789""
""blur"",""19"",""374131""
""focus"",""19"",""375756""
""blur"",""26"",""443971""
""focus"",""26"",""451241""
""blur"",""48"",""532694""
""focus"",""48"",""532910""
""blur"",""48"",""535469""
""focus"",""50"",""541474""
""fullscreenexit"",""52"",""576280""
""blur"",""78"",""782276""
""focus"",""78"",""790555""
""blur"",""78"",""792090""
""focus"",""78"",""792231""
","""event"",""trial"",""time""
""blur"",""12"",""171092""
""blur"",""19"",""371196""
""blur"",""19"",""374131""
""blur"",""26"",""443971""
""blur"",""48"",""532694""
""blur"",""48"",""535469""
""blur"",""78"",""782276""
""blur"",""78"",""792090""
","""event"",""trial"",""time""
""focus"",""12"",""171218""
""focus"",""19"",""371789""
""focus"",""19"",""375756""
""focus"",""26"",""451241""
""focus"",""48"",""532910""
""focus"",""50"",""541474""
""focus"",""78"",""790555""
""focus"",""78"",""792231""
","""event"",""trial"",""time""
""fullscreenenter"",""1"",""7749""
","""event"",""trial"",""time""
""fullscreenexit"",""52"",""576280""
","","[{""page_index"":0,""viewing_time"":6762.200000047684}]","6762.400000035763","","","","","","","","","","","","","","","","","","","","","","","","",""
"pit-comprehension","87","908896","0.0-2.0-24.0-0.0","battery-v0.2","","""event"",""trial"",""time""
""fullscreenenter"",""1"",""7749""
""blur"",""12"",""171092""
""focus"",""12"",""171218""
""blur"",""19"",""371196""
""focus"",""19"",""371789""
""blur"",""19"",""374131""
""focus"",""19"",""375756""
""blur"",""26"",""443971""
""focus"",""26"",""451241""
""blur"",""48"",""532694""
""focus"",""48"",""532910""
""blur"",""48"",""535469""
""focus"",""50"",""541474""
""fullscreenexit"",""52"",""576280""
""blur"",""78"",""782276""
""focus"",""78"",""790555""
""blur"",""78"",""792090""
""focus"",""78"",""792231""
","""event"",""trial"",""time""
""blur"",""12"",""171092""
""blur"",""19"",""371196""
""blur"",""19"",""374131""
""blur"",""26"",""443971""
""blur"",""48"",""532694""
""blur"",""48"",""535469""
""blur"",""78"",""782276""
""blur"",""78"",""792090""
","""event"",""trial"",""time""
""focus"",""12"",""171218""
""focus"",""19"",""371789""
""focus"",""19"",""375756""
""focus"",""26"",""451241""
""focus"",""48"",""532910""
""focus"",""50"",""541474""
""focus"",""78"",""790555""
""focus"",""78"",""792231""
","""event"",""trial"",""time""
""fullscreenenter"",""1"",""7749""
","""event"",""trial"",""time""
""fullscreenexit"",""52"",""576280""
","","","7431.199999988079","[""True""]","0","20","1211","1148","","","","","","","","","","","","","","","","","","","",""
"pit-instructions","88","913835","0.0-2.0-24.0-1.0","battery-v0.2","","""event"",""trial"",""time""
""fullscreenenter"",""1"",""7749""
""blur"",""12"",""171092""
""focus"",""12"",""171218""
""blur"",""19"",""371196""
""focus"",""19"",""371789""
""blur"",""19"",""374131""
""focus"",""19"",""375756""
""blur"",""26"",""443971""
""focus"",""26"",""451241""
""blur"",""48"",""532694""
""focus"",""48"",""532910""
""blur"",""48"",""535469""
""focus"",""50"",""541474""
""fullscreenexit"",""52"",""576280""
""blur"",""78"",""782276""
""focus"",""78"",""790555""
""blur"",""78"",""792090""
""focus"",""78"",""792231""
","""event"",""trial"",""time""
""blur"",""12"",""171092""
""blur"",""19"",""371196""
""blur"",""19"",""374131""
""blur"",""26"",""443971""
""blur"",""48"",""532694""
""blur"",""48"",""535469""
""blur"",""78"",""782276""
""blur"",""78"",""792090""
","""event"",""trial"",""time""
""focus"",""12"",""171218""
""focus"",""19"",""371789""
""focus"",""19"",""375756""
""focus"",""26"",""451241""
""focus"",""48"",""532910""
""focus"",""50"",""541474""
""focus"",""78"",""790555""
""focus"",""78"",""792231""
","""event"",""trial"",""time""
""fullscreenenter"",""1"",""7749""
","""event"",""trial"",""time""
""fullscreenexit"",""52"",""576280""
","","[{""page_index"":0,""viewing_time"":4911.400000035763}]","4911.600000023842","","","","","","","","","","","","","","","","","","","","","","","","",""
"pit-comprehension","89","920293","0.0-2.0-25.0-0.0","battery-v0.2","","""event"",""trial"",""time""
""fullscreenenter"",""1"",""7749""
""blur"",""12"",""171092""
""focus"",""12"",""171218""
""blur"",""19"",""371196""
""focus"",""19"",""371789""
""blur"",""19"",""374131""
""focus"",""19"",""375756""
""blur"",""26"",""443971""
""focus"",""26"",""451241""
""blur"",""48"",""532694""
""focus"",""48"",""532910""
""blur"",""48"",""535469""
""focus"",""50"",""541474""
""fullscreenexit"",""52"",""576280""
""blur"",""78"",""782276""
""focus"",""78"",""790555""
""blur"",""78"",""792090""
""focus"",""78"",""792231""
","""event"",""trial"",""time""
""blur"",""12"",""171092""
""blur"",""19"",""371196""
""blur"",""19"",""374131""
""blur"",""26"",""443971""
""blur"",""48"",""532694""
""blur"",""48"",""535469""
""blur"",""78"",""782276""
""blur"",""78"",""792090""
","""event"",""trial"",""time""
""focus"",""12"",""171218""
""focus"",""19"",""371789""
""focus"",""19"",""375756""
""focus"",""26"",""451241""
""focus"",""48"",""532910""
""focus"",""50"",""541474""
""focus"",""78"",""790555""
""focus"",""78"",""792231""
","""event"",""trial"",""time""
""fullscreenenter"",""1"",""7749""
","""event"",""trial"",""time""
""fullscreenexit"",""52"",""576280""
","","","6454.699999988079","[""True""]","0","20","1211","1148","","","","","","","","","","","","","","","","","","","",""
"pit-instructions","90","923878","0.0-2.0-25.0-1.0","battery-v0.2","","""event"",""trial"",""time""
""fullscreenenter"",""1"",""7749""
""blur"",""12"",""171092""
""focus"",""12"",""171218""
""blur"",""19"",""371196""
""focus"",""19"",""371789""
""blur"",""19"",""374131""
""focus"",""19"",""375756""
""blur"",""26"",""443971""
""focus"",""26"",""451241""
""blur"",""48"",""532694""
""focus"",""48"",""532910""
""blur"",""48"",""535469""
""focus"",""50"",""541474""
""fullscreenexit"",""52"",""576280""
""blur"",""78"",""782276""
""focus"",""78"",""790555""
""blur"",""78"",""792090""
""focus"",""78"",""792231""
","""event"",""trial"",""time""
""blur"",""12"",""171092""
""blur"",""19"",""371196""
""blur"",""19"",""374131""
""blur"",""26"",""443971""
""blur"",""48"",""532694""
""blur"",""48"",""535469""
""blur"",""78"",""782276""
""blur"",""78"",""792090""
","""event"",""trial"",""time""
""focus"",""12"",""171218""
""focus"",""19"",""371789""
""focus"",""19"",""375756""
""focus"",""26"",""451241""
""focus"",""48"",""532910""
""focus"",""50"",""541474""
""focus"",""78"",""790555""
""focus"",""78"",""792231""
","""event"",""trial"",""time""
""fullscreenenter"",""1"",""7749""
","""event"",""trial"",""time""
""fullscreenexit"",""52"",""576280""
","","[{""page_index"":0,""viewing_time"":3556.800000011921}]","3557.100000023842","","","","","","","","","","","","","","","","","","","","","","","","",""
"pit-comprehension","91","928491","0.0-2.0-26.0-0.0","battery-v0.2","","""event"",""trial"",""time""
""fullscreenenter"",""1"",""7749""
""blur"",""12"",""171092""
""focus"",""12"",""171218""
""blur"",""19"",""371196""
""focus"",""19"",""371789""
""blur"",""19"",""374131""
""focus"",""19"",""375756""
""blur"",""26"",""443971""
""focus"",""26"",""451241""
""blur"",""48"",""532694""
""focus"",""48"",""532910""
""blur"",""48"",""535469""
""focus"",""50"",""541474""
""fullscreenexit"",""52"",""576280""
""blur"",""78"",""782276""
""focus"",""78"",""790555""
""blur"",""78"",""792090""
""focus"",""78"",""792231""
","""event"",""trial"",""time""
""blur"",""12"",""171092""
""blur"",""19"",""371196""
""blur"",""19"",""374131""
""blur"",""26"",""443971""
""blur"",""48"",""532694""
""blur"",""48"",""535469""
""blur"",""78"",""782276""
""blur"",""78"",""792090""
","""event"",""trial"",""time""
""focus"",""12"",""171218""
""focus"",""19"",""371789""
""focus"",""19"",""375756""
""focus"",""26"",""451241""
""focus"",""48"",""532910""
""focus"",""50"",""541474""
""focus"",""78"",""790555""
""focus"",""78"",""792231""
","""event"",""trial"",""time""
""fullscreenenter"",""1"",""7749""
","""event"",""trial"",""time""
""fullscreenexit"",""52"",""576280""
","","","4609.300000011921","[""False""]","0","20","1211","1148","","","","","","","","","","","","","","","","","","","",""
"pit-instructions","92","933375","0.0-2.0-26.0-1.0","battery-v0.2","","""event"",""trial"",""time""
""fullscreenenter"",""1"",""7749""
""blur"",""12"",""171092""
""focus"",""12"",""171218""
""blur"",""19"",""371196""
""focus"",""19"",""371789""
""blur"",""19"",""374131""
""focus"",""19"",""375756""
""blur"",""26"",""443971""
""focus"",""26"",""451241""
""blur"",""48"",""532694""
""focus"",""48"",""532910""
""blur"",""48"",""535469""
""focus"",""50"",""541474""
""fullscreenexit"",""52"",""576280""
""blur"",""78"",""782276""
""focus"",""78"",""790555""
""blur"",""78"",""792090""
""focus"",""78"",""792231""
","""event"",""trial"",""time""
""blur"",""12"",""171092""
""blur"",""19"",""371196""
""blur"",""19"",""374131""
""blur"",""26"",""443971""
""blur"",""48"",""532694""
""blur"",""48"",""535469""
""blur"",""78"",""782276""
""blur"",""78"",""792090""
","""event"",""trial"",""time""
""focus"",""12"",""171218""
""focus"",""19"",""371789""
""focus"",""19"",""375756""
""focus"",""26"",""451241""
""focus"",""48"",""532910""
""focus"",""50"",""541474""
""focus"",""78"",""790555""
""focus"",""78"",""792231""
","""event"",""trial"",""time""
""fullscreenenter"",""1"",""7749""
","""event"",""trial"",""time""
""fullscreenexit"",""52"",""576280""
","","[{""page_index"":0,""viewing_time"":4855.599999964237}]","4855.899999976158","","","","","","","","","","","","","","","","","","","","","","","","",""
"pit-instructions","93","948913","0.0-3.0","battery-v0.2","","""event"",""trial"",""time""
""fullscreenenter"",""1"",""7749""
""blur"",""12"",""171092""
""focus"",""12"",""171218""
""blur"",""19"",""371196""
""focus"",""19"",""371789""
""blur"",""19"",""374131""
""focus"",""19"",""375756""
""blur"",""26"",""443971""
""focus"",""26"",""451241""
""blur"",""48"",""532694""
""focus"",""48"",""532910""
""blur"",""48"",""535469""
""focus"",""50"",""541474""
""fullscreenexit"",""52"",""576280""
""blur"",""78"",""782276""
""focus"",""78"",""790555""
""blur"",""78"",""792090""
""focus"",""78"",""792231""
","""event"",""trial"",""time""
""blur"",""12"",""171092""
""blur"",""19"",""371196""
""blur"",""19"",""374131""
""blur"",""26"",""443971""
""blur"",""48"",""532694""
""blur"",""48"",""535469""
""blur"",""78"",""782276""
""blur"",""78"",""792090""
","""event"",""trial"",""time""
""focus"",""12"",""171218""
""focus"",""19"",""371789""
""focus"",""19"",""375756""
""focus"",""26"",""451241""
""focus"",""48"",""532910""
""focus"",""50"",""541474""
""focus"",""78"",""790555""
""focus"",""78"",""792231""
","""event"",""trial"",""time""
""fullscreenenter"",""1"",""7749""
","""event"",""trial"",""time""
""fullscreenexit"",""52"",""576280""
","","[{""page_index"":0,""viewing_time"":3744.600000023842},{""page_index"":1,""viewing_time"":5497.299999952316},{""page_index"":2,""viewing_time"":6292}]","15534.100000023842","","","","","","","","","","","","","","","","","","","","","","","","",""
"pit-trial","94","952726","0.0-4.0","battery-v0.2","","""event"",""trial"",""time""
""fullscreenenter"",""1"",""7749""
""blur"",""12"",""171092""
""focus"",""12"",""171218""
""blur"",""19"",""371196""
""focus"",""19"",""371789""
""blur"",""19"",""374131""
""focus"",""19"",""375756""
""blur"",""26"",""443971""
""focus"",""26"",""451241""
""blur"",""48"",""532694""
""focus"",""48"",""532910""
""blur"",""48"",""535469""
""focus"",""50"",""541474""
""fullscreenexit"",""52"",""576280""
""blur"",""78"",""782276""
""focus"",""78"",""790555""
""blur"",""78"",""792090""
""focus"",""78"",""792231""
","""event"",""trial"",""time""
""blur"",""12"",""171092""
""blur"",""19"",""371196""
""blur"",""19"",""374131""
""blur"",""26"",""443971""
""blur"",""48"",""532694""
""blur"",""48"",""535469""
""blur"",""78"",""782276""
""blur"",""78"",""792090""
","""event"",""trial"",""time""
""focus"",""12"",""171218""
""focus"",""19"",""371789""
""focus"",""19"",""375756""
""focus"",""26"",""451241""
""focus"",""48"",""532910""
""focus"",""50"",""541474""
""focus"",""78"",""790555""
""focus"",""78"",""792231""
","""event"",""trial"",""time""
""fullscreenenter"",""1"",""7749""
","""event"",""trial"",""time""
""fullscreenexit"",""52"",""576280""
","","","946.8999999761581","","","20","1211","1148","&#9730;","elianto","#3366ff99"," "," ","1","0","[1797.800000011921]","1","1","","","1211","1","1","1","win","go","1","[]"
"pit-trial","95","956258","0.0-5.0","battery-v0.2","","""event"",""trial"",""time""
""fullscreenenter"",""1"",""7749""
""blur"",""12"",""171092""
""focus"",""12"",""171218""
""blur"",""19"",""371196""
""focus"",""19"",""371789""
""blur"",""19"",""374131""
""focus"",""19"",""375756""
""blur"",""26"",""443971""
""focus"",""26"",""451241""
""blur"",""48"",""532694""
""focus"",""48"",""532910""
""blur"",""48"",""535469""
""focus"",""50"",""541474""
""fullscreenexit"",""52"",""576280""
""blur"",""78"",""782276""
""focus"",""78"",""790555""
""blur"",""78"",""792090""
""focus"",""78"",""792231""
","""event"",""trial"",""time""
""blur"",""12"",""171092""
""blur"",""19"",""371196""
""blur"",""19"",""374131""
""blur"",""26"",""443971""
""blur"",""48"",""532694""
""blur"",""48"",""535469""
""blur"",""78"",""782276""
""blur"",""78"",""792090""
","""event"",""trial"",""time""
""focus"",""12"",""171218""
""focus"",""19"",""371789""
""focus"",""19"",""375756""
""focus"",""26"",""451241""
""focus"",""48"",""532910""
""focus"",""50"",""541474""
""focus"",""78"",""790555""
""focus"",""78"",""792231""
","""event"",""trial"",""time""
""fullscreenenter"",""1"",""7749""
","""event"",""trial"",""time""
""fullscreenexit"",""52"",""576280""
","","","661.5","","","20","1211","1148","&#9728;","elianto","#f73b6a7A","-1"," ","0","-10","[1512.5999999642372]","1","1","","","1211","2","0","4","lose","no-go","0","0"
"pit-trial","96","961124","0.0-6.0","battery-v0.2","","""event"",""trial"",""time""
""fullscreenenter"",""1"",""7749""
""blur"",""12"",""171092""
""focus"",""12"",""171218""
""blur"",""19"",""371196""
""focus"",""19"",""371789""
""blur"",""19"",""374131""
""focus"",""19"",""375756""
""blur"",""26"",""443971""
""focus"",""26"",""451241""
""blur"",""48"",""532694""
""focus"",""48"",""532910""
""blur"",""48"",""535469""
""focus"",""50"",""541474""
""fullscreenexit"",""52"",""576280""
""blur"",""78"",""782276""
""focus"",""78"",""790555""
""blur"",""78"",""792090""
""focus"",""78"",""792231""
","""event"",""trial"",""time""
""blur"",""12"",""171092""
""blur"",""19"",""371196""
""blur"",""19"",""374131""
""blur"",""26"",""443971""
""blur"",""48"",""532694""
""blur"",""48"",""535469""
""blur"",""78"",""782276""
""blur"",""78"",""792090""
","""event"",""trial"",""time""
""focus"",""12"",""171218""
""focus"",""19"",""371789""
""focus"",""19"",""375756""
""focus"",""26"",""451241""
""focus"",""48"",""532910""
""focus"",""50"",""541474""
""focus"",""78"",""790555""
""focus"",""78"",""792231""
","""event"",""trial"",""time""
""fullscreenenter"",""1"",""7749""
","""event"",""trial"",""time""
""fullscreenexit"",""52"",""576280""
","","","-1","","","20","1211","1148","&#9733;","elianto","#3366ff99","-1","-1","1","+10","[]","0","1","","","1211","3","2","2","win","no-go","0","0"
"pit-trial","97","964869","0.0-7.0","battery-v0.2","","""event"",""trial"",""time""
""fullscreenenter"",""1"",""7749""
""blur"",""12"",""171092""
""focus"",""12"",""171218""
