"trial_type","trial_index","time_elapsed","internal_node_id","task_version","view_history","rt","rune","rune_set","hex","correct","choice","accuracy","outcome","keys","total_keys","block","practice","value","responses","num_errors","quiz"
"pavlovia","0","11","0.0-0.0","battery-v0.2","","","","","","","","","","","","","","","","",""
"pit-instructions","1","14011","0.0-1.0-0.0","battery-v0.2","[{""page_index"":0,""viewing_time"":12207.300000000003},{""page_index"":1,""viewing_time"":333.59999999999127},{""page_index"":2,""viewing_time"":142.10000000000582},{""page_index"":3,""viewing_time"":140.09999999999127},{""page_index"":4,""viewing_time"":135.10000000000582},{""page_index"":5,""viewing_time"":147},{""page_index"":6,""viewing_time"":147.8000000000029},{""page_index"":7,""viewing_time"":150.1999999999971},{""page_index"":8,""viewing_time"":139.3000000000029},{""page_index"":9,""viewing_time"":156.59999999999127},{""page_index"":10,""viewing_time"":143},{""page_index"":11,""viewing_time"":155.10000000000582}]","13998.199999999997","","","","","","","","","","","","","","",""
"pit-trial","2","17895","0.0-1.0-1.0-0.0","battery-v0.2","","379.8999999999942","&#9776;","elianto","#3366ff99","32","32","1","+10","1879.699999999997","1","0","1","","","",""
"pit-trial","3","22461","0.0-1.0-1.0-1.0","battery-v0.2","","1063.5","&#9776;","elianto","#3366ff99","32","32","1","+10","2563.2999999999884","1","0","1","","","",""
"pit-trial","4","26309","0.0-1.0-1.0-2.0","battery-v0.2","","342.8999999999942","&#9776;","elianto","#3366ff99","32","32","1","+10","1842.9000000000233","1","0","1","","","",""
"pit-trial","5","30454","0.0-1.0-1.0-3.0","battery-v0.2","","640.2999999999884","&#9776;","elianto","#3366ff99","32","32","1","0","2140.2999999999884","1","0","1","","","",""
"pit-trial","6","35029","0.0-1.0-1.0-4.0","battery-v0.2","","1072.1000000000058","&#9776;","elianto","#3366ff99","32","32","1","+10","2572.100000000006","1","0","1","","","",""
"call-function","7","35033","0.0-1.0-2.0","battery-v0.2","","","","","","","","","","","","","","","","",""
"pit-instructions","8","37679","0.0-1.0-3.0","battery-v0.2","[{""page_index"":0,""viewing_time"":1541.5},{""page_index"":1,""viewing_time"":149.39999999999418},{""page_index"":2,""viewing_time"":124.20000000001164},{""page_index"":3,""viewing_time"":126},{""page_index"":4,""viewing_time"":556},{""page_index"":5,""viewing_time"":147.79999999998836}]","2645.3000000000175","","","","","","","","","","","","","","",""
"pit-trial","9","43182","0.0-1.0-4.0-0.0","battery-v0.2","","-1","&#9761;","elianto","#3366ff99","-1","-1","1","+10","","0","0","2","","","",""
"pit-trial","10","48686","0.0-1.0-4.0-1.0","battery-v0.2","","-1","&#9761;","elianto","#3366ff99","-1","-1","1","+10","","0","0","2","","","",""
"pit-trial","11","54189","0.0-1.0-4.0-2.0","battery-v0.2","","-1","&#9761;","elianto","#3366ff99","-1","-1","1","+10","","0","0","2","","","",""
"pit-trial","12","59693","0.0-1.0-4.0-3.0","battery-v0.2","","-1","&#9761;","elianto","#3366ff99","-1","-1","1","+10","","0","0","2","","","",""
"pit-trial","13","65196","0.0-1.0-4.0-4.0","battery-v0.2","","-1","&#9761;","elianto","#3366ff99","-1","-1","1","0","","0","0","2","","","",""
"call-function","14","65198","0.0-1.0-5.0","battery-v0.2","","","","","","","","","","","","","","","","",""
"pit-instructions","15","78313","0.0-1.0-6.0","battery-v0.2","[{""page_index"":0,""viewing_time"":3890.399999999994},{""page_index"":1,""viewing_time"":3754.100000000006},{""page_index"":2,""viewing_time"":3465.7999999999884},{""page_index"":3,""viewing_time"":1102.2999999999884},{""page_index"":4,""viewing_time"":899.4000000000233}]","13112.799999999988","","","","","","","","","","","","","","",""
"pit-trial","16","83818","0.0-1.0-7.0-0.0","battery-v0.2","","-1","&#9826;","elianto","#f73b6a7A","-1","-1","1","0","","0","0","3","","","",""
"pit-trial","17","87812","0.0-1.0-7.0-1.0","battery-v0.2","","491.29999999998836","&#9826;","elianto","#f73b6a7A","-1","32","0","-10","1991.2999999999884","1","0","3","","","",""
"pit-trial","18","93316","0.0-1.0-7.0-2.0","battery-v0.2","","-1","&#9826;","elianto","#f73b6a7A","-1","-1","1","-10","","0","0","3","","","",""
"pit-trial","19","98819","0.0-1.0-7.0-3.0","battery-v0.2","","-1","&#9826;","elianto","#f73b6a7A","-1","-1","1","0","","0","0","3","","","",""
"pit-trial","20","104323","0.0-1.0-7.0-4.0","battery-v0.2","","-1","&#9826;","elianto","#f73b6a7A","-1","-1","1","0","","0","0","3","","","",""
"call-function","21","104325","0.0-1.0-8.0","battery-v0.2","","","","","","","","","","","","","","","","",""
"pit-instructions","22","262185","0.0-1.0-9.0","battery-v0.2","[{""page_index"":0,""viewing_time"":157309.70000000004},{""page_index"":1,""viewing_time"":548.2999999999302}]","157858.9","","","","","","","","","","","","","","",""
"pit-trial","23","266012","0.0-1.0-10.0-0.0","battery-v0.2","","323.4000000000233","&#9789;","elianto","#f73b6a7A","32","32","1","0","1822.1999999999534","1","0","4","","","",""
"pit-trial","24","269579","0.0-1.0-10.0-1.0","battery-v0.2","","63.20000000006985","&#9789;","elianto","#f73b6a7A","32","32","1","0","1563.2000000000698","1","0","4","","","",""
"pit-trial","25","273788","0.0-1.0-10.0-2.0","battery-v0.2","","705.5","&#9789;","elianto","#f73b6a7A","32","32","1","0","1484.8000000000466,2205.4000000000233","2","0","4","","","",""
"pit-trial","26","277756","0.0-1.0-10.0-3.0","battery-v0.2","","465","&#9789;","elianto","#f73b6a7A","32","32","1","0","1965","1","0","4","","","",""
"pit-trial","27","281515","0.0-1.0-10.0-4.0","battery-v0.2","","255.5","&#9789;","elianto","#f73b6a7A","32","32","1","-10","1755.5999999999767","1","0","4","","","",""
"call-function","28","281517","0.0-1.0-11.0","battery-v0.2","","","","","","","","","","","","","","","","",""
"pit-instructions","29","290457","0.0-1.0-12.0","battery-v0.2","[{""page_index"":0,""viewing_time"":2368.5},{""page_index"":1,""viewing_time"":929.2999999999302},{""page_index"":2,""viewing_time"":1571.9000000000233},{""page_index"":3,""viewing_time"":1188.0999999999767},{""page_index"":4,""viewing_time"":1009.9000000000233},{""page_index"":5,""viewing_time"":897.7000000000698},{""page_index"":6,""viewing_time"":972.0999999999767}]","8938.400000000023","","","","","","","","","","","","","","",""
"pit-comprehension","30","316944","0.0-1.0-13.0","battery-v0.2","","26481.800000000047","","","","","","","","","","","","","SPACE,10,10,True,True,True","1","1"
"instructions","31","322411","0.0-1.0-14.0-0.0-0.0","battery-v0.2","[{""page_index"":0,""viewing_time"":5461.70000000007}]","5462.20000000007","","","","","","","","","","","","","","",""
