"trial_type","trial_index","time_elapsed","internal_node_id","task_version","success","view_history","rt","rune","rune_set","hex","correct","choice","accuracy","outcome","keys","total_keys","block","practice","subject","participantId"
"pavlovia","0","12","0.0-0.0","battery-v0.2","","","","","","","","","","","","","","","",""
"fullscreen","1","2492","0.0-1.0","battery-v0.2","true","","","","","","","","","","","","","","",""
"pit-instructions","2","5590","0.0-2.0-0.0","battery-v0.2","","[{""page_index"":0,""viewing_time"":1302.5999999977648},{""page_index"":1,""viewing_time"":178.60000000149012},{""page_index"":2,""viewing_time"":144.30000000074506},{""page_index"":3,""viewing_time"":160.59999999776483},{""page_index"":4,""viewing_time"":162},{""page_index"":5,""viewing_time"":145.30000000074506},{""page_index"":6,""viewing_time"":160.30000000074506},{""page_index"":7,""viewing_time"":151.39999999850988},{""page_index"":8,""viewing_time"":180},{""page_index"":9,""viewing_time"":177},{""page_index"":10,""viewing_time"":147.80000000074506},{""page_index"":11,""viewing_time"":181}]","3091.300000000745","","","","","","","","","","","","",""
"pit-trial","3","10452","0.0-2.0-1.0-0.0","battery-v0.2","","","-1","&#9784;","elianto","#FFFFF080","32","-1","0","&#10060","","0","0","0","4ee95e0e8737a0304baac70a&order=1&STUDY_ID=61caf85b4892b889f6411591","999"
"pit-trial","4","15311","0.0-2.0-1.1-0.1","battery-v0.2","","","-1","&#9784;","elianto","#FFFFF080","32","-1","0","&#10060","","0","0","0","4ee95e0e8737a0304baac70a&order=1&STUDY_ID=61caf85b4892b889f6411591","999"
"pit-trial","5","20170","0.0-2.0-1.2-0.2","battery-v0.2","","","-1","&#9784;","elianto","#FFFFF080","32","-1","0","&#10060","","0","0","0","4ee95e0e8737a0304baac70a&order=1&STUDY_ID=61caf85b4892b889f6411591","999"
"pit-trial","6","25030","0.0-2.0-1.3-0.3","battery-v0.2","","","-1","&#9784;","elianto","#FFFFF080","32","-1","0","&#10060","","0","0","0","4ee95e0e8737a0304baac70a&order=1&STUDY_ID=61caf85b4892b889f6411591","999"
"pit-trial","7","29890","0.0-2.0-1.4-0.4","battery-v0.2","","","-1","&#9784;","elianto","#FFFFF080","32","-1","0","&#10060","","0","0","0","4ee95e0e8737a0304baac70a&order=1&STUDY_ID=61caf85b4892b889f6411591","999"
"pit-trial","8","34747","0.0-2.0-1.5-0.5","battery-v0.2","","","-1","&#9784;","elianto","#FFFFF080","32","-1","0","&#10060","","0","0","0","4ee95e0e8737a0304baac70a&order=1&STUDY_ID=61caf85b4892b889f6411591","999"
"pit-trial","9","39604","0.0-2.0-1.6-0.6","battery-v0.2","","","-1","&#9784;","elianto","#FFFFF080","32","-1","0","&#10060","","0","0","0","4ee95e0e8737a0304baac70a&order=1&STUDY_ID=61caf85b4892b889f6411591","999"
"pit-trial","10","44469","0.0-2.0-1.7-0.7","battery-v0.2","","","-1","&#9784;","elianto","#FFFFF080","32","-1","0","&#10060","","0","0","0","4ee95e0e8737a0304baac70a&order=1&STUDY_ID=61caf85b4892b889f6411591","999"
"pit-trial","11","49330","0.0-2.0-1.8-0.8","battery-v0.2","","","-1","&#9784;","elianto","#FFFFF080","32","-1","0","&#10060","","0","0","0","4ee95e0e8737a0304baac70a&order=1&STUDY_ID=61caf85b4892b889f6411591","999"
"pit-trial","12","54196","0.0-2.0-1.9-0.9","battery-v0.2","","","-1","&#9784;","elianto","#FFFFF080","32","-1","0","&#10060","","0","0","0","4ee95e0e8737a0304baac70a&order=1&STUDY_ID=61caf85b4892b889f6411591","999"
"pit-trial","13","59051","0.0-2.0-1.10-0.10","battery-v0.2","","","-1","&#9784;","elianto","#FFFFF080","32","-1","0","&#10060","","0","0","0","4ee95e0e8737a0304baac70a&order=1&STUDY_ID=61caf85b4892b889f6411591","999"
"pit-trial","14","63906","0.0-2.0-1.11-0.11","battery-v0.2","","","-1","&#9784;","elianto","#FFFFF080","32","-1","0","&#10060","","0","0","0","4ee95e0e8737a0304baac70a&order=1&STUDY_ID=61caf85b4892b889f6411591","999"
"pit-trial","15","68767","0.0-2.0-1.12-0.12","battery-v0.2","","","-1","&#9784;","elianto","#FFFFF080","32","-1","0","&#10060","","0","0","0","4ee95e0e8737a0304baac70a&order=1&STUDY_ID=61caf85b4892b889f6411591","999"
"pit-trial","16","73626","0.0-2.0-1.13-0.13","battery-v0.2","","","-1","&#9784;","elianto","#FFFFF080","32","-1","0","&#10060","","0","0","0","4ee95e0e8737a0304baac70a&order=1&STUDY_ID=61caf85b4892b889f6411591","999"
"pit-trial","17","78489","0.0-2.0-1.14-0.14","battery-v0.2","","","-1","&#9784;","elianto","#FFFFF080","32","-1","0","&#10060","","0","0","0","4ee95e0e8737a0304baac70a&order=1&STUDY_ID=61caf85b4892b889f6411591","999"
"pit-trial","18","83352","0.0-2.0-1.15-0.15","battery-v0.2","","","-1","&#9784;","elianto","#FFFFF080","32","-1","0","&#10060","","0","0","0","4ee95e0e8737a0304baac70a&order=1&STUDY_ID=61caf85b4892b889f6411591","999"
"pit-trial","19","88210","0.0-2.0-1.16-0.16","battery-v0.2","","","-1","&#9784;","elianto","#FFFFF080","32","-1","0","&#10060","","0","0","0","4ee95e0e8737a0304baac70a&order=1&STUDY_ID=61caf85b4892b889f6411591","999"
"pit-trial","20","93070","0.0-2.0-1.17-0.17","battery-v0.2","","","-1","&#9784;","elianto","#FFFFF080","32","-1","0","&#10060","","0","0","0","4ee95e0e8737a0304baac70a&order=1&STUDY_ID=61caf85b4892b889f6411591","999"
"pit-trial","21","98401","0.0-2.0-1.18-0.18","battery-v0.2","","","-1","&#9784;","elianto","#FFFFF080","32","-1","0","&#10060","","0","0","0","4ee95e0e8737a0304baac70a&order=1&STUDY_ID=61caf85b4892b889f6411591","999"
"pit-trial","22","103260","0.0-2.0-1.19-0.19","battery-v0.2","","","-1","&#9784;","elianto","#FFFFF080","32","-1","0","&#10060","","0","0","0","4ee95e0e8737a0304baac70a&order=1&STUDY_ID=61caf85b4892b889f6411591","999"
"pit-trial","23","108118","0.0-2.0-1.20-0.20","battery-v0.2","","","-1","&#9784;","elianto","#FFFFF080","32","-1","0","&#10060","","0","0","0","4ee95e0e8737a0304baac70a&order=1&STUDY_ID=61caf85b4892b889f6411591","999"
"pit-trial","24","112977","0.0-2.0-1.21-0.21","battery-v0.2","","","-1","&#9784;","elianto","#FFFFF080","32","-1","0","&#10060","","0","0","0","4ee95e0e8737a0304baac70a&order=1&STUDY_ID=61caf85b4892b889f6411591","999"
"pit-trial","25","117835","0.0-2.0-1.22-0.22","battery-v0.2","","","-1","&#9784;","elianto","#FFFFF080","32","-1","0","&#10060","","0","0","0","4ee95e0e8737a0304baac70a&order=1&STUDY_ID=61caf85b4892b889f6411591","999"
"pit-trial","26","122695","0.0-2.0-1.23-0.23","battery-v0.2","","","-1","&#9784;","elianto","#FFFFF080","32","-1","0","&#10060","","0","0","0","4ee95e0e8737a0304baac70a&order=1&STUDY_ID=61caf85b4892b889f6411591","999"
"pit-trial","27","127554","0.0-2.0-1.24-0.24","battery-v0.2","","","-1","&#9784;","elianto","#FFFFF080","32","-1","0","&#10060","","0","0","0","4ee95e0e8737a0304baac70a&order=1&STUDY_ID=61caf85b4892b889f6411591","999"
"pit-trial","28","132413","0.0-2.0-1.25-0.25","battery-v0.2","","","-1","&#9784;","elianto","#FFFFF080","32","-1","0","&#10060","","0","0","0","4ee95e0e8737a0304baac70a&order=1&STUDY_ID=61caf85b4892b889f6411591","999"
"pit-trial","29","137510","0.0-2.0-1.26-0.26","battery-v0.2","","","-1","&#9784;","elianto","#FFFFF080","32","-1","0","&#10060","","0","0","0","4ee95e0e8737a0304baac70a&order=1&STUDY_ID=61caf85b4892b889f6411591","999"
