"trial_type","trial_index","time_elapsed","internal_node_id","task_version","subject_id","interactions","blur_events","focus_events","fullscreenenter_events","fullscreenexit_events","success","view_history","rt","responses","num_errors","age","subject","participantId","rune","rune_set","hex","correct","choice","accuracy","outcome","keys","total_keys","block","practice","value","sub","trial","stimulus","robot","valence","action","sham","browser_interactions"
"pavlovia","0","38","0.0-0.0","battery-v0.2","","""event"",""trial"",""time""
""fullscreenenter"",""1"",""2214""
","
","
","""event"",""trial"",""time""
""fullscreenenter"",""1"",""2214""
","
","","","","","","","","","","","","","","","","","","","","","","","","","","","",""
"fullscreen","1","3212","0.0-1.0","battery-v0.2","","""event"",""trial"",""time""
""fullscreenenter"",""1"",""2214""
","
","
","""event"",""trial"",""time""
""fullscreenenter"",""1"",""2214""
","
","true","","","","","","","","","","","","","","","","","","","","","","","","","","",""
"pit-instructions","2","12723","0.0-2.0-0.0","battery-v0.2","","""event"",""trial"",""time""
""fullscreenenter"",""1"",""2214""
","
","
","""event"",""trial"",""time""
""fullscreenenter"",""1"",""2214""
","
","","[{""page_index"":0,""viewing_time"":9504.599999904633}]","9505.399999976158","","","","","","","","","","","","","","","","","","","","","","","","",""
"pit-comprehension","3","18016","0.0-2.0-1.0-0.0","battery-v0.2","","""event"",""trial"",""time""
""fullscreenenter"",""1"",""2214""
","
","
","""event"",""trial"",""time""
""fullscreenenter"",""1"",""2214""
","
","","","5286.400000095367","[""shark""]","0","11","1639","335","","","","","","","","","","","","","","","","","","","",""
"pit-instructions","4","21432","0.0-2.0-1.0-1.0","battery-v0.2","","""event"",""trial"",""time""
""fullscreenenter"",""1"",""2214""
","
","
","""event"",""trial"",""time""
""fullscreenenter"",""1"",""2214""
","
","","[{""page_index"":0,""viewing_time"":3386.399999976158}]","3386.899999976158","","","","","","","","","","","","","","","","","","","","","","","","",""
"pit-comprehension","5","26531","0.0-2.0-2.0-0.0","battery-v0.2","","""event"",""trial"",""time""
""fullscreenenter"",""1"",""2214""
","
","
","""event"",""trial"",""time""
""fullscreenenter"",""1"",""2214""
","
","","","5093.399999976158","[""tiger""]","0","11","1639","335","","","","","","","","","","","","","","","","","","","",""
"pit-instructions","6","27867","0.0-2.0-2.0-1.0","battery-v0.2","","""event"",""trial"",""time""
""fullscreenenter"",""1"",""2214""
","
","
","""event"",""trial"",""time""
""fullscreenenter"",""1"",""2214""
","
","","[{""page_index"":0,""viewing_time"":1329.3000000715256}]","1329.8999999761581","","","","","","","","","","","","","","","","","","","","","","","","",""
"pit-instructions","7","147555","0.0-2.0-3.0","battery-v0.2","","""event"",""trial"",""time""
""fullscreenenter"",""1"",""2214""
","
","
","""event"",""trial"",""time""
""fullscreenenter"",""1"",""2214""
","
","","[{""page_index"":0,""viewing_time"":23678.899999976158},{""page_index"":1,""viewing_time"":7649.399999976158},{""page_index"":2,""viewing_time"":7665.600000023842},{""page_index"":3,""viewing_time"":5353.700000047684},{""page_index"":4,""viewing_time"":5151.899999976158},{""page_index"":5,""viewing_time"":6641.399999976158},{""page_index"":6,""viewing_time"":7524.399999976158},{""page_index"":7,""viewing_time"":7003},{""page_index"":8,""viewing_time"":8032.5},{""page_index"":9,""viewing_time"":9798.800000071526},{""page_index"":10,""viewing_time"":7879.399999976158},{""page_index"":11,""viewing_time"":7820.600000023842},{""page_index"":12,""viewing_time"":7320.899999976158},{""page_index"":13,""viewing_time"":8158}]","119679.19999992847","","","","","","","","","","","","","","","","","","","","","","","","",""
"pit-trial","8","151224","0.0-2.0-4.0-0.0","battery-v0.2","","""event"",""trial"",""time""
""fullscreenenter"",""1"",""2214""
","
","
","""event"",""trial"",""time""
""fullscreenenter"",""1"",""2214""
","
","","","810.1000000238419","","","11","1639","335","&#9784;","elianto","#FFFFF080"," "," ","1","&#10004","[1660.6999999284744]","1","0","0","","","","","","","","",""
"pit-trial","9","154758","0.0-2.0-4.1-0.1","battery-v0.2","","""event"",""trial"",""time""
""fullscreenenter"",""1"",""2214""
","
","
","""event"",""trial"",""time""
""fullscreenenter"",""1"",""2214""
","
","","","675.7999999523163","","","11","1639","335","&#9784;","elianto","#FFFFF080"," "," ","1","&#10004","[1528.8999999761581]","1","0","0","","","","","","","","",""
"pit-trial","10","158109","0.0-2.0-4.2-0.2","battery-v0.2","","""event"",""trial"",""time""
""fullscreenenter"",""1"",""2214""
","
","
","""event"",""trial"",""time""
""fullscreenenter"",""1"",""2214""
","
","","","477.3000000715256","","","11","1639","335","&#9784;","elianto","#FFFFF080"," "," ","1","&#10004","[1330.1000000238419]","1","0","0","","","","","","","","",""
"pit-trial","11","161545","0.0-2.0-4.3-0.3","battery-v0.2","","""event"",""trial"",""time""
""fullscreenenter"",""1"",""2214""
","
","
","""event"",""trial"",""time""
""fullscreenenter"",""1"",""2214""
","
","","","579.3999999761581","","","11","1639","335","&#9784;","elianto","#FFFFF080"," "," ","1","&#10004","[1432.1000000238419]","1","0","0","","","","","","","","",""
"pit-trial","12","164829","0.0-2.0-4.4-0.4","battery-v0.2","","""event"",""trial"",""time""
""fullscreenenter"",""1"",""2214""
","
","
","""event"",""trial"",""time""
""fullscreenenter"",""1"",""2214""
","
","","","412.89999997615814","","","11","1639","335","&#9784;","elianto","#FFFFF080"," "," ","1","&#10004","[1266.7000000476837]","1","0","0","","","","","","","","",""
"pit-instructions","13","191806","0.0-2.0-5.0","battery-v0.2","","""event"",""trial"",""time""
""fullscreenenter"",""1"",""2214""
","
","
","""event"",""trial"",""time""
""fullscreenenter"",""1"",""2214""
","
","","[{""page_index"":0,""viewing_time"":4655.699999928474},{""page_index"":1,""viewing_time"":6698.399999976158},{""page_index"":2,""viewing_time"":6127.5},{""page_index"":3,""viewing_time"":9495}]","26977.199999928474","","","","","","","","","","","","","","","","","","","","","","","","",""
"pit-trial","14","196674","0.0-2.0-6.0-0.0","battery-v0.2","","""event"",""trial"",""time""
""fullscreenenter"",""1"",""2214""
","
","
","""event"",""trial"",""time""
""fullscreenenter"",""1"",""2214""
","
","","","-1","","","11","1639","335","&#9854;","elianto","#FFFFF080","-1","-1","1","&#10004","[]","0","0","1","","","","","","","","",""
"pit-trial","15","201545","0.0-2.0-6.1-0.1","battery-v0.2","","""event"",""trial"",""time""
""fullscreenenter"",""1"",""2214""
","
","
","""event"",""trial"",""time""
""fullscreenenter"",""1"",""2214""
","
","","","-1","","","11","1639","335","&#9854;","elianto","#FFFFF080","-1","-1","1","&#10004","[]","0","0","1","","","","","","","","",""
"pit-trial","16","206414","0.0-2.0-6.2-0.2","battery-v0.2","","""event"",""trial"",""time""
""fullscreenenter"",""1"",""2214""
","
","
","""event"",""trial"",""time""
""fullscreenenter"",""1"",""2214""
","
","","","-1","","","11","1639","335","&#9854;","elianto","#FFFFF080","-1","-1","1","&#10004","[]","0","0","1","","","","","","","","",""
"pit-trial","17","211294","0.0-2.0-6.3-0.3","battery-v0.2","","""event"",""trial"",""time""
""fullscreenenter"",""1"",""2214""
","
","
","""event"",""trial"",""time""
""fullscreenenter"",""1"",""2214""
","
","","","-1","","","11","1639","335","&#9854;","elianto","#FFFFF080","-1","-1","1","&#10004","[]","0","0","1","","","","","","","","",""
"pit-trial","18","216164","0.0-2.0-6.4-0.4","battery-v0.2","","""event"",""trial"",""time""
""fullscreenenter"",""1"",""2214""
","
","
","""event"",""trial"",""time""
""fullscreenenter"",""1"",""2214""
","
","","","-1","","","11","1639","335","&#9854;","elianto","#FFFFF080","-1","-1","1","&#10004","[]","0","0","1","","","","","","","","",""
"pit-instructions","19","353825","0.0-2.0-7.0","battery-v0.2","","""event"",""trial"",""time""
""fullscreenenter"",""1"",""2214""
","
","
","""event"",""trial"",""time""
""fullscreenenter"",""1"",""2214""
","
","","[{""page_index"":0,""viewing_time"":7523.200000047684},{""page_index"":1,""viewing_time"":9660.700000047684},{""page_index"":2,""viewing_time"":6634.199999928474},{""page_index"":3,""viewing_time"":7390},{""page_index"":4,""viewing_time"":6215},{""page_index"":5,""viewing_time"":6213.300000071526},{""page_index"":6,""viewing_time"":5931},{""page_index"":7,""viewing_time"":9762.799999952316},{""page_index"":8,""viewing_time"":7711.700000047684},{""page_index"":9,""viewing_time"":6762},{""page_index"":10,""viewing_time"":6952.299999952316},{""page_index"":11,""viewing_time"":5822.399999976158},{""page_index"":12,""viewing_time"":8072.700000047684},{""page_index"":13,""viewing_time"":9226.699999928474},{""page_index"":14,""viewing_time"":8640.300000071526},{""page_index"":15,""viewing_time"":8019.199999928474},{""page_index"":16,""viewing_time"":7666.5},{""page_index"":17,""viewing_time"":9454.700000047684}]","137659.30000007153","","","","","","","","","","","","","","","","","","","","","","","","",""
"pit-trial","20","358420","0.0-2.0-8.0-0.0","battery-v0.2","","""event"",""trial"",""time""
""fullscreenenter"",""1"",""2214""
","
","
","""event"",""trial"",""time""
""fullscreenenter"",""1"",""2214""
","
","","","1732","","","11","1639","335","&#9776;","elianto","#3366ff99"," "," ","1","+10","[2583.7000000476837]","1","0","1","","","","","","","","",""
"pit-trial","21","361991","0.0-2.0-8.0-1.0","battery-v0.2","","""event"",""trial"",""time""
""fullscreenenter"",""1"",""2214""
","
","
","""event"",""trial"",""time""
""fullscreenenter"",""1"",""2214""
","
","","","697.7000000476837","","","11","1639","335","&#9776;","elianto","#3366ff99"," "," ","1","+10","[1553.3999999761581]","1","0","1","","","","","","","","",""
"pit-trial","22","365417","0.0-2.0-8.0-2.0","battery-v0.2","","""event"",""trial"",""time""
""fullscreenenter"",""1"",""2214""
","
","
","""event"",""trial"",""time""
""fullscreenenter"",""1"",""2214""
","
","","","549.1000000238419","","","11","1639","335","&#9776;","elianto","#3366ff99"," "," ","1","+10","[1400.3999999761581]","1","0","1","","","","","","","","",""
"pit-trial","23","369186","0.0-2.0-8.0-3.0","battery-v0.2","","""event"",""trial"",""time""
""fullscreenenter"",""1"",""2214""
","
","
","""event"",""trial"",""time""
""fullscreenenter"",""1"",""2214""
","
","","","906.3000000715256","","","11","1639","335","&#9776;","elianto","#3366ff99"," "," ","1","0","[1759.3999999761581]","1","0","1","","","","","","","","",""
"pit-trial","24","372687","0.0-2.0-8.0-4.0","battery-v0.2","","""event"",""trial"",""time""
""fullscreenenter"",""1"",""2214""
","
","
","""event"",""trial"",""time""
""fullscreenenter"",""1"",""2214""
","
","","","637.2999999523163","","","11","1639","335","&#9776;","elianto","#3366ff99"," "," ","1","+10","[1488.0999999046326]","1","0","1","","","","","","","","",""
"call-function","25","372690","0.0-2.0-9.0","battery-v0.2","","""event"",""trial"",""time""
""fullscreenenter"",""1"",""2214""
","
","
","""event"",""trial"",""time""
""fullscreenenter"",""1"",""2214""
","
","","","","","","","","","","","","","","","","","","","","","","","","","","","",""
"pit-instructions","26","421380","0.0-2.0-10.0","battery-v0.2","","""event"",""trial"",""time""
""fullscreenenter"",""1"",""2214""
","
","
","""event"",""trial"",""time""
""fullscreenenter"",""1"",""2214""
","
","","[{""page_index"":0,""viewing_time"":6653.700000047684},{""page_index"":1,""viewing_time"":8294.699999928474},{""page_index"":2,""viewing_time"":12012},{""page_index"":3,""viewing_time"":12743.5},{""page_index"":4,""viewing_time"":8984.900000095367}]","48689.60000002384","","","","","","","","","","","","","","","","","","","","","","","","",""
"pit-trial","27","425318","0.0-2.0-11.0-0.0","battery-v0.2","","""event"",""trial"",""time""
""fullscreenenter"",""1"",""2214""
","
","
","""event"",""trial"",""time""
""fullscreenenter"",""1"",""2214""
","
","","","1079.1999999284744","","","11","1639","335","&#9761;","elianto","#3366ff99","-1"," ","0","0","[1933]","1","0","2","","","","","","","","",""
"pit-trial","28","430188","0.0-2.0-11.0-1.0","battery-v0.2","","""event"",""trial"",""time""
""fullscreenenter"",""1"",""2214""
","
","
","""event"",""trial"",""time""
""fullscreenenter"",""1"",""2214""
","
","","","-1","","","11","1639","335","&#9761;","elianto","#3366ff99","-1","-1","1","+10","[]","0","0","2","","","","","","","","",""
"pit-trial","29","435068","0.0-2.0-11.0-2.0","battery-v0.2","","""event"",""trial"",""time""
""fullscreenenter"",""1"",""2214""
","
","
","""event"",""trial"",""time""
""fullscreenenter"",""1"",""2214""
","
","","","-1","","","11","1639","335","&#9761;","elianto","#3366ff99","-1","-1","1","+10","[]","0","0","2","","","","","","","","",""
"pit-trial","30","439928","0.0-2.0-11.0-3.0","battery-v0.2","","""event"",""trial"",""time""
""fullscreenenter"",""1"",""2214""
","
","
","""event"",""trial"",""time""
""fullscreenenter"",""1"",""2214""
","
","","","-1","","","11","1639","335","&#9761;","elianto","#3366ff99","-1","-1","1","0","[]","0","0","2","","","","","","","","",""
"pit-trial","31","444787","0.0-2.0-11.0-4.0","battery-v0.2","","""event"",""trial"",""time""
""fullscreenenter"",""1"",""2214""
","
","
","""event"",""trial"",""time""
""fullscreenenter"",""1"",""2214""
","
","","","-1","","","11","1639","335","&#9761;","elianto","#3366ff99","-1","-1","1","+10","[]","0","0","2","","","","","","","","",""
"call-function","32","444789","0.0-2.0-12.0","battery-v0.2","","""event"",""trial"",""time""
""fullscreenenter"",""1"",""2214""
","
","
","""event"",""trial"",""time""
""fullscreenenter"",""1"",""2214""
","
","","","","","","","","","","","","","","","","","","","","","","","","","","","",""
"pit-instructions","33","483219","0.0-2.0-13.0","battery-v0.2","","""event"",""trial"",""time""
""fullscreenenter"",""1"",""2214""
","
","
","""event"",""trial"",""time""
""fullscreenenter"",""1"",""2214""
","
","","[{""page_index"":0,""viewing_time"":7900.200000047684},{""page_index"":1,""viewing_time"":8533.299999952316},{""page_index"":2,""viewing_time"":3834.8000000715256},{""page_index"":3,""viewing_time"":11890.299999952316},{""page_index"":4,""viewing_time"":6269.799999952316}]","38429","","","","","","","","","","","","","","","","","","","","","","","","",""
"pit-trial","34","486752","0.0-2.0-14.0-0.0","battery-v0.2","","""event"",""trial"",""time""
""fullscreenenter"",""1"",""2214""
","
","
","""event"",""trial"",""time""
""fullscreenenter"",""1"",""2214""
","
","","","672.6999999284744","","","11","1639","335","&#9826;","elianto","#f73b6a7A","-1"," ","0","-10","[1530.6000000238419]","1","0","3","","","","","","","","",""
"pit-trial","35","491624","0.0-2.0-14.0-1.0","battery-v0.2","","""event"",""trial"",""time""
""fullscreenenter"",""1"",""2214""
","
","
","""event"",""trial"",""time""
""fullscreenenter"",""1"",""2214""
","
","","","-1","","","11","1639","335","&#9826;","elianto","#f73b6a7A","-1","-1","1","0","[]","0","0","3","","","","","","","","",""
"pit-trial","36","496494","0.0-2.0-14.0-2.0","battery-v0.2","","""event"",""trial"",""time""
""fullscreenenter"",""1"",""2214""
","
","
","""event"",""trial"",""time""
""fullscreenenter"",""1"",""2214""
","
","","","-1","","","11","1639","335","&#9826;","elianto","#f73b6a7A","-1","-1","1","0","[]","0","0","3","","","","","","","","",""
"pit-trial","37","501364","0.0-2.0-14.0-3.0","battery-v0.2","","""event"",""trial"",""time""
""fullscreenenter"",""1"",""2214""
","
","
","""event"",""trial"",""time""
""fullscreenenter"",""1"",""2214""
","
","","","-1","","","11","1639","335","&#9826;","elianto","#f73b6a7A","-1","-1","1","-10","[]","0","0","3","","","","","","","","",""
"pit-trial","38","506224","0.0-2.0-14.0-4.0","battery-v0.2","","""event"",""trial"",""time""
""fullscreenenter"",""1"",""2214""
","
","
","""event"",""trial"",""time""
""fullscreenenter"",""1"",""2214""
","
","","","-1","","","11","1639","335","&#9826;","elianto","#f73b6a7A","-1","-1","1","0","[]","0","0","3","","","","","","","","",""
"call-function","39","506227","0.0-2.0-15.0","battery-v0.2","","""event"",""trial"",""time""
""fullscreenenter"",""1"",""2214""
","
","
","""event"",""trial"",""time""
""fullscreenenter"",""1"",""2214""
","
","","","","","","","","","","","","","","","","","","","","","","","","","","","",""
"pit-instructions","40","539162","0.0-2.0-16.0","battery-v0.2","","""event"",""trial"",""time""
""fullscreenenter"",""1"",""2214""
","
","
","""event"",""trial"",""time""
""fullscreenenter"",""1"",""2214""
","
","","[{""page_index"":0,""viewing_time"":8832.100000023842},{""page_index"":1,""viewing_time"":9923.099999904633},{""page_index"":2,""viewing_time"":5545.400000095367},{""page_index"":3,""viewing_time"":8633.599999904633}]","32934.799999952316","","","","","","","","","","","","","","","","","","","","","","","","",""
"pit-trial","41","544038","0.0-2.0-17.0-0.0","battery-v0.2","","""event"",""trial"",""time""
""fullscreenenter"",""1"",""2214""
","
","
","""event"",""trial"",""time""
""fullscreenenter"",""1"",""2214""
","
","","","-1","","","11","1639","335","&#9789;","elianto","#f73b6a7A"," ","-1","0","-10","[]","0","0","4","","","","","","","","",""
"pit-trial","42","548238","0.0-2.0-17.0-1.0","battery-v0.2","","""event"",""trial"",""time""
""fullscreenenter"",""1"",""2214""
","
","
","""event"",""trial"",""time""
""fullscreenenter"",""1"",""2214""
","
","","","1339.7999999523163","","","11","1639","335","&#9789;","elianto","#f73b6a7A"," "," ","1","0","[2191.5999999046326]","1","0","4","","","","","","","","",""
"pit-trial","43","552418","0.0-2.0-17.0-2.0","battery-v0.2","","""event"",""trial"",""time""
""fullscreenenter"",""1"",""2214""
","
","
","""event"",""trial"",""time""
""fullscreenenter"",""1"",""2214""
","
","","","1309","","","11","1639","335","&#9789;","elianto","#f73b6a7A"," "," ","1","0","[2160.5]","1","0","4","","","","","","","","",""
"pit-trial","44","555748","0.0-2.0-17.0-3.0","battery-v0.2","","""event"",""trial"",""time""
""fullscreenenter"",""1"",""2214""
","
","
","""event"",""trial"",""time""
""fullscreenenter"",""1"",""2214""
","
","","","470.5","","","11","1639","335","&#9789;","elianto","#f73b6a7A"," "," ","1","-10","[1325.2999999523163]","1","0","4","","","","","","","","",""
"pit-trial","45","559608","0.0-2.0-17.0-4.0","battery-v0.2","","""event"",""trial"",""time""
""fullscreenenter"",""1"",""2214""
","
","
","""event"",""trial"",""time""
""fullscreenenter"",""1"",""2214""
","
","","","995.9000000953674","","","11","1639","335","&#9789;","elianto","#f73b6a7A"," "," ","1","0","[1852.9000000953674]","1","0","4","","","","","","","","",""
"call-function","46","559610","0.0-2.0-18.0","battery-v0.2","","""event"",""trial"",""time""
""fullscreenenter"",""1"",""2214""
","
","
","""event"",""trial"",""time""
""fullscreenenter"",""1"",""2214""
","
","","","","","","","","","","","","","","","","","","","","","","","","","","","",""
"pit-instructions","47","647818","0.0-2.0-19.0","battery-v0.2","","""event"",""trial"",""time""
""fullscreenenter"",""1"",""2214""
","
","
","""event"",""trial"",""time""
""fullscreenenter"",""1"",""2214""
","
","","[{""page_index"":0,""viewing_time"":6863.700000047684},{""page_index"":1,""viewing_time"":7482.199999928474},{""page_index"":2,""viewing_time"":16866.700000047684},{""page_index"":3,""viewing_time"":8993.399999976158},{""page_index"":4,""viewing_time"":10735.899999976158},{""page_index"":5,""viewing_time"":11129.600000023842},{""page_index"":6,""viewing_time"":12345.799999952316},{""page_index"":7,""viewing_time"":8701.5},{""page_index"":8,""viewing_time"":5087.300000071526}]","88206.89999997616","","","","","","","","","","","","","","","","","","","","","","","","",""
"pit-comprehension","48","652741","0.0-2.0-20.0-0.0","battery-v0.2","","""event"",""trial"",""time""
""fullscreenenter"",""1"",""2214""
","
","
","""event"",""trial"",""time""
""fullscreenenter"",""1"",""2214""
","
","","","4919.799999952316","[""SPACE""]","0","11","1639","335","","","","","","","","","","","","","","","","","","","",""
"pit-instructions","49","657103","0.0-2.0-20.0-1.0","battery-v0.2","","""event"",""trial"",""time""
""fullscreenenter"",""1"",""2214""
","
","
","""event"",""trial"",""time""
""fullscreenenter"",""1"",""2214""
","
","","[{""page_index"":0,""viewing_time"":4322.800000071526}]","4323.5","","","","","","","","","","","","","","","","","","","","","","","","",""
"pit-comprehension","50","663054","0.0-2.0-21.0-0.0","battery-v0.2","","""event"",""trial"",""time""
""fullscreenenter"",""1"",""2214""
","
","
","""event"",""trial"",""time""
""fullscreenenter"",""1"",""2214""
","
","","","5946.600000023842","[""10""]","0","11","1639","335","","","","","","","","","","","","","","","","","","","",""
"pit-instructions","51","666489","0.0-2.0-21.0-1.0","battery-v0.2","","""event"",""trial"",""time""
""fullscreenenter"",""1"",""2214""
","
","
","""event"",""trial"",""time""
""fullscreenenter"",""1"",""2214""
","
","","[{""page_index"":0,""viewing_time"":3419.899999976158}]","3420.600000023842","","","","","","","","","","","","","","","","","","","","","","","","",""
"pit-comprehension","52","673313","0.0-2.0-22.0-0.0","battery-v0.2","","""event"",""trial"",""time""
""fullscreenenter"",""1"",""2214""
","
","
","""event"",""trial"",""time""
""fullscreenenter"",""1"",""2214""
","
","","","6823.100000023842","[""0""]","0","11","1639","335","","","","","","","","","","","","","","","","","","","",""
"pit-instructions","53","676109","0.0-2.0-22.0-1.0","battery-v0.2","","""event"",""trial"",""time""
""fullscreenenter"",""1"",""2214""
","
","
","""event"",""trial"",""time""
""fullscreenenter"",""1"",""2214""
","
","","[{""page_index"":0,""viewing_time"":2770.2000000476837}]","2770.8000000715256","","","","","","","","","","","","","","","","","","","","","","","","",""
"pit-comprehension","54","690341","0.0-2.0-23.0-0.0","battery-v0.2","","""event"",""trial"",""time""
""fullscreenenter"",""1"",""2214""
","
","
","""event"",""trial"",""time""
""fullscreenenter"",""1"",""2214""
","
","","","14227.900000095367","[""False""]","1","11","1639","335","","","","","","","","","","","","","","","","","","","",""
"pit-instructions","55","693096","0.0-2.0-23.0-1.0","battery-v0.2","","""event"",""trial"",""time""
""fullscreenenter"",""1"",""2214""
","
","
","""event"",""trial"",""time""
""fullscreenenter"",""1"",""2214""
","
","","[{""page_index"":0,""viewing_time"":2729}]","2729.5999999046326","","","","","","","","","","","","","","","","","","","","","","","","",""
"pit-instructions","56","693958","0.0-2.0-23.0-2.0-0.0","battery-v0.2","","""event"",""trial"",""time""
""fullscreenenter"",""1"",""2214""
","
","
","""event"",""trial"",""time""
""fullscreenenter"",""1"",""2214""
","
","","[{""page_index"":0,""viewing_time"":858.4000000953674}]","858.9000000953674","","","","","","","","","","","","","","","","","","","","","","","","",""
"pit-comprehension","57","702395","0.0-2.0-23.1-0.1","battery-v0.2","","""event"",""trial"",""time""
""fullscreenenter"",""1"",""2214""
","
","
","""event"",""trial"",""time""
""fullscreenenter"",""1"",""2214""
","
","","","8433.300000071526","[""True""]","0","11","1639","335","","","","","","","","","","","","","","","","","","","",""
"pit-instructions","58","705696","0.0-2.0-23.1-1.1","battery-v0.2","","""event"",""trial"",""time""
""fullscreenenter"",""1"",""2214""
","
","
","""event"",""trial"",""time""
""fullscreenenter"",""1"",""2214""
","
","","[{""page_index"":0,""viewing_time"":3272.899999976158}]","3273.399999976158","","","","","","","","","","","","","","","","","","","","","","","","",""
"pit-comprehension","59","714563","0.0-2.0-24.0-0.0","battery-v0.2","","""event"",""trial"",""time""
""fullscreenenter"",""1"",""2214""
","
","
","""event"",""trial"",""time""
""fullscreenenter"",""1"",""2214""
","
","","","8862.399999976158","[""True""]","0","11","1639","335","","","","","","","","","","","","","","","","","","","",""
"pit-instructions","60","717626","0.0-2.0-24.0-1.0","battery-v0.2","","""event"",""trial"",""time""
""fullscreenenter"",""1"",""2214""
","
","
","""event"",""trial"",""time""
""fullscreenenter"",""1"",""2214""
","
","","[{""page_index"":0,""viewing_time"":3031.6999999284744}]","3032.399999976158","","","","","","","","","","","","","","","","","","","","","","","","",""
"pit-comprehension","61","725101","0.0-2.0-25.0-0.0","battery-v0.2","","""event"",""trial"",""time""
""fullscreenenter"",""1"",""2214""
","
","
","""event"",""trial"",""time""
""fullscreenenter"",""1"",""2214""
","
","","","7470.200000047684","[""True""]","0","11","1639","335","","","","","","","","","","","","","","","","","","","",""
"pit-instructions","62","728148","0.0-2.0-25.0-1.0","battery-v0.2","","""event"",""trial"",""time""
""fullscreenenter"",""1"",""2214""
","
","
","""event"",""trial"",""time""
""fullscreenenter"",""1"",""2214""
","
","","[{""page_index"":0,""viewing_time"":3014.399999976158}]","3015","","","","","","","","","","","","","","","","","","","","","","","","",""
"pit-comprehension","63","734346","0.0-2.0-26.0-0.0","battery-v0.2","","""event"",""trial"",""time""
""fullscreenenter"",""1"",""2214""
","
","
","""event"",""trial"",""time""
""fullscreenenter"",""1"",""2214""
","
","","","6196","[""False""]","0","11","1639","335","","","","","","","","","","","","","","","","","","","",""
"pit-instructions","64","738156","0.0-2.0-26.0-1.0","battery-v0.2","","""event"",""trial"",""time""
""fullscreenenter"",""1"",""2214""
","
","
","""event"",""trial"",""time""
""fullscreenenter"",""1"",""2214""
","
","","[{""page_index"":0,""viewing_time"":3782.5}]","3783","","","","","","","","","","","","","","","","","","","","","","","","",""
"pit-instructions","65","760153","0.0-3.0","battery-v0.2","","""event"",""trial"",""time""
""fullscreenenter"",""1"",""2214""
","
","
","""event"",""trial"",""time""
""fullscreenenter"",""1"",""2214""
","
","","[{""page_index"":0,""viewing_time"":5027.899999976158},{""page_index"":1,""viewing_time"":6023.399999976158},{""page_index"":2,""viewing_time"":10942.100000023842}]","21993.899999976158","","","","","","","","","","","","","","","","","","","","","","","","",""
"pit-trial","66","765023","0.0-4.0","battery-v0.2","","""event"",""trial"",""time""
""fullscreenenter"",""1"",""2214""
","
","
","""event"",""trial"",""time""
""fullscreenenter"",""1"",""2214""
","
","","","-1","","","11","1639","335","&#9752;","elianto","#f73b6a7A"," ","-1","0","-10","[]","0","1","","","1639","1","3","3","lose","go","0","[]"
"pit-trial","67","769895","0.0-5.0","battery-v0.2","","""event"",""trial"",""time""
""fullscreenenter"",""1"",""2214""
","
","
","""event"",""trial"",""time""
""fullscreenenter"",""1"",""2214""
","
","","","-1","","","11","1639","335","&#9730;","elianto","#3366ff99"," ","-1","0","+10","[]","0","1","","","1639","2","1","1","win","go","1","0"
"pit-trial","68","774763","0.0-6.0","battery-v0.2","","""event"",""trial"",""time""
""fullscreenenter"",""1"",""2214""
","
","
","""event"",""trial"",""time""
""fullscreenenter"",""1"",""2214""
","
","","","-1","","","11","1639","335","&#9728;","elianto","#f73b6a7A","-1","-1","1","0","[]","0","1","","","1639","3","0","4","lose","no-go","0","0"
"pit-trial","69","779634","0.0-7.0","battery-v0.2","","""event"",""trial"",""time""
""fullscreenenter"",""1"",""2214""
","
","
","""event"",""trial"",""time""
""fullscreenenter"",""1"",""2214""
","
","","","-1","","","11","1639","335","&#9733;","elianto","#3366ff99","-1","-1","1","+10","[]","0","1","","","1639","4","2","2","win","no-go","0","0"
"pit-trial","70","784513","0.0-8.0","battery-v0.2","","""event"",""trial"",""time""
""fullscreenenter"",""1"",""2214""
","
","
","""event"",""trial"",""time""
""fullscreenenter"",""1"",""2214""
","
","","","-1","","","11","1639","335","&#9752;","elianto","#f73b6a7A"," ","-1","0","-10","[]","0","1","","","1639","5","3","3","lose","go","0","0"
"pit-trial","71","789388","0.0-9.0","battery-v0.2","","""event"",""trial"",""time""
""fullscreenenter"",""1"",""2214""
","
","
","""event"",""trial"",""time""
""fullscreenenter"",""1"",""2214""
","
","","","-1","","","11","1639","335","&#9730;","elianto","#3366ff99"," ","-1","0","0","[]","0","1","","","1639","6","1","1","win","go","0","0"
"pit-trial","72","793342","0.0-10.0","battery-v0.2","","""event"",""trial"",""time""
""fullscreenenter"",""1"",""2214""
","
","
","""event"",""trial"",""time""
""fullscreenenter"",""1"",""2214""
","
","","","1094.0999999046326","","","11","1639","335","&#9733;","elianto","#3366ff99","-1"," ","0","0","[1944.2000000476837]","1","1","","","1639","7","2","2","win","no-go","0","0"
"pit-trial","73","798202","0.0-11.0","battery-v0.2","","""event"",""trial"",""time""
""fullscreenenter"",""1"",""2214""
","
","
","""event"",""trial"",""time""
""fullscreenenter"",""1"",""2214""
","
","","","-1","","","11","1639","335","&#9728;","elianto","#f73b6a7A","-1","-1","1","0","[]","0","1","","","1639","8","0","4","lose","no-go","0","0"
"pit-trial","74","802612","0.0-12.0","battery-v0.2","","""event"",""trial"",""time""
""fullscreenenter"",""1"",""2214""
","
","
","""event"",""trial"",""time""
""fullscreenenter"",""1"",""2214""
","
","","","1548.7000000476837","","","11","1639","335","&#9752;","elianto","#f73b6a7A"," "," ","1","0","[2401.2000000476837]","1","1","","","1639","9","3","3","lose","go","0","0"
"pit-trial","75","806425","0.0-13.0","battery-v0.2","","""event"",""trial"",""time""
""fullscreenenter"",""1"",""2214""
","
","
","""event"",""trial"",""time""
""fullscreenenter"",""1"",""2214""
","
","","","948.3999999761581","","","11","1639","335","&#9730;","elianto","#3366ff99"," "," ","1","+10","[1806.3999999761581]","1","1","","","1639","10","1","1","win","go","0","0"
"pit-trial","76","810645","0.0-14.0","battery-v0.2","","""event"",""trial"",""time""
""fullscreenenter"",""1"",""2214""
","
","
","""event"",""trial"",""time""
""fullscreenenter"",""1"",""2214""
","
","","","1360.7000000476837","","","11","1639","335","&#9728;","elianto","#f73b6a7A","-1"," ","0","-10","[2211.600000023842]","1","1","","","1639","11","0","4","lose","no-go","0","0"
"pit-trial","77","815507","0.0-15.0","battery-v0.2","","""event"",""trial"",""time""
""fullscreenenter"",""1"",""2214""
","
","
","""event"",""trial"",""time""
""fullscreenenter"",""1"",""2214""
","
","","","-1","","","11","1639","335","&#9733;","elianto","#3366ff99","-1","-1","1","+10","[]","0","1","","","1639","12","2","2","win","no-go","0","0"
"pit-trial","78","819967","0.0-16.0","battery-v0.2","","""event"",""trial"",""time""
""fullscreenenter"",""1"",""2214""
","
","
","""event"",""trial"",""time""
""fullscreenenter"",""1"",""2214""
","
","","","1602.7999999523163","","","11","1639","335","&#9728;","elianto","#f73b6a7A","-1"," ","0","0","[2453.2000000476837]","1","1","","","1639","13","0","4","lose","no-go","1","0"
"pit-trial","79","823680","0.0-17.0","battery-v0.2","","""event"",""trial"",""time""
""fullscreenenter"",""1"",""2214""
","
","
","""event"",""trial"",""time""
""fullscreenenter"",""1"",""2214""
","
","","","857.8999999761581","","","11","1639","335","&#9733;","elianto","#3366ff99","-1"," ","0","0","[1708]","1","1","","","1639","14","2","2","win","no-go","0","0"
"pit-trial","80","827836","0.0-18.0","battery-v0.2","","""event"",""trial"",""time""
""fullscreenenter"",""1"",""2214""
","
","
","""event"",""trial"",""time""
""fullscreenenter"",""1"",""2214""
","
","","","1298.8999999761581","","","11","1639","335","&#9752;","elianto","#f73b6a7A"," "," ","1","0","[2149.3000000715256]","1","1","","","1639","15","3","3","lose","go","0","0"
"pit-trial","81","831675","0.0-19.0","battery-v0.2","","""event"",""trial"",""time""
""fullscreenenter"",""1"",""2214""
","
","
","""event"",""trial"",""time""
""fullscreenenter"",""1"",""2214""
","
","","","980.6000000238419","","","11","1639","335","&#9730;","elianto","#3366ff99"," "," ","1","+10","[1834.8000000715256]","1","1","","","1639","16","1","1","win","go","0","0"
"pit-trial","82","835508","0.0-20.0","battery-v0.2","","""event"",""trial"",""time""
""fullscreenenter"",""1"",""2214""
","
","
","""event"",""trial"",""time""
""fullscreenenter"",""1"",""2214""
","
","","","974.5","","","11","1639","335","&#9752;","elianto","#f73b6a7A"," "," ","1","0","[1825.3999999761581]","1","1","","","1639","17","3","3","lose","go","0","0"
"pit-trial","83","839277","0.0-21.0","battery-v0.2","","""event"",""trial"",""time""
""fullscreenenter"",""1"",""2214""
","
","
","""event"",""trial"",""time""
""fullscreenenter"",""1"",""2214""
","
","","","912.6000000238419","","","11","1639","335","&#9728;","elianto","#f73b6a7A","-1"," ","0","-10","[1763.7999999523163]","1","1","","","1639","18","0","4","lose","no-go","0","0"
"pit-trial","84","842858","0.0-22.0","battery-v0.2","","""event"",""trial"",""time""
""fullscreenenter"",""1"",""2214""
","
","
","""event"",""trial"",""time""
""fullscreenenter"",""1"",""2214""
","
","","","723.8000000715256","","","11","1639","335","&#9730;","elianto","#3366ff99"," "," ","1","+10","[1574.1000000238419]","1","1","","","1639","19","1","1","win","go","0","0"
"pit-trial","85","847719","0.0-23.0","battery-v0.2","","""event"",""trial"",""time""
""fullscreenenter"",""1"",""2214""
","
","
","""event"",""trial"",""time""
""fullscreenenter"",""1"",""2214""
","
","","","-1","","","11","1639","335","&#9733;","elianto","#3366ff99","-1","-1","1","+10","[]","0","1","","","1639","20","2","2","win","no-go","0","0"
"pit-instructions","86","994233","0.0-24.0","battery-v0.2","","""event"",""trial"",""time""
""fullscreenenter"",""1"",""2214""
","
","
","""event"",""trial"",""time""
""fullscreenenter"",""1"",""2214""
","
","","[{""page_index"":0,""viewing_time"":6589.700000047684},{""page_index"":1,""viewing_time"":139922.69999992847}]","146513","","","","","","","","","","","","","","","","","","","","","","","","",""
"pit-trial","87","999095","0.0-25.0","battery-v0.2","","""event"",""trial"",""time""
""fullscreenenter"",""1"",""2214""
","
","
","""event"",""trial"",""time""
""fullscreenenter"",""1"",""2214""
","
","","","-1","","","11","1639","335","u","elianto","#3366ff99","-1","-1","1","0","[]","0","2","","","1639","21","0","2","win","no-go","1","0"
"pit-trial","88","1002887","0.0-26.0","battery-v0.2","","""event"",""trial"",""time""
""fullscreenenter"",""1"",""2214""
","
","
","""event"",""trial"",""time""
""fullscreenenter"",""1"",""2214""
","
","","","930.5999999046326","","","11","1639","335","g","elianto","#f73b6a7A"," "," ","1","0","[1781.2000000476837]","1","2","","","1639","22","3","3","lose","go","0","0"
"pit-trial","89","1007014","0.0-27.0","battery-v0.2","","""event"",""trial"",""time""
""fullscreenenter"",""1"",""2214""
","
","
","""event"",""trial"",""time""
""fullscreenenter"",""1"",""2214""
","
","","","1269.7999999523163","","","11","1639","335","l","elianto","#3366ff99","-1"," ","0","+10","[2122.1999999284744]","1","2","","","1639","23","1","2","win","no-go","1","0"
"pit-trial","90","1011880","0.0-28.0","battery-v0.2","","""event"",""trial"",""time""
""fullscreenenter"",""1"",""2214""
","
","
","""event"",""trial"",""time""
""fullscreenenter"",""1"",""2214""
","
","","","-1","","","11","1639","335","a","elianto","#3366ff99"," ","-1","0","0","[]","0","2","","","1639","24","2","1","win","go","0","0"
"pit-trial","91","1016024","0.0-29.0","battery-v0.2","","""event"",""trial"",""time""
""fullscreenenter"",""1"",""2214""
","
","
","""event"",""trial"",""time""
""fullscreenenter"",""1"",""2214""
","
","","","1282.6000000238419","","","11","1639","335","u","elianto","#3366ff99","-1"," ","0","+10","[2140.399999976158]","1","2","","","1639","25","0","2","win","no-go","1","0"
"pit-trial","92","1020393","0.0-30.0","battery-v0.2","","""event"",""trial"",""time""
""fullscreenenter"",""1"",""2214""
","
","
","""event"",""trial"",""time""
""fullscreenenter"",""1"",""2214""
","
","","","1507.3999999761581","","","11","1639","335","l","elianto","#3366ff99","-1"," ","0","+10","[2358.100000023842]","1","2","","","1639","26","1","2","win","no-go","1","0"
"pit-trial","93","1025258","0.0-31.0","battery-v0.2","","""event"",""trial"",""time""
""fullscreenenter"",""1"",""2214""
","
","
","""event"",""trial"",""time""
""fullscreenenter"",""1"",""2214""
","
","","","-1","","","11","1639","335","g","elianto","#f73b6a7A"," ","-1","0","-10","[]","0","2","","","1639","27","3","3","lose","go","0","0"
"pit-trial","94","1030127","0.0-32.0","battery-v0.2","","""event"",""trial"",""time""
""fullscreenenter"",""1"",""2214""
","
","
","""event"",""trial"",""time""
""fullscreenenter"",""1"",""2214""
","
","","","-1","","","11","1639","335","a","elianto","#3366ff99"," ","-1","0","+10","[2996.5]","1","2","","","1639","28","2","1","win","go","1","0"
"pit-trial","95","1034169","0.0-33.0","battery-v0.2","","""event"",""trial"",""time""
""fullscreenenter"",""1"",""2214""
","
","
","""event"",""trial"",""time""
""fullscreenenter"",""1"",""2214""
","
","","","1181.5","","","11","1639","335","a","elianto","#3366ff99"," "," ","1","+10","[2032.5]","1","2","","","1639","29","2","1","win","go","0","0"
"pit-trial","96","1039040","0.0-34.0","battery-v0.2","","""event"",""trial"",""time""
""fullscreenenter"",""1"",""2214""
","
","
","""event"",""trial"",""time""
""fullscreenenter"",""1"",""2214""
","
","","","-1","","","11","1639","335","l","elianto","#3366ff99","-1","-1","1","0","[]","0","2","","","1639","30","1","2","win","no-go","1","0"
"pit-trial","97","1042756","0.0-35.0","battery-v0.2","","""event"",""trial"",""time""
""fullscreenenter"",""1"",""2214""
","
","
","""event"",""trial"",""time""
""fullscreenenter"",""1"",""2214""
","
","","","851.5999999046326","","","11","1639","335","u","elianto","#3366ff99","-1"," ","0","0","[1707.0999999046326]","1","2","","","1639","31","0","2","win","no-go","0","0"
"pit-trial","98","1047620","0.0-36.0","battery-v0.2","","""event"",""trial"",""time""
""fullscreenenter"",""1"",""2214""
","
","
","""event"",""trial"",""time""
""fullscreenenter"",""1"",""2214""
","
","","","-1","","","11","1639","335","g","elianto","#f73b6a7A"," ","-1","0","-10","[]","0","2","","","1639","32","3","3","lose","go","0","0"
"pit-trial","99","1052209","0.0-37.0","battery-v0.2","","""event"",""trial"",""time""
""fullscreenenter"",""1"",""2214""
","
","
","""event"",""trial"",""time""
""fullscreenenter"",""1"",""2214""
","
","","","1725.5","","","11","1639","335","l","elianto","#3366ff99","-1"," ","0","0","[2577.5]","1","2","","","1639","33","1","2","win","no-go","0","0"
"pit-trial","100","1056087","0.0-38.0","battery-v0.2","","""event"",""trial"",""time""
""fullscreenenter"",""1"",""2214""
","
","
","""event"",""trial"",""time""
""fullscreenenter"",""1"",""2214""
","
","","","1010.2000000476837","","","11","1639","335","u","elianto","#3366ff99","-1"," ","0","0","[1862.4000000953674]","1","2","","","1639","34","0","2","win","no-go","0","0"
"pit-trial","101","1059647","0.0-39.0","battery-v0.2","","""event"",""trial"",""time""
""fullscreenenter"",""1"",""2214""
","
","
","""event"",""trial"",""time""
""fullscreenenter"",""1"",""2214""
","
","","","698.8000000715256","","","11","1639","335","g","elianto","#f73b6a7A"," "," ","1","0","[1549.8999999761581]","1","2","","","1639","35","3","3","lose","go","0","0"
"pit-trial","102","1063556","0.0-40.0","battery-v0.2","","""event"",""trial"",""time""
""fullscreenenter"",""1"",""2214""
","
","
","""event"",""trial"",""time""
""fullscreenenter"",""1"",""2214""
","
","","","1052.6000000238419","","","11","1639","335","a","elianto","#3366ff99"," "," ","1","0","[1903.2000000476837]","1","2","","","1639","36","2","1","win","go","1","0"
"pit-trial","103","1068427","0.0-41.0","battery-v0.2","","""event"",""trial"",""time""
""fullscreenenter"",""1"",""2214""
","
","
","""event"",""trial"",""time""
""fullscreenenter"",""1"",""2214""
","
","","","-1","","","11","1639","335","a","elianto","#3366ff99"," ","-1","0","+10","[]","0","2","","","1639","37","2","1","win","go","1","0"
"pit-trial","104","1072355","0.0-42.0","battery-v0.2","","""event"",""trial"",""time""
""fullscreenenter"",""1"",""2214""
","
","
","""event"",""trial"",""time""
""fullscreenenter"",""1"",""2214""
","
","","","1061.8000000715256","","","11","1639","335","u","elianto","#3366ff99","-1"," ","0","0","[1916.3999999761581]","1","2","","","1639","38","0","2","win","no-go","0","0"
"pit-trial","105","1076313","0.0-43.0","battery-v0.2","","""event"",""trial"",""time""
""fullscreenenter"",""1"",""2214""
","
","
","""event"",""trial"",""time""
""fullscreenenter"",""1"",""2214""
","
","","","1099","","","11","1639","335","g","elianto","#f73b6a7A"," "," ","1","0","[1949.4000000953674]","1","2","","","1639","39","3","3","lose","go","0","0"
"pit-trial","106","1081005","0.0-44.0","battery-v0.2","","""event"",""trial"",""time""
""fullscreenenter"",""1"",""2214""
","
","
","""event"",""trial"",""time""
""fullscreenenter"",""1"",""2214""
","
","","","1835.6000000238419","","","11","1639","335","l","elianto","#3366ff99","-1"," ","0","+10","[2686.1999999284744]","1","2","","","1639","40","1","2","win","no-go","1","0"
"pit-trial","107","1085871","0.0-45.0","battery-v0.2","","""event"",""trial"",""time""
""fullscreenenter"",""1"",""2214""
","
","
","""event"",""trial"",""time""
""fullscreenenter"",""1"",""2214""
","
","","","-1","","","11","1639","335","l","elianto","#3366ff99","-1","-1","1","+10","[2957.6999999284744]","1","2","","","1639","41","1","2","win","no-go","0","0"
"pit-trial","108","1090729","0.0-46.0","battery-v0.2","","""event"",""trial"",""time""
""fullscreenenter"",""1"",""2214""
","
","
","""event"",""trial"",""time""
""fullscreenenter"",""1"",""2214""
","
","","","-1","","","11","1639","335","g","elianto","#f73b6a7A"," ","-1","0","0","[2857.2999999523163]","1","2","","","1639","42","3","3","lose","go","1","0"
"pit-trial","109","1095585","0.0-47.0","battery-v0.2","","""event"",""trial"",""time""
""fullscreenenter"",""1"",""2214""
","
","
","""event"",""trial"",""time""
""fullscreenenter"",""1"",""2214""
","
","","","-1","","","11","1639","335","u","elianto","#3366ff99","-1","-1","1","+10","[]","0","2","","","1639","43","0","2","win","no-go","0","0"
"pit-trial","110","1100299","0.0-48.0","battery-v0.2","","""event"",""trial"",""time""
""fullscreenenter"",""1"",""2214""
","
","
","""event"",""trial"",""time""
""fullscreenenter"",""1"",""2214""
","
","","","1851.2999999523163","","","11","1639","335","a","elianto","#3366ff99"," "," ","1","0","[2703]","1","2","","","1639","44","2","1","win","go","1","0"
"pit-trial","111","1104321","0.0-49.0","battery-v0.2","","""event"",""trial"",""time""
""fullscreenenter"",""1"",""2214""
","
","
","""event"",""trial"",""time""
""fullscreenenter"",""1"",""2214""
","
","","","1158.6000000238419","","","11","1639","335","l","elianto","#3366ff99","-1"," ","0","0","[2017.3999999761581]","1","2","","","1639","45","1","2","win","no-go","0","0"
"pit-trial","112","1108145","0.0-50.0","battery-v0.2","","""event"",""trial"",""time""
""fullscreenenter"",""1"",""2214""
","
","
","""event"",""trial"",""time""
""fullscreenenter"",""1"",""2214""
","
","","","963.7999999523163","","","11","1639","335","g","elianto","#f73b6a7A"," "," ","1","0","[1817.1000000238419]","1","2","","","1639","46","3","3","lose","go","0","0"
"pit-trial","113","1111807","0.0-51.0","battery-v0.2","","""event"",""trial"",""time""
""fullscreenenter"",""1"",""2214""
","
","
","""event"",""trial"",""time""
""fullscreenenter"",""1"",""2214""
","
","","","808","","","11","1639","335","u","elianto","#3366ff99","-1"," ","0","0","[1658.2999999523163]","1","2","","","1639","47","0","2","win","no-go","0","0"
"pit-trial","114","1115482","0.0-52.0","battery-v0.2","","""event"",""trial"",""time""
""fullscreenenter"",""1"",""2214""
","
","
","""event"",""trial"",""time""
""fullscreenenter"",""1"",""2214""
","
","","","814.6000000238419","","","11","1639","335","a","elianto","#3366ff99"," "," ","1","+10","[1665.2000000476837]","1","2","","","1639","48","2","1","win","go","0","0"
"pit-trial","115","1119974","0.0-53.0","battery-v0.2","","""event"",""trial"",""time""
""fullscreenenter"",""1"",""2214""
","
","
","""event"",""trial"",""time""
""fullscreenenter"",""1"",""2214""
","
","","","1624.1999999284744","","","11","1639","335","a","elianto","#3366ff99"," "," ","1","+10","[2482.1999999284744]","1","2","","","1639","49","2","1","win","go","0","0"
"pit-trial","116","1124840","0.0-54.0","battery-v0.2","","""event"",""trial"",""time""
""fullscreenenter"",""1"",""2214""
","
","
","""event"",""trial"",""time""
""fullscreenenter"",""1"",""2214""
","
","","","-1","","","11","1639","335","u","elianto","#3366ff99","-1","-1","1","0","[]","0","2","","","1639","50","0","2","win","no-go","1","0"
"pit-trial","117","1128908","0.0-55.0","battery-v0.2","","""event"",""trial"",""time""
""fullscreenenter"",""1"",""2214""
","
","
","""event"",""trial"",""time""
""fullscreenenter"",""1"",""2214""
","
","","","1207.6000000238419","","","11","1639","335","l","elianto","#3366ff99","-1"," ","0","0","[2062.7000000476837]","1","2","","","1639","51","1","2","win","no-go","0","0"
"pit-trial","118","1132643","0.0-56.0","battery-v0.2","","""event"",""trial"",""time""
""fullscreenenter"",""1"",""2214""
","
","
","""event"",""trial"",""time""
""fullscreenenter"",""1"",""2214""
","
","","","875","","","11","1639","335","g","elianto","#f73b6a7A"," "," ","1","0","[1726.1999999284744]","1","2","","","1639","52","3","3","lose","go","0","0"
"pit-trial","119","1137508","0.0-57.0","battery-v0.2","","""event"",""trial"",""time""
""fullscreenenter"",""1"",""2214""
","
","
","""event"",""trial"",""time""
""fullscreenenter"",""1"",""2214""
","
","","","-1","","","11","1639","335","p","elianto","#f73b6a7A","-1","-1","1","-10","[]","0","2","","","1639","53","4","4","lose","no-go","1","0"
"pit-trial","120","1141530","0.0-58.0","battery-v0.2","","""event"",""trial"",""time""
""fullscreenenter"",""1"",""2214""
","
","
","""event"",""trial"",""time""
""fullscreenenter"",""1"",""2214""
","
","","","1159.6999999284744","","","11","1639","335","a","elianto","#3366ff99"," "," ","1","0","[2012]","1","2","","","1639","54","2","1","win","go","1","0"
"pit-trial","121","1146392","0.0-59.0","battery-v0.2","","""event"",""trial"",""time""
""fullscreenenter"",""1"",""2214""
","
","
","""event"",""trial"",""time""
""fullscreenenter"",""1"",""2214""
","
","","","-1","","","11","1639","335","s","elianto","#f73b6a7A"," ","-1","0","-10","[2958.1999999284744]","1","2","","","1639","55","5","3","lose","go","0","0"
"pit-trial","122","1151254","0.0-60.0","battery-v0.2","","""event"",""trial"",""time""
""fullscreenenter"",""1"",""2214""
","
","
","""event"",""trial"",""time""
""fullscreenenter"",""1"",""2214""
","
","","","-1","","","11","1639","335","u","elianto","#3366ff99","-1","-1","1","+10","[]","0","2","","","1639","56","0","2","win","no-go","0","0"
"pit-trial","123","1155407","0.0-61.0","battery-v0.2","","""event"",""trial"",""time""
""fullscreenenter"",""1"",""2214""
","
","
","""event"",""trial"",""time""
""fullscreenenter"",""1"",""2214""
","
","","","1295.4000000953674","","","11","1639","335","a","elianto","#3366ff99"," "," ","1","0","[2145.600000023842]","1","2","","","1639","57","2","1","win","go","1","0"
"pit-trial","124","1159219","0.0-62.0","battery-v0.2","","""event"",""trial"",""time""
""fullscreenenter"",""1"",""2214""
","
","
","""event"",""trial"",""time""
""fullscreenenter"",""1"",""2214""
","
","","","950.3999999761581","","","11","1639","335","s","elianto","#f73b6a7A"," "," ","1","0","[1802.2999999523163]","1","2","","","1639","58","5","3","lose","go","0","0"
"pit-trial","125","1163638","0.0-63.0","battery-v0.2","","""event"",""trial"",""time""
""fullscreenenter"",""1"",""2214""
","
","
","""event"",""trial"",""time""
""fullscreenenter"",""1"",""2214""
","
","","","1563.3999999761581","","","11","1639","335","p","elianto","#f73b6a7A","-1"," ","0","-10","[2414.899999976158]","1","2","","","1639","59","4","4","lose","no-go","0","0"
"pit-trial","126","1168499","0.0-64.0","battery-v0.2","","""event"",""trial"",""time""
""fullscreenenter"",""1"",""2214""
","
","
","""event"",""trial"",""time""
""fullscreenenter"",""1"",""2214""
","
","","","-1","","","11","1639","335","u","elianto","#3366ff99","-1","-1","1","+10","[]","0","2","","","1639","60","0","2","win","no-go","0","0"
"pit-trial","127","1173107","0.0-65.0","battery-v0.2","","""event"",""trial"",""time""
""fullscreenenter"",""1"",""2214""
","
","
","""event"",""trial"",""time""
""fullscreenenter"",""1"",""2214""
","
","","","1747.0999999046326","","","11","1639","335","w","elianto","#3366ff99","-1"," ","0","0","[2601.4000000953674]","1","2","","","1639","61","6","2","win","no-go","0","0"
"pit-trial","128","1177977","0.0-66.0","battery-v0.2","","""event"",""trial"",""time""
""fullscreenenter"",""1"",""2214""
","
","
","""event"",""trial"",""time""
""fullscreenenter"",""1"",""2214""
","
","","","-1","","","11","1639","335","p","elianto","#f73b6a7A","-1","-1","1","-10","[]","0","2","","","1639","62","4","4","lose","no-go","1","0"
"pit-trial","129","1182605","0.0-67.0","battery-v0.2","","""event"",""trial"",""time""
""fullscreenenter"",""1"",""2214""
","
","
","""event"",""trial"",""time""
""fullscreenenter"",""1"",""2214""
","
","","","1761","","","11","1639","335","a","elianto","#3366ff99"," "," ","1","+10","[2616.7000000476837]","1","2","","","1639","63","2","1","win","go","0","0"
"pit-trial","130","1186460","0.0-68.0","battery-v0.2","","""event"",""trial"",""time""
""fullscreenenter"",""1"",""2214""
","
","
","""event"",""trial"",""time""
""fullscreenenter"",""1"",""2214""
","
","","","994.3999999761581","","","11","1639","335","s","elianto","#f73b6a7A"," "," ","1","0","[1844.6000000238419]","1","2","","","1639","64","5","3","lose","go","0","0"
"pit-trial","131","1190840","0.0-69.0","battery-v0.2","","""event"",""trial"",""time""
""fullscreenenter"",""1"",""2214""
","
","
","""event"",""trial"",""time""
""fullscreenenter"",""1"",""2214""
","
","","","1517.3999999761581","","","11","1639","335","a","elianto","#3366ff99"," "," ","1","+10","[2369.899999976158]","1","2","","","1639","65","2","1","win","go","0","0"
"pit-trial","132","1194713","0.0-70.0","battery-v0.2","","""event"",""trial"",""time""
""fullscreenenter"",""1"",""2214""
","
","
","""event"",""trial"",""time""
""fullscreenenter"",""1"",""2214""
","
","","","998.8999999761581","","","11","1639","335","w","elianto","#3366ff99","-1"," ","0","0","[1856.7999999523163]","1","2","","","1639","66","6","2","win","no-go","0","0"
"pit-trial","133","1199171","0.0-71.0","battery-v0.2","","""event"",""trial"",""time""
""fullscreenenter"",""1"",""2214""
","
","
","""event"",""trial"",""time""
""fullscreenenter"",""1"",""2214""
","
","","","1597.4000000953674","","","11","1639","335","p","elianto","#f73b6a7A","-1"," ","0","0","[2450.600000023842]","1","2","","","1639","67","4","4","lose","no-go","1","0"
"pit-trial","134","1203415","0.0-72.0","battery-v0.2","","""event"",""trial"",""time""
""fullscreenenter"",""1"",""2214""
","
","
","""event"",""trial"",""time""
""fullscreenenter"",""1"",""2214""
","
","","","1389.1000000238419","","","11","1639","335","s","elianto","#f73b6a7A"," "," ","1","0","[2240.600000023842]","1","2","","","1639","68","5","3","lose","go","0","0"
"pit-trial","135","1207396","0.0-73.0","battery-v0.2","","""event"",""trial"",""time""
""fullscreenenter"",""1"",""2214""
","
","
","""event"",""trial"",""time""
""fullscreenenter"",""1"",""2214""
","
","","","1121.5","","","11","1639","335","w","elianto","#3366ff99","-1"," ","0","0","[1972.6000000238419]","1","2","","","1639","69","6","2","win","no-go","0","0"
"pit-trial","136","1212235","0.0-74.0","battery-v0.2","","""event"",""trial"",""time""
""fullscreenenter"",""1"",""2214""
","
","
","""event"",""trial"",""time""
""fullscreenenter"",""1"",""2214""
","
","","","1976.6000000238419","","","11","1639","335","e","elianto","#f73b6a7A","-1"," ","0","-10","[2829.7000000476837]","1","2","","","1639","70","7","4","lose","no-go","0","0"
"pit-trial","137","1215940","0.0-75.0","battery-v0.2","","""event"",""trial"",""time""
""fullscreenenter"",""1"",""2214""
","
","
","""event"",""trial"",""time""
""fullscreenenter"",""1"",""2214""
","
","","","844","","","11","1639","335","s","elianto","#f73b6a7A"," "," ","1","0","[1696]","1","2","","","1639","71","5","3","lose","go","0","0"
"pit-trial","138","1220801","0.0-76.0","battery-v0.2","","""event"",""trial"",""time""
""fullscreenenter"",""1"",""2214""
","
","
","""event"",""trial"",""time""
""fullscreenenter"",""1"",""2214""
","
","","","-1","","","11","1639","335","p","elianto","#f73b6a7A","-1","-1","1","0","[2998.899999976158]","1","2","","","1639","72","4","4","lose","no-go","0","0"
"pit-trial","139","1224748","0.0-77.0","battery-v0.2","","""event"",""trial"",""time""
""fullscreenenter"",""1"",""2214""
","
","
","""event"",""trial"",""time""
""fullscreenenter"",""1"",""2214""
","
","","","1086.5999999046326","","","11","1639","335","w","elianto","#3366ff99","-1"," ","0","0","[1939.1999999284744]","1","2","","","1639","73","6","2","win","no-go","0","0"
"pit-trial","140","1229340","0.0-78.0","battery-v0.2","","""event"",""trial"",""time""
""fullscreenenter"",""1"",""2214""
","
","
","""event"",""trial"",""time""
""fullscreenenter"",""1"",""2214""
","
","","","1735.3999999761581","","","11","1639","335","e","elianto","#f73b6a7A","-1"," ","0","-10","[2585.7999999523163]","1","2","","","1639","74","7","4","lose","no-go","0","0"
"pit-trial","141","1234211","0.0-79.0","battery-v0.2","","""event"",""trial"",""time""
""fullscreenenter"",""1"",""2214""
","
","
","""event"",""trial"",""time""
""fullscreenenter"",""1"",""2214""
","
","","","-1","","","11","1639","335","s","elianto","#f73b6a7A"," ","-1","0","-10","[]","0","2","","","1639","75","5","3","lose","go","0","0"
"pit-trial","142","1239046","0.0-80.0","battery-v0.2","","""event"",""trial"",""time""
""fullscreenenter"",""1"",""2214""
","
","
","""event"",""trial"",""time""
""fullscreenenter"",""1"",""2214""
","
","","","1975","","","11","1639","335","p","elianto","#f73b6a7A","-1"," ","0","-10","[2829.5]","1","2","","","1639","76","4","4","lose","no-go","0","0"
"pit-trial","143","1243907","0.0-81.0","battery-v0.2","","""event"",""trial"",""time""
""fullscreenenter"",""1"",""2214""
","
","
","""event"",""trial"",""time""
""fullscreenenter"",""1"",""2214""
","
","","","-1","","","11","1639","335","p","elianto","#f73b6a7A","-1","-1","1","0","[]","0","2","","","1639","77","4","4","lose","no-go","0","0"
"pit-trial","144","1248126","0.0-82.0","battery-v0.2","","""event"",""trial"",""time""
""fullscreenenter"",""1"",""2214""
","
","
","""event"",""trial"",""time""
""fullscreenenter"",""1"",""2214""
","
","","","1359.3999999761581","","","11","1639","335","s","elianto","#f73b6a7A"," "," ","1","0","[2214]","1","2","","","1639","78","5","3","lose","go","0","0"
"pit-trial","145","1253001","0.0-83.0","battery-v0.2","","""event"",""trial"",""time""
""fullscreenenter"",""1"",""2214""
","
","
","""event"",""trial"",""time""
""fullscreenenter"",""1"",""2214""
","
","","","-1","","","11","1639","335","w","elianto","#3366ff99","-1","-1","1","+10","[]","0","2","","","1639","79","6","2","win","no-go","0","0"
"pit-trial","146","1257211","0.0-84.0","battery-v0.2","","""event"",""trial"",""time""
""fullscreenenter"",""1"",""2214""
","
","
","""event"",""trial"",""time""
""fullscreenenter"",""1"",""2214""
","
","","","1352.4000000953674","","","11","1639","335","e","elianto","#f73b6a7A","-1"," ","0","0","[2202.600000023842]","1","2","","","1639","80","7","4","lose","no-go","1","0"
"pit-trial","147","1261481","0.0-85.0","battery-v0.2","","""event"",""trial"",""time""
""fullscreenenter"",""1"",""2214""
","
","
","""event"",""trial"",""time""
""fullscreenenter"",""1"",""2214""
","
","","","1411.1000000238419","","","11","1639","335","p","elianto","#f73b6a7A","-1"," ","0","-10","[2263.899999976158]","1","2","","","1639","81","4","4","lose","no-go","0","0"
"pit-trial","148","1265560","0.0-86.0","battery-v0.2","","""event"",""trial"",""time""
""fullscreenenter"",""1"",""2214""
","
","
","""event"",""trial"",""time""
""fullscreenenter"",""1"",""2214""
","
","","","1215.9000000953674","","","11","1639","335","w","elianto","#3366ff99","-1"," ","0","0","[2071.4000000953674]","1","2","","","1639","82","6","2","win","no-go","0","0"
"pit-trial","149","1269794","0.0-87.0","battery-v0.2","","""event"",""trial"",""time""
""fullscreenenter"",""1"",""2214""
","
","
","""event"",""trial"",""time""
""fullscreenenter"",""1"",""2214""
","
","","","1373.6999999284744","","","11","1639","335","s","elianto","#f73b6a7A"," "," ","1","0","[2227.1999999284744]","1","2","","","1639","83","5","3","lose","go","0","0"
"pit-trial","150","1274169","0.0-88.0","battery-v0.2","","""event"",""trial"",""time""
""fullscreenenter"",""1"",""2214""
","
","
","""event"",""trial"",""time""
""fullscreenenter"",""1"",""2214""
","
","","","1516.2000000476837","","","11","1639","335","e","elianto","#f73b6a7A","-1"," ","0","-10","[2369.100000023842]","1","2","","","1639","84","7","4","lose","no-go","0","0"
"pit-trial","151","1278599","0.0-89.0","battery-v0.2","","""event"",""trial"",""time""
""fullscreenenter"",""1"",""2214""
","
","
","""event"",""trial"",""time""
""fullscreenenter"",""1"",""2214""
","
","","","1570.3999999761581","","","11","1639","335","e","elianto","#f73b6a7A","-1"," ","0","-10","[2420.5999999046326]","1","2","","","1639","85","7","4","lose","no-go","0","0"
"pit-trial","152","1282887","0.0-90.0","battery-v0.2","","""event"",""trial"",""time""
""fullscreenenter"",""1"",""2214""
","
","
","""event"",""trial"",""time""
""fullscreenenter"",""1"",""2214""
","
","","","1426.5999999046326","","","11","1639","335","p","elianto","#f73b6a7A","-1"," ","0","-10","[2277.899999976158]","1","2","","","1639","86","4","4","lose","no-go","0","0"
"pit-trial","153","1287447","0.0-91.0","battery-v0.2","","""event"",""trial"",""time""
""fullscreenenter"",""1"",""2214""
","
","
","""event"",""trial"",""time""
""fullscreenenter"",""1"",""2214""
","
","","","1693.4000000953674","","","11","1639","335","w","elianto","#3366ff99","-1"," ","0","0","[2551.3000000715256]","1","2","","","1639","87","6","2","win","no-go","0","0"
"pit-trial","154","1291433","0.0-92.0","battery-v0.2","","""event"",""trial"",""time""
""fullscreenenter"",""1"",""2214""
","
","
","""event"",""trial"",""time""
""fullscreenenter"",""1"",""2214""
","
","","","1123.2999999523163","","","11","1639","335","s","elianto","#f73b6a7A"," "," ","1","-10","[1976]","1","2","","","1639","88","5","3","lose","go","1","0"
"pit-trial","155","1296293","0.0-93.0","battery-v0.2","","""event"",""trial"",""time""
""fullscreenenter"",""1"",""2214""
","
","
","""event"",""trial"",""time""
""fullscreenenter"",""1"",""2214""
","
","","","-1","","","11","1639","335","s","elianto","#f73b6a7A"," ","-1","0","-10","[]","0","2","","","1639","89","5","3","lose","go","0","0"
"pit-trial","156","1301150","0.0-94.0","battery-v0.2","","""event"",""trial"",""time""
""fullscreenenter"",""1"",""2214""
","
","
","""event"",""trial"",""time""
""fullscreenenter"",""1"",""2214""
","
","","","-1","","","11","1639","335","p","elianto","#f73b6a7A","-1","-1","1","-10","[]","0","2","","","1639","90","4","4","lose","no-go","1","0"
"pit-trial","157","1305282","0.0-95.0","battery-v0.2","","""event"",""trial"",""time""
""fullscreenenter"",""1"",""2214""
","
","
","""event"",""trial"",""time""
""fullscreenenter"",""1"",""2214""
","
","","","1272.6999999284744","","","11","1639","335","w","elianto","#3366ff99","-1"," ","0","0","[2126.5]","1","2","","","1639","91","6","2","win","no-go","0","0"
"pit-trial","158","1310143","0.0-96.0","battery-v0.2","","""event"",""trial"",""time""
""fullscreenenter"",""1"",""2214""
","
","
","""event"",""trial"",""time""
""fullscreenenter"",""1"",""2214""
","
","","","-1","","","11","1639","335","e","elianto","#f73b6a7A","-1","-1","1","0","[]","0","2","","","1639","92","7","4","lose","no-go","0","0"
"pit-trial","159","1315013","0.0-97.0","battery-v0.2","","""event"",""trial"",""time""
""fullscreenenter"",""1"",""2214""
","
","
","""event"",""trial"",""time""
""fullscreenenter"",""1"",""2214""
","
","","","-1","","","11","1639","335","s","elianto","#f73b6a7A"," ","-1","0","-10","[]","0","2","","","1639","93","5","3","lose","go","0","0"
"pit-trial","160","1319877","0.0-98.0","battery-v0.2","","""event"",""trial"",""time""
""fullscreenenter"",""1"",""2214""
","
","
","""event"",""trial"",""time""
""fullscreenenter"",""1"",""2214""
","
","","","-1","","","11","1639","335","k","elianto","#f73b6a7A","-1","-1","1","0","[]","0","2","","","1639","94","8","4","lose","no-go","0","0"
"pit-trial","161","1324039","0.0-99.0","battery-v0.2","","""event"",""trial"",""time""
""fullscreenenter"",""1"",""2214""
","
","
","""event"",""trial"",""time""
""fullscreenenter"",""1"",""2214""
","
","","","1304.3000000715256","","","11","1639","335","e","elianto","#f73b6a7A","-1"," ","0","-10","[2155.3000000715256]","1","2","","","1639","95","7","4","lose","no-go","0","0"
"pit-trial","162","1327938","0.0-100.0","battery-v0.2","","""event"",""trial"",""time""
""fullscreenenter"",""1"",""2214""
","
","
","""event"",""trial"",""time""
""fullscreenenter"",""1"",""2214""
","
","","","1035.6000000238419","","","11","1639","335","w","elianto","#3366ff99","-1"," ","0","+10","[1888.1000000238419]","1","2","","","1639","96","6","2","win","no-go","1","0"
"pit-trial","163","1331671","0.0-101.0","battery-v0.2","","""event"",""trial"",""time""
""fullscreenenter"",""1"",""2214""
","
","
","""event"",""trial"",""time""
""fullscreenenter"",""1"",""2214""
","
","","","870.2000000476837","","","11","1639","335","w","elianto","#3366ff99","-1"," ","0","0","[1725.3000000715256]","1","2","","","1639","97","6","2","win","no-go","0","0"
"pit-trial","164","1336104","0.0-102.0","battery-v0.2","","""event"",""trial"",""time""
""fullscreenenter"",""1"",""2214""
","
","
","""event"",""trial"",""time""
""fullscreenenter"",""1"",""2214""
","
","","","1577.8999999761581","","","11","1639","335","s","elianto","#f73b6a7A"," "," ","1","0","[2428.100000023842]","1","2","","","1639","98","5","3","lose","go","0","0"
"pit-trial","165","1340968","0.0-103.0","battery-v0.2","","""event"",""trial"",""time""
""fullscreenenter"",""1"",""2214""
","
","
","""event"",""trial"",""time""
""fullscreenenter"",""1"",""2214""
","
","","","-1","","","11","1639","335","e","elianto","#f73b6a7A","-1","-1","1","0","[]","0","2","","","1639","99","7","4","lose","no-go","0","0"
"pit-trial","166","1345832","0.0-104.0","battery-v0.2","","""event"",""trial"",""time""
""fullscreenenter"",""1"",""2214""
","
","
","""event"",""trial"",""time""
""fullscreenenter"",""1"",""2214""
","
","","","-1","","","11","1639","335","k","elianto","#f73b6a7A","-1","-1","1","0","[3052.1999999284744]","1","2","","","1639","100","8","4","lose","no-go","0","0"
"pit-trial","167","1350683","0.0-105.0","battery-v0.2","","""event"",""trial"",""time""
""fullscreenenter"",""1"",""2214""
","
","
","""event"",""trial"",""time""
""fullscreenenter"",""1"",""2214""
","
","","","1996.6999999284744","","","11","1639","335","k","elianto","#f73b6a7A","-1"," ","0","-10","[2848.1999999284744]","1","2","","","1639","101","8","4","lose","no-go","0","0"
"pit-trial","168","1355541","0.0-106.0","battery-v0.2","","""event"",""trial"",""time""
""fullscreenenter"",""1"",""2214""
","
","
","""event"",""trial"",""time""
""fullscreenenter"",""1"",""2214""
","
","","","-1","","","11","1639","335","j","elianto","#f73b6a7A"," ","-1","0","-10","[]","0","2","","","1639","102","10","3","lose","go","0","0"
"pit-trial","169","1360412","0.0-107.0","battery-v0.2","","""event"",""trial"",""time""
""fullscreenenter"",""1"",""2214""
","
","
","""event"",""trial"",""time""
""fullscreenenter"",""1"",""2214""
","
","","","-1","","","11","1639","335","d","elianto","#3366ff99"," ","-1","0","0","[]","0","2","","","1639","103","9","1","win","go","0","0"
"pit-trial","170","1365276","0.0-108.0","battery-v0.2","","""event"",""trial"",""time""
""fullscreenenter"",""1"",""2214""
","
","
","""event"",""trial"",""time""
""fullscreenenter"",""1"",""2214""
","
","","","-1","","","11","1639","335","w","elianto","#3366ff99","-1","-1","1","0","[]","0","2","","","1639","104","6","2","win","no-go","1","0"
"pit-trial","171","1370133","0.0-109.0","battery-v0.2","","""event"",""trial"",""time""
""fullscreenenter"",""1"",""2214""
","
","
","""event"",""trial"",""time""
""fullscreenenter"",""1"",""2214""
","
","","","-1","","","11","1639","335","w","elianto","#3366ff99","-1","-1","1","0","[]","0","2","","","1639","105","6","2","win","no-go","1","0"
"pit-trial","172","1375003","0.0-110.0","battery-v0.2","","""event"",""trial"",""time""
""fullscreenenter"",""1"",""2214""
","
","
","""event"",""trial"",""time""
""fullscreenenter"",""1"",""2214""
","
","","","-1","","","11","1639","335","k","elianto","#f73b6a7A","-1","-1","1","0","[]","0","2","","","1639","106","8","4","lose","no-go","0","0"
"pit-trial","173","1379862","0.0-111.0","battery-v0.2","","""event"",""trial"",""time""
""fullscreenenter"",""1"",""2214""
","
","
","""event"",""trial"",""time""
""fullscreenenter"",""1"",""2214""
","
","","","-1","","","11","1639","335","d","elianto","#3366ff99"," ","-1","0","0","[]","0","2","","","1639","107","9","1","win","go","0","0"
"pit-trial","174","1384733","0.0-112.0","battery-v0.2","","""event"",""trial"",""time""
""fullscreenenter"",""1"",""2214""
","
","
","""event"",""trial"",""time""
""fullscreenenter"",""1"",""2214""
","
","","","-1","","","11","1639","335","j","elianto","#f73b6a7A"," ","-1","0","-10","[]","0","2","","","1639","108","10","3","lose","go","0","0"
"pit-trial","175","1389594","0.0-113.0","battery-v0.2","","""event"",""trial"",""time""
""fullscreenenter"",""1"",""2214""
","
","
","""event"",""trial"",""time""
""fullscreenenter"",""1"",""2214""
","
","","","-1","","","11","1639","335","v","elianto","#3366ff99"," ","-1","0","0","[]","0","2","","","1639","109","11","1","win","go","0","0"
"pit-trial","176","1394452","0.0-114.0","battery-v0.2","","""event"",""trial"",""time""
""fullscreenenter"",""1"",""2214""
","
","
","""event"",""trial"",""time""
""fullscreenenter"",""1"",""2214""
","
","","","-1","","","11","1639","335","d","elianto","#3366ff99"," ","-1","0","0","[]","0","2","","","1639","110","9","1","win","go","0","0"
"pit-trial","177","1399314","0.0-115.0","battery-v0.2","","""event"",""trial"",""time""
""fullscreenenter"",""1"",""2214""
","
","
","""event"",""trial"",""time""
""fullscreenenter"",""1"",""2214""
","
","","","-1","","","11","1639","335","j","elianto","#f73b6a7A"," ","-1","0","-10","[]","0","2","","","1639","111","10","3","lose","go","0","0"
"pit-trial","178","1404181","0.0-116.0","battery-v0.2","","""event"",""trial"",""time""
""fullscreenenter"",""1"",""2214""
","
","
","""event"",""trial"",""time""
""fullscreenenter"",""1"",""2214""
","
","","","-1","","","11","1639","335","k","elianto","#f73b6a7A","-1","-1","1","0","[]","0","2","","","1639","112","8","4","lose","no-go","0","0"
"pit-trial","179","1409052","0.0-117.0","battery-v0.2","","""event"",""trial"",""time""
""fullscreenenter"",""1"",""2214""
","
","
","""event"",""trial"",""time""
""fullscreenenter"",""1"",""2214""
","
","","","-1","","","11","1639","335","k","elianto","#f73b6a7A","-1","-1","1","0","[]","0","2","","","1639","113","8","4","lose","no-go","0","0"
"pit-trial","180","1413918","0.0-118.0","battery-v0.2","","""event"",""trial"",""time""
""fullscreenenter"",""1"",""2214""
","
","
","""event"",""trial"",""time""
""fullscreenenter"",""1"",""2214""
","
","","","-1","","","11","1639","335","v","elianto","#3366ff99"," ","-1","0","0","[]","0","2","","","1639","114","11","1","win","go","0","0"
"pit-trial","181","1418793","0.0-119.0","battery-v0.2","","""event"",""trial"",""time""
""fullscreenenter"",""1"",""2214""
","
","
","""event"",""trial"",""time""
""fullscreenenter"",""1"",""2214""
","
","","","-1","","","11","1639","335","j","elianto","#f73b6a7A"," ","-1","0","-10","[]","0","2","","","1639","115","10","3","lose","go","0","0"
"pit-trial","182","1423655","0.0-120.0","battery-v0.2","","""event"",""trial"",""time""
""fullscreenenter"",""1"",""2214""
","
","
","""event"",""trial"",""time""
""fullscreenenter"",""1"",""2214""
","
","","","-1","","","11","1639","335","d","elianto","#3366ff99"," ","-1","0","0","[]","0","2","","","1639","116","9","1","win","go","0","0"
"pit-trial","183","1428510","0.0-121.0","battery-v0.2","","""event"",""trial"",""time""
""fullscreenenter"",""1"",""2214""
","
","
","""event"",""trial"",""time""
""fullscreenenter"",""1"",""2214""
","
","","","-1","","","11","1639","335","j","elianto","#f73b6a7A"," ","-1","0","-10","[]","0","2","","","1639","117","10","3","lose","go","0","0"
"pit-trial","184","1433365","0.0-122.0","battery-v0.2","","""event"",""trial"",""time""
""fullscreenenter"",""1"",""2214""
","
","
","""event"",""trial"",""time""
""fullscreenenter"",""1"",""2214""
","
","","","-1","","","11","1639","335","v","elianto","#3366ff99"," ","-1","0","0","[]","0","2","","","1639","118","11","1","win","go","0","0"
"pit-trial","185","1438226","0.0-123.0","battery-v0.2","","""event"",""trial"",""time""
""fullscreenenter"",""1"",""2214""
","
","
","""event"",""trial"",""time""
""fullscreenenter"",""1"",""2214""
","
","","","-1","","","11","1639","335","k","elianto","#f73b6a7A","-1","-1","1","0","[]","0","2","","","1639","119","8","4","lose","no-go","0","0"
"pit-trial","186","1443088","0.0-124.0","battery-v0.2","","""event"",""trial"",""time""
""fullscreenenter"",""1"",""2214""
","
","
","""event"",""trial"",""time""
""fullscreenenter"",""1"",""2214""
","
","","","-1","","","11","1639","335","d","elianto","#3366ff99"," ","-1","0","0","[]","0","2","","","1639","120","9","1","win","go","0","0"
"pit-trial","187","1447945","0.0-125.0","battery-v0.2","","""event"",""trial"",""time""
""fullscreenenter"",""1"",""2214""
","
","
","""event"",""trial"",""time""
""fullscreenenter"",""1"",""2214""
","
","","","-1","","","11","1639","335","d","elianto","#3366ff99"," ","-1","0","0","[]","0","2","","","1639","121","9","1","win","go","0","0"
"pit-trial","188","1452809","0.0-126.0","battery-v0.2","","""event"",""trial"",""time""
""fullscreenenter"",""1"",""2214""
","
","
","""event"",""trial"",""time""
""fullscreenenter"",""1"",""2214""
","
","","","-1","","","11","1639","335","j","elianto","#f73b6a7A"," ","-1","0","-10","[]","0","2","","","1639","122","10","3","lose","go","0","0"
"pit-trial","189","1457675","0.0-127.0","battery-v0.2","","""event"",""trial"",""time""
""fullscreenenter"",""1"",""2214""
","
","
","""event"",""trial"",""time""
""fullscreenenter"",""1"",""2214""
","
","","","-1","","","11","1639","335","k","elianto","#f73b6a7A","-1","-1","1","0","[]","0","2","","","1639","123","8","4","lose","no-go","0","0"
"pit-trial","190","1462545","0.0-128.0","battery-v0.2","","""event"",""trial"",""time""
""fullscreenenter"",""1"",""2214""
","
","
","""event"",""trial"",""time""
""fullscreenenter"",""1"",""2214""
","
","","","-1","","","11","1639","335","v","elianto","#3366ff99"," ","-1","0","0","[]","0","2","","","1639","124","11","1","win","go","0","0"
"pit-trial","191","1467408","0.0-129.0","battery-v0.2","","""event"",""trial"",""time""
""fullscreenenter"",""1"",""2214""
","
","
","""event"",""trial"",""time""
""fullscreenenter"",""1"",""2214""
","
","","","-1","","","11","1639","335","j","elianto","#f73b6a7A"," ","-1","0","-10","[]","0","2","","","1639","125","10","3","lose","go","0","0"
"pit-trial","192","1472273","0.0-130.0","battery-v0.2","","""event"",""trial"",""time""
""fullscreenenter"",""1"",""2214""
","
","
","""event"",""trial"",""time""
""fullscreenenter"",""1"",""2214""
","
","","","-1","","","11","1639","335","d","elianto","#3366ff99"," ","-1","0","0","[]","0","2","","","1639","126","9","1","win","go","0","0"
"pit-trial","193","1477137","0.0-131.0","battery-v0.2","","""event"",""trial"",""time""
""fullscreenenter"",""1"",""2214""
","
","
","""event"",""trial"",""time""
""fullscreenenter"",""1"",""2214""
","
","","","-1","","","11","1639","335","v","elianto","#3366ff99"," ","-1","0","0","[]","0","2","","","1639","127","11","1","win","go","0","0"
"pit-trial","194","1481997","0.0-132.0","battery-v0.2","","""event"",""trial"",""time""
""fullscreenenter"",""1"",""2214""
","
","
","""event"",""trial"",""time""
""fullscreenenter"",""1"",""2214""
","
","","","-1","","","11","1639","335","k","elianto","#f73b6a7A","-1","-1","1","0","[]","0","2","","","1639","128","8","4","lose","no-go","0","0"
"pit-trial","195","1486863","0.0-133.0","battery-v0.2","","""event"",""trial"",""time""
""fullscreenenter"",""1"",""2214""
","
","
","""event"",""trial"",""time""
""fullscreenenter"",""1"",""2214""
","
","","","-1","","","11","1639","335","j","elianto","#f73b6a7A"," ","-1","0","-10","[]","0","2","","","1639","129","10","3","lose","go","0","0"
"pit-trial","196","1491737","0.0-134.0","battery-v0.2","","""event"",""trial"",""time""
""fullscreenenter"",""1"",""2214""
","
","
","""event"",""trial"",""time""
""fullscreenenter"",""1"",""2214""
","
","","","-1","","","11","1639","335","d","elianto","#3366ff99"," ","-1","0","+10","[]","0","2","","","1639","130","9","1","win","go","1","0"
"pit-trial","197","1496599","0.0-135.0","battery-v0.2","","""event"",""trial"",""time""
""fullscreenenter"",""1"",""2214""
","
","
","""event"",""trial"",""time""
""fullscreenenter"",""1"",""2214""
","
","","","-1","","","11","1639","335","k","elianto","#f73b6a7A","-1","-1","1","0","[]","0","2","","","1639","131","8","4","lose","no-go","0","0"
"pit-trial","198","1501457","0.0-136.0","battery-v0.2","","""event"",""trial"",""time""
""fullscreenenter"",""1"",""2214""
","
","
","""event"",""trial"",""time""
""fullscreenenter"",""1"",""2214""
","
","","","-1","","","11","1639","335","v","elianto","#3366ff99"," ","-1","0","0","[]","0","2","","","1639","132","11","1","win","go","0","0"
"pit-trial","199","1506326","0.0-137.0","battery-v0.2","","""event"",""trial"",""time""
""fullscreenenter"",""1"",""2214""
","
","
","""event"",""trial"",""time""
""fullscreenenter"",""1"",""2214""
","
","","","-1","","","11","1639","335","k","elianto","#f73b6a7A","-1","-1","1","0","[]","0","2","","","1639","133","8","4","lose","no-go","0","0"
"pit-trial","200","1511195","0.0-138.0","battery-v0.2","","""event"",""trial"",""time""
""fullscreenenter"",""1"",""2214""
","
","
","""event"",""trial"",""time""
""fullscreenenter"",""1"",""2214""
","
","","","-1","","","11","1639","335","d","elianto","#3366ff99"," ","-1","0","0","[]","0","2","","","1639","134","9","1","win","go","0","0"
"pit-trial","201","1516059","0.0-139.0","battery-v0.2","","""event"",""trial"",""time""
""fullscreenenter"",""1"",""2214""
","
","
","""event"",""trial"",""time""
""fullscreenenter"",""1"",""2214""
","
","","","-1","","","11","1639","335","v","elianto","#3366ff99"," ","-1","0","0","[]","0","2","","","1639","135","11","1","win","go","0","0"
"pit-trial","202","1520918","0.0-140.0","battery-v0.2","","""event"",""trial"",""time""
""fullscreenenter"",""1"",""2214""
","
","
","""event"",""trial"",""time""
""fullscreenenter"",""1"",""2214""
","
","","","-1","","","11","1639","335","j","elianto","#f73b6a7A"," ","-1","0","0","[]","0","2","","","1639","136","10","3","lose","go","1","0"
"pit-trial","203","1525787","0.0-141.0","battery-v0.2","","""event"",""trial"",""time""
""fullscreenenter"",""1"",""2214""
","
","
","""event"",""trial"",""time""
""fullscreenenter"",""1"",""2214""
","
","","","-1","","","11","1639","335","k","elianto","#f73b6a7A","-1","-1","1","0","[]","0","2","","","1639","137","8","4","lose","no-go","0","0"
"pit-trial","204","1530651","0.0-142.0","battery-v0.2","","""event"",""trial"",""time""
""fullscreenenter"",""1"",""2214""
","
","
","""event"",""trial"",""time""
""fullscreenenter"",""1"",""2214""
","
","","","-1","","","11","1639","335","v","elianto","#3366ff99"," ","-1","0","0","[]","0","2","","","1639","138","11","1","win","go","0","0"
"pit-trial","205","1535524","0.0-143.0","battery-v0.2","","""event"",""trial"",""time""
""fullscreenenter"",""1"",""2214""
","
","
","""event"",""trial"",""time""
""fullscreenenter"",""1"",""2214""
","
","","","-1","","","11","1639","335","j","elianto","#f73b6a7A"," ","-1","0","-10","[]","0","2","","","1639","139","10","3","lose","go","0","0"
"pit-trial","206","1540385","0.0-144.0","battery-v0.2","","""event"",""trial"",""time""
""fullscreenenter"",""1"",""2214""
","
","
","""event"",""trial"",""time""
""fullscreenenter"",""1"",""2214""
","
","","","-1","","","11","1639","335","d","elianto","#3366ff99"," ","-1","0","0","[]","0","2","","","1639","140","9","1","win","go","0","0"
"pit-instructions","207","1556797","0.0-145.0","battery-v0.2","","""event"",""trial"",""time""
""fullscreenenter"",""1"",""2214""
","
","
","""event"",""trial"",""time""
""fullscreenenter"",""1"",""2214""
","
","","[{""page_index"":0,""viewing_time"":7653.899999976158},{""page_index"":1,""viewing_time"":8755}]","16409.600000023842","","","","","","","","","","","","","","","","","","","","","","","","",""
"pit-trial","208","1561671","0.0-146.0","battery-v0.2","","""event"",""trial"",""time""
""fullscreenenter"",""1"",""2214""
","
","
","""event"",""trial"",""time""
""fullscreenenter"",""1"",""2214""
","
","","","-1","","","11","1639","335","h","elianto","#3366ff99"," ","-1","0","+10","[]","0","3","","","1639","141","3","1","win","go","1","0"
"pit-trial","209","1566541","0.0-147.0","battery-v0.2","","""event"",""trial"",""time""
""fullscreenenter"",""1"",""2214""
","
","
","""event"",""trial"",""time""
""fullscreenenter"",""1"",""2214""
","
","","","-1","","","11","1639","335","m","elianto","#3366ff99","-1","-1","1","+10","[]","0","3","","","1639","142","0","2","win","no-go","0","0"
"pit-trial","210","1571420","0.0-148.0","battery-v0.2","","""event"",""trial"",""time""
""fullscreenenter"",""1"",""2214""
","
","
","""event"",""trial"",""time""
""fullscreenenter"",""1"",""2214""
","
","","","-1","","","11","1639","335","r","elianto","#f73b6a7A"," ","-1","0","-10","[]","0","3","","","1639","143","1","3","lose","go","0","0"
"pit-trial","211","1576281","0.0-149.0","battery-v0.2","","""event"",""trial"",""time""
""fullscreenenter"",""1"",""2214""
","
","
","""event"",""trial"",""time""
""fullscreenenter"",""1"",""2214""
","
","","","-1","","","11","1639","335","y","elianto","#f73b6a7A","-1","-1","1","0","[]","0","3","","","1639","144","2","4","lose","no-go","0","0"
"pit-trial","212","1581161","0.0-150.0","battery-v0.2","","""event"",""trial"",""time""
""fullscreenenter"",""1"",""2214""
","
","
","""event"",""trial"",""time""
""fullscreenenter"",""1"",""2214""
","
","","","-1","","","11","1639","335","m","elianto","#3366ff99","-1","-1","1","0","[]","0","3","","","1639","145","0","2","win","no-go","1","0"
"pit-trial","213","1586040","0.0-151.0","battery-v0.2","","""event"",""trial"",""time""
""fullscreenenter"",""1"",""2214""
","
","
","""event"",""trial"",""time""
""fullscreenenter"",""1"",""2214""
","
","","","-1","","","11","1639","335","h","elianto","#3366ff99"," ","-1","0","0","[]","0","3","","","1639","146","3","1","win","go","0","0"
"pit-trial","214","1590897","0.0-152.0","battery-v0.2","","""event"",""trial"",""time""
""fullscreenenter"",""1"",""2214""
","
","
","""event"",""trial"",""time""
""fullscreenenter"",""1"",""2214""
","
","","","-1","","","11","1639","335","y","elianto","#f73b6a7A","-1","-1","1","0","[]","0","3","","","1639","147","2","4","lose","no-go","0","0"
"pit-trial","215","1595755","0.0-153.0","battery-v0.2","","""event"",""trial"",""time""
""fullscreenenter"",""1"",""2214""
","
","
","""event"",""trial"",""time""
""fullscreenenter"",""1"",""2214""
","
","","","-1","","","11","1639","335","r","elianto","#f73b6a7A"," ","-1","0","-10","[]","0","3","","","1639","148","1","3","lose","go","0","0"
"pit-trial","216","1600614","0.0-154.0","battery-v0.2","","""event"",""trial"",""time""
""fullscreenenter"",""1"",""2214""
","
","
","""event"",""trial"",""time""
""fullscreenenter"",""1"",""2214""
","
","","","-1","","","11","1639","335","m","elianto","#3366ff99","-1","-1","1","+10","[]","0","3","","","1639","149","0","2","win","no-go","0","0"
"pit-trial","217","1605476","0.0-155.0","battery-v0.2","","""event"",""trial"",""time""
""fullscreenenter"",""1"",""2214""
","
","
","""event"",""trial"",""time""
""fullscreenenter"",""1"",""2214""
","
","","","-1","","","11","1639","335","h","elianto","#3366ff99"," ","-1","0","0","[]","0","3","","","1639","150","3","1","win","go","0","0"
"pit-trial","218","1610341","0.0-156.0","battery-v0.2","","""event"",""trial"",""time""
""fullscreenenter"",""1"",""2214""
","
","
","""event"",""trial"",""time""
""fullscreenenter"",""1"",""2214""
","
","","","-1","","","11","1639","335","r","elianto","#f73b6a7A"," ","-1","0","-10","[]","0","3","","","1639","151","1","3","lose","go","0","0"
"pit-trial","219","1615214","0.0-157.0","battery-v0.2","","""event"",""trial"",""time""
""fullscreenenter"",""1"",""2214""
","
","
","""event"",""trial"",""time""
""fullscreenenter"",""1"",""2214""
","
","","","-1","","","11","1639","335","y","elianto","#f73b6a7A","-1","-1","1","0","[]","0","3","","","1639","152","2","4","lose","no-go","0","0"
"pit-trial","220","1620081","0.0-158.0","battery-v0.2","","""event"",""trial"",""time""
""fullscreenenter"",""1"",""2214""
","
","
","""event"",""trial"",""time""
""fullscreenenter"",""1"",""2214""
","
","","","-1","","","11","1639","335","r","elianto","#f73b6a7A"," ","-1","0","-10","[]","0","3","","","1639","153","1","3","lose","go","0","0"
"pit-trial","221","1624947","0.0-159.0","battery-v0.2","","""event"",""trial"",""time""
""fullscreenenter"",""1"",""2214""
","
","
","""event"",""trial"",""time""
""fullscreenenter"",""1"",""2214""
","
","","","-1","","","11","1639","335","h","elianto","#3366ff99"," ","-1","0","0","[]","0","3","","","1639","154","3","1","win","go","0","0"
"pit-trial","222","1629812","0.0-160.0","battery-v0.2","","""event"",""trial"",""time""
""fullscreenenter"",""1"",""2214""
","
","
","""event"",""trial"",""time""
""fullscreenenter"",""1"",""2214""
","
","","","-1","","","11","1639","335","m","elianto","#3366ff99","-1","-1","1","0","[]","0","3","","","1639","155","0","2","win","no-go","1","0"
"pit-trial","223","1634674","0.0-161.0","battery-v0.2","","""event"",""trial"",""time""
""fullscreenenter"",""1"",""2214""
","
","
","""event"",""trial"",""time""
""fullscreenenter"",""1"",""2214""
","
","","","-1","","","11","1639","335","y","elianto","#f73b6a7A","-1","-1","1","0","[]","0","3","","","1639","156","2","4","lose","no-go","0","0"
"pit-trial","224","1639535","0.0-162.0","battery-v0.2","","""event"",""trial"",""time""
""fullscreenenter"",""1"",""2214""
","
","
","""event"",""trial"",""time""
""fullscreenenter"",""1"",""2214""
","
","","","-1","","","11","1639","335","r","elianto","#f73b6a7A"," ","-1","0","-10","[]","0","3","","","1639","157","1","3","lose","go","0","0"
"pit-trial","225","1644395","0.0-163.0","battery-v0.2","","""event"",""trial"",""time""
""fullscreenenter"",""1"",""2214""
","
","
","""event"",""trial"",""time""
""fullscreenenter"",""1"",""2214""
","
","","","-1","","","11","1639","335","y","elianto","#f73b6a7A","-1","-1","1","-10","[]","0","3","","","1639","158","2","4","lose","no-go","1","0"
"pit-trial","226","1649253","0.0-164.0","battery-v0.2","","""event"",""trial"",""time""
""fullscreenenter"",""1"",""2214""
","
","
","""event"",""trial"",""time""
""fullscreenenter"",""1"",""2214""
","
","","","-1","","","11","1639","335","h","elianto","#3366ff99"," ","-1","0","0","[]","0","3","","","1639","159","3","1","win","go","0","0"
"pit-trial","227","1654118","0.0-165.0","battery-v0.2","","""event"",""trial"",""time""
""fullscreenenter"",""1"",""2214""
","
","
","""event"",""trial"",""time""
""fullscreenenter"",""1"",""2214""
","
","","","-1","","","11","1639","335","m","elianto","#3366ff99","-1","-1","1","+10","[]","0","3","","","1639","160","0","2","win","no-go","0","0"
"pit-trial","228","1658991","0.0-166.0","battery-v0.2","","""event"",""trial"",""time""
""fullscreenenter"",""1"",""2214""
","
","
","""event"",""trial"",""time""
""fullscreenenter"",""1"",""2214""
","
","","","-1","","","11","1639","335","y","elianto","#f73b6a7A","-1","-1","1","0","[]","0","3","","","1639","161","2","4","lose","no-go","0","0"
"pit-trial","229","1663853","0.0-167.0","battery-v0.2","","""event"",""trial"",""time""
""fullscreenenter"",""1"",""2214""
","
","
","""event"",""trial"",""time""
""fullscreenenter"",""1"",""2214""
","
","","","-1","","","11","1639","335","h","elianto","#3366ff99"," ","-1","0","+10","[]","0","3","","","1639","162","3","1","win","go","1","0"
"pit-trial","230","1668719","0.0-168.0","battery-v0.2","","""event"",""trial"",""time""
""fullscreenenter"",""1"",""2214""
","
","
","""event"",""trial"",""time""
""fullscreenenter"",""1"",""2214""
","
","","","-1","","","11","1639","335","m","elianto","#3366ff99","-1","-1","1","+10","[]","0","3","","","1639","163","0","2","win","no-go","0","0"
"pit-trial","231","1673595","0.0-169.0","battery-v0.2","","""event"",""trial"",""time""
""fullscreenenter"",""1"",""2214""
","
","
","""event"",""trial"",""time""
""fullscreenenter"",""1"",""2214""
","
","","","-1","","","11","1639","335","r","elianto","#f73b6a7A"," ","-1","0","0","[]","0","3","","","1639","164","1","3","lose","go","1","0"
"pit-trial","232","1678455","0.0-170.0","battery-v0.2","","""event"",""trial"",""time""
""fullscreenenter"",""1"",""2214""
","
","
","""event"",""trial"",""time""
""fullscreenenter"",""1"",""2214""
","
","","","-1","","","11","1639","335","h","elianto","#3366ff99"," ","-1","0","0","[]","0","3","","","1639","165","3","1","win","go","0","0"
"pit-trial","233","1683319","0.0-171.0","battery-v0.2","","""event"",""trial"",""time""
""fullscreenenter"",""1"",""2214""
","
","
","""event"",""trial"",""time""
""fullscreenenter"",""1"",""2214""
","
","","","-1","","","11","1639","335","m","elianto","#3366ff99","-1","-1","1","+10","[]","0","3","","","1639","166","0","2","win","no-go","0","0"
"pit-trial","234","1688174","0.0-172.0","battery-v0.2","","""event"",""trial"",""time""
""fullscreenenter"",""1"",""2214""
","
","
","""event"",""trial"",""time""
""fullscreenenter"",""1"",""2214""
","
","","","-1","","","11","1639","335","r","elianto","#f73b6a7A"," ","-1","0","-10","[]","0","3","","","1639","167","1","3","lose","go","0","0"
"pit-trial","235","1693036","0.0-173.0","battery-v0.2","","""event"",""trial"",""time""
""fullscreenenter"",""1"",""2214""
","
","
","""event"",""trial"",""time""
""fullscreenenter"",""1"",""2214""
","
","","","-1","","","11","1639","335","y","elianto","#f73b6a7A","-1","-1","1","0","[]","0","3","","","1639","168","2","4","lose","no-go","0","0"
"pit-trial","236","1697902","0.0-174.0","battery-v0.2","","""event"",""trial"",""time""
""fullscreenenter"",""1"",""2214""
","
","
","""event"",""trial"",""time""
""fullscreenenter"",""1"",""2214""
","
","","","-1","","","11","1639","335","r","elianto","#f73b6a7A"," ","-1","0","0","[]","0","3","","","1639","169","1","3","lose","go","1","0"
"pit-trial","237","1702775","0.0-175.0","battery-v0.2","","""event"",""trial"",""time""
""fullscreenenter"",""1"",""2214""
","
","
","""event"",""trial"",""time""
""fullscreenenter"",""1"",""2214""
","
","","","-1","","","11","1639","335","h","elianto","#3366ff99"," ","-1","0","0","[]","0","3","","","1639","170","3","1","win","go","0","0"
"pit-trial","238","1707637","0.0-176.0","battery-v0.2","","""event"",""trial"",""time""
""fullscreenenter"",""1"",""2214""
","
","
","""event"",""trial"",""time""
""fullscreenenter"",""1"",""2214""
","
","","","-1","","","11","1639","335","y","elianto","#f73b6a7A","-1","-1","1","0","[]","0","3","","","1639","171","2","4","lose","no-go","0","0"
"pit-trial","239","1712502","0.0-177.0","battery-v0.2","","""event"",""trial"",""time""
""fullscreenenter"",""1"",""2214""
","
","
","""event"",""trial"",""time""
""fullscreenenter"",""1"",""2214""
","
","","","-1","","","11","1639","335","m","elianto","#3366ff99","-1","-1","1","+10","[]","0","3","","","1639","172","0","2","win","no-go","0","0"
"pit-trial","240","1717360","0.0-178.0","battery-v0.2","","""event"",""trial"",""time""
""fullscreenenter"",""1"",""2214""
","
","
","""event"",""trial"",""time""
""fullscreenenter"",""1"",""2214""
","
","","","-1","","","11","1639","335","r","elianto","#f73b6a7A"," ","-1","0","-10","[]","0","3","","","1639","173","1","3","lose","go","0","0"
"pit-trial","241","1722225","0.0-179.0","battery-v0.2","","""event"",""trial"",""time""
""fullscreenenter"",""1"",""2214""
","
","
","""event"",""trial"",""time""
""fullscreenenter"",""1"",""2214""
","
","","","-1","","","11","1639","335","y","elianto","#f73b6a7A","-1","-1","1","0","[]","0","3","","","1639","174","2","4","lose","no-go","0","0"
"pit-trial","242","1727093","0.0-180.0","battery-v0.2","","""event"",""trial"",""time""
""fullscreenenter"",""1"",""2214""
","
","
","""event"",""trial"",""time""
""fullscreenenter"",""1"",""2214""
","
","","","-1","","","11","1639","335","z","elianto","#f73b6a7A"," ","-1","0","0","[]","0","3","","","1639","175","4","3","lose","go","1","0"
"pit-trial","243","1731963","0.0-181.0","battery-v0.2","","""event"",""trial"",""time""
""fullscreenenter"",""1"",""2214""
","
","
","""event"",""trial"",""time""
""fullscreenenter"",""1"",""2214""
","
","","","-1","","","11","1639","335","c","elianto","#f73b6a7A","-1","-1","1","0","[]","0","3","","","1639","176","5","4","lose","no-go","0","0"
"pit-trial","244","1736834","0.0-182.0","battery-v0.2","","""event"",""trial"",""time""
""fullscreenenter"",""1"",""2214""
","
","
","""event"",""trial"",""time""
""fullscreenenter"",""1"",""2214""
","
","","","-1","","","11","1639","335","y","elianto","#f73b6a7A","-1","-1","1","0","[]","0","3","","","1639","177","2","4","lose","no-go","0","0"
"pit-trial","245","1741703","0.0-183.0","battery-v0.2","","""event"",""trial"",""time""
""fullscreenenter"",""1"",""2214""
","
","
","""event"",""trial"",""time""
""fullscreenenter"",""1"",""2214""
","
","","","-1","","","11","1639","335","z","elianto","#f73b6a7A"," ","-1","0","-10","[]","0","3","","","1639","178","4","3","lose","go","0","0"
"pit-trial","246","1746579","0.0-184.0","battery-v0.2","","""event"",""trial"",""time""
""fullscreenenter"",""1"",""2214""
","
","
","""event"",""trial"",""time""
""fullscreenenter"",""1"",""2214""
","
","","","-1","","","11","1639","335","c","elianto","#f73b6a7A","-1","-1","1","0","[]","0","3","","","1639","179","5","4","lose","no-go","0","0"
"pit-trial","247","1751450","0.0-185.0","battery-v0.2","","""event"",""trial"",""time""
""fullscreenenter"",""1"",""2214""
","
","
","""event"",""trial"",""time""
""fullscreenenter"",""1"",""2214""
","
","","","-1","","","11","1639","335","r","elianto","#f73b6a7A"," ","-1","0","-10","[]","0","3","","","1639","180","1","3","lose","go","0","0"
"pit-trial","248","1756318","0.0-186.0","battery-v0.2","","""event"",""trial"",""time""
""fullscreenenter"",""1"",""2214""
","
","
","""event"",""trial"",""time""
""fullscreenenter"",""1"",""2214""
","
","","","-1","","","11","1639","335","y","elianto","#f73b6a7A","-1","-1","1","0","[]","0","3","","","1639","181","2","4","lose","no-go","0","0"
"pit-trial","249","1761181","0.0-187.0","battery-v0.2","","""event"",""trial"",""time""
""fullscreenenter"",""1"",""2214""
","
","
","""event"",""trial"",""time""
""fullscreenenter"",""1"",""2214""
","
","","","-1","","","11","1639","335","b","elianto","#3366ff99","-1","-1","1","+10","[]","0","3","","","1639","182","6","2","win","no-go","0","0"
"pit-trial","250","1766046","0.0-188.0","battery-v0.2","","""event"",""trial"",""time""
""fullscreenenter"",""1"",""2214""
","
","
","""event"",""trial"",""time""
""fullscreenenter"",""1"",""2214""
","
","","","-1","","","11","1639","335","c","elianto","#f73b6a7A","-1","-1","1","-10","[]","0","3","","","1639","183","5","4","lose","no-go","1","0"
"pit-trial","251","1770907","0.0-189.0","battery-v0.2","","""event"",""trial"",""time""
""fullscreenenter"",""1"",""2214""
","
","
","""event"",""trial"",""time""
""fullscreenenter"",""1"",""2214""
","
","","","-1","","","11","1639","335","z","elianto","#f73b6a7A"," ","-1","0","-10","[]","0","3","","","1639","184","4","3","lose","go","0","0"
"pit-trial","252","1775768","0.0-190.0","battery-v0.2","","""event"",""trial"",""time""
""fullscreenenter"",""1"",""2214""
","
","
","""event"",""trial"",""time""
""fullscreenenter"",""1"",""2214""
","
","","","-1","","","11","1639","335","y","elianto","#f73b6a7A","-1","-1","1","0","[]","0","3","","","1639","185","2","4","lose","no-go","0","0"
"pit-trial","253","1780624","0.0-191.0","battery-v0.2","","""event"",""trial"",""time""
""fullscreenenter"",""1"",""2214""
","
","
","""event"",""trial"",""time""
""fullscreenenter"",""1"",""2214""
","
","","","-1","","","11","1639","335","b","elianto","#3366ff99","-1","-1","1","+10","[]","0","3","","","1639","186","6","2","win","no-go","0","0"
"pit-trial","254","1785488","0.0-192.0","battery-v0.2","","""event"",""trial"",""time""
""fullscreenenter"",""1"",""2214""
","
","
","""event"",""trial"",""time""
""fullscreenenter"",""1"",""2214""
","
","","","-1","","","11","1639","335","z","elianto","#f73b6a7A"," ","-1","0","-10","[]","0","3","","","1639","187","4","3","lose","go","0","0"
"pit-trial","255","1790348","0.0-193.0","battery-v0.2","","""event"",""trial"",""time""
""fullscreenenter"",""1"",""2214""
","
","
","""event"",""trial"",""time""
""fullscreenenter"",""1"",""2214""
","
","","","-1","","","11","1639","335","c","elianto","#f73b6a7A","-1","-1","1","0","[]","0","3","","","1639","188","5","4","lose","no-go","0","0"
"pit-trial","256","1794193","0.0-194.0","battery-v0.2","","""event"",""trial"",""time""
""fullscreenenter"",""1"",""2214""
","
","
","""event"",""trial"",""time""
""fullscreenenter"",""1"",""2214""
","
","","","982.8999999761581","","","11","1639","335","t","elianto","#3366ff99"," "," ","1","+10","[1833.3999999761581]","1","3","","","1639","189","7","1","win","go","0","0"
"pit-trial","257","1799059","0.0-195.0","battery-v0.2","","""event"",""trial"",""time""
""fullscreenenter"",""1"",""2214""
","
","
","""event"",""trial"",""time""
""fullscreenenter"",""1"",""2214""
","
","","","-1","","","11","1639","335","c","elianto","#f73b6a7A","-1","-1","1","0","[]","0","3","","","1639","190","5","4","lose","no-go","0","0"
"pit-trial","258","1803815","0.0-196.0","battery-v0.2","","""event"",""trial"",""time""
""fullscreenenter"",""1"",""2214""
","
","
","""event"",""trial"",""time""
""fullscreenenter"",""1"",""2214""
","
","","","1893.3000000715256","","","11","1639","335","z","elianto","#f73b6a7A"," "," ","1","0","[2745.100000023842]","1","3","","","1639","191","4","3","lose","go","0","0"
"pit-trial","259","1808676","0.0-197.0","battery-v0.2","","""event"",""trial"",""time""
""fullscreenenter"",""1"",""2214""
","
","
","""event"",""trial"",""time""
""fullscreenenter"",""1"",""2214""
","
","","","-1","","","11","1639","335","b","elianto","#3366ff99","-1","-1","1","+10","[]","0","3","","","1639","192","6","2","win","no-go","0","0"
"pit-trial","260","1813538","0.0-198.0","battery-v0.2","","""event"",""trial"",""time""
""fullscreenenter"",""1"",""2214""
","
","
","""event"",""trial"",""time""
""fullscreenenter"",""1"",""2214""
","
","","","-1","","","11","1639","335","b","elianto","#3366ff99","-1","-1","1","+10","[]","0","3","","","1639","193","6","2","win","no-go","0","0"
"pit-trial","261","1818402","0.0-199.0","battery-v0.2","","""event"",""trial"",""time""
""fullscreenenter"",""1"",""2214""
","
","
","""event"",""trial"",""time""
""fullscreenenter"",""1"",""2214""
","
","","","-1","","","11","1639","335","c","elianto","#f73b6a7A","-1","-1","1","0","[]","0","3","","","1639","194","5","4","lose","no-go","0","0"
"pit-trial","262","1823263","0.0-200.0","battery-v0.2","","""event"",""trial"",""time""
""fullscreenenter"",""1"",""2214""
","
","
","""event"",""trial"",""time""
""fullscreenenter"",""1"",""2214""
","
","","","-1","","","11","1639","335","t","elianto","#3366ff99"," ","-1","0","0","[]","0","3","","","1639","195","7","1","win","go","0","0"
"pit-trial","263","1828119","0.0-201.0","battery-v0.2","","""event"",""trial"",""time""
""fullscreenenter"",""1"",""2214""
","
","
","""event"",""trial"",""time""
""fullscreenenter"",""1"",""2214""
","
","","","-1","","","11","1639","335","z","elianto","#f73b6a7A"," ","-1","0","0","[]","0","3","","","1639","196","4","3","lose","go","1","0"
"pit-trial","264","1832983","0.0-202.0","battery-v0.2","","""event"",""trial"",""time""
""fullscreenenter"",""1"",""2214""
","
","
","""event"",""trial"",""time""
""fullscreenenter"",""1"",""2214""
","
","","","-1","","","11","1639","335","z","elianto","#f73b6a7A"," ","-1","0","0","[]","0","3","","","1639","197","4","3","lose","go","1","0"
"pit-trial","265","1837841","0.0-203.0","battery-v0.2","","""event"",""trial"",""time""
""fullscreenenter"",""1"",""2214""
","
","
","""event"",""trial"",""time""
""fullscreenenter"",""1"",""2214""
","
","","","-1","","","11","1639","335","b","elianto","#3366ff99","-1","-1","1","+10","[]","0","3","","","1639","198","6","2","win","no-go","0","0"
"pit-trial","266","1842706","0.0-204.0","battery-v0.2","","""event"",""trial"",""time""
""fullscreenenter"",""1"",""2214""
","
","
","""event"",""trial"",""time""
""fullscreenenter"",""1"",""2214""
","
","","","-1","","","11","1639","335","c","elianto","#f73b6a7A","-1","-1","1","0","[]","0","3","","","1639","199","5","4","lose","no-go","0","0"
"pit-trial","267","1847568","0.0-205.0","battery-v0.2","","""event"",""trial"",""time""
""fullscreenenter"",""1"",""2214""
","
","
","""event"",""trial"",""time""
""fullscreenenter"",""1"",""2214""
","
