"trial_type","trial_index","time_elapsed","internal_node_id","task_version","view_history","rt","rune","rune_set","hex","correct","choice","accuracy","outcome","keys","total_keys","block","practice","subject","participantId","value","responses","num_errors","sub","trial","stimulus","robot","valence","action","sham"
"pavlovia","0","42","0.0-0.0","battery-v0.2","","","","","","","","","","","","","","","","","","","","","","","","",""
"pit-instructions","1","285755","0.0-1.0-0.0","battery-v0.2","[{""page_index"":0,""viewing_time"":5181.5},{""page_index"":1,""viewing_time"":2829.7000000476837},{""page_index"":2,""viewing_time"":2003.5},{""page_index"":3,""viewing_time"":5842.399999976158},{""page_index"":4,""viewing_time"":40704.69999998808},{""page_index"":5,""viewing_time"":11355.600000023842},{""page_index"":6,""viewing_time"":6987},{""page_index"":7,""viewing_time"":2276.199999988079},{""page_index"":8,""viewing_time"":10762.300000011921},{""page_index"":9,""viewing_time"":19966},{""page_index"":10,""viewing_time"":3928.699999988079},{""page_index"":11,""viewing_time"":9995.100000023842},{""page_index"":12,""viewing_time"":4875.699999988079},{""page_index"":11,""viewing_time"":475.69999998807907},{""page_index"":10,""viewing_time"":455.69999998807907},{""page_index"":9,""viewing_time"":1848.6000000238419},{""page_index"":8,""viewing_time"":585.1999999880791},{""page_index"":7,""viewing_time"":854.6999999880791},{""page_index"":6,""viewing_time"":1729.1000000238419},{""page_index"":5,""viewing_time"":29669.099999964237},{""page_index"":4,""viewing_time"":2023.2000000476837},{""page_index"":5,""viewing_time"":2239.699999988079},{""page_index"":6,""viewing_time"":8699.399999976158},{""page_index"":7,""viewing_time"":992.3000000119209},{""page_index"":8,""viewing_time"":6014.199999988079},{""page_index"":9,""viewing_time"":7812.300000011921},{""page_index"":10,""viewing_time"":1939.300000011921},{""page_index"":11,""viewing_time"":2067},{""page_index"":12,""viewing_time"":4159.300000011921},{""page_index"":13,""viewing_time"":26611},{""page_index"":14,""viewing_time"":22763},{""page_index"":15,""viewing_time"":2025.5},{""page_index"":16,""viewing_time"":4855.199999988079},{""page_index"":17,""viewing_time"":31181.599999964237}]","285711.90000003576","","","","","","","","","","","","","","","","","","","","","","",""
"pit-trial","2","289294","0.0-1.0-1.0-0.0","battery-v0.2","","680.6000000238419","&#9776;","elianto","#3366ff99","32","32","1","+10","1531.199999988079","1","0","1","4ee95e0e8737a0304baac70a&order=1&STUDY_ID=61caf85b4892b889f6411591","999","","","","","","","","","",""
"pit-trial","3","294158","0.0-1.0-1.0-1.0","battery-v0.2","","-1","&#9776;","elianto","#3366ff99","32","-1","0","0","","0","0","1","4ee95e0e8737a0304baac70a&order=1&STUDY_ID=61caf85b4892b889f6411591","999","","","","","","","","","",""
"pit-trial","4","297901","0.0-1.0-1.0-2.0","battery-v0.2","","885.1000000238419","&#9776;","elianto","#3366ff99","32","32","1","+10","1736.3999999761581","1","0","1","4ee95e0e8737a0304baac70a&order=1&STUDY_ID=61caf85b4892b889f6411591","999","","","","","","","","","",""
"pit-trial","5","301947","0.0-1.0-1.0-3.0","battery-v0.2","","1188.199999988079","&#9776;","elianto","#3366ff99","32","32","1","0","2038.5","1","0","1","4ee95e0e8737a0304baac70a&order=1&STUDY_ID=61caf85b4892b889f6411591","999","","","","","","","","","",""
"pit-trial","6","305406","0.0-1.0-1.0-4.0","battery-v0.2","","596.3999999761581","&#9776;","elianto","#3366ff99","32","32","1","+10","1449.0999999642372","1","0","1","4ee95e0e8737a0304baac70a&order=1&STUDY_ID=61caf85b4892b889f6411591","999","","","","","","","","","",""
"call-function","7","305411","0.0-1.0-2.0","battery-v0.2","","","","","","","","","","","","","","","","","","","","","","","","",""
"pit-instructions","8","479686","0.0-1.0-3.0","battery-v0.2","[{""page_index"":0,""viewing_time"":106003},{""page_index"":1,""viewing_time"":4579.800000011921},{""page_index"":2,""viewing_time"":2213.600000023842},{""page_index"":1,""viewing_time"":56577.39999997616},{""page_index"":2,""viewing_time"":4900.399999976158}]","174275.40000003576","","","","","","","","","","","","","","","","","","","","","","",""
"pit-trial","9","484548","0.0-1.0-4.0-0.0","battery-v0.2","","-1","&#9761;","elianto","#3366ff99","-1","-1","1","+10","","0","0","2","4ee95e0e8737a0304baac70a&order=1&STUDY_ID=61caf85b4892b889f6411591","999","","","","","","","","","",""
"pit-trial","10","489413","0.0-1.0-4.0-1.0","battery-v0.2","","-1","&#9761;","elianto","#3366ff99","-1","-1","1","+10","","0","0","2","4ee95e0e8737a0304baac70a&order=1&STUDY_ID=61caf85b4892b889f6411591","999","","","","","","","","","",""
"pit-trial","11","494275","0.0-1.0-4.0-2.0","battery-v0.2","","-1","&#9761;","elianto","#3366ff99","-1","-1","1","+10","","0","0","2","4ee95e0e8737a0304baac70a&order=1&STUDY_ID=61caf85b4892b889f6411591","999","","","","","","","","","",""
"pit-trial","12","499140","0.0-1.0-4.0-3.0","battery-v0.2","","-1","&#9761;","elianto","#3366ff99","-1","-1","1","+10","","0","0","2","4ee95e0e8737a0304baac70a&order=1&STUDY_ID=61caf85b4892b889f6411591","999","","","","","","","","","",""
"pit-trial","13","504006","0.0-1.0-4.0-4.0","battery-v0.2","","-1","&#9761;","elianto","#3366ff99","-1","-1","1","0","","0","0","2","4ee95e0e8737a0304baac70a&order=1&STUDY_ID=61caf85b4892b889f6411591","999","","","","","","","","","",""
"call-function","14","504009","0.0-1.0-5.0","battery-v0.2","","","","","","","","","","","","","","","","","","","","","","","","",""
"pit-instructions","15","546349","0.0-1.0-6.0","battery-v0.2","[{""page_index"":0,""viewing_time"":17001.69999998808},{""page_index"":1,""viewing_time"":25336.099999964237}]","42339.09999996424","","","","","","","","","","","","","","","","","","","","","","",""
"pit-trial","16","549562","0.0-1.0-7.0-0.0","battery-v0.2","","354.30000001192093","&#9826;","elianto","#f73b6a7A","-1","32","0","-10","1204.8999999761581","1","0","3","4ee95e0e8737a0304baac70a&order=1&STUDY_ID=61caf85b4892b889f6411591","999","","","","","","","","","",""
"pit-trial","17","554425","0.0-1.0-7.0-1.0","battery-v0.2","","-1","&#9826;","elianto","#f73b6a7A","-1","-1","1","0","","0","0","3","4ee95e0e8737a0304baac70a&order=1&STUDY_ID=61caf85b4892b889f6411591","999","","","","","","","","","",""
"pit-trial","18","559291","0.0-1.0-7.0-2.0","battery-v0.2","","-1","&#9826;","elianto","#f73b6a7A","-1","-1","1","-10","","0","0","3","4ee95e0e8737a0304baac70a&order=1&STUDY_ID=61caf85b4892b889f6411591","999","","","","","","","","","",""
"pit-trial","19","564157","0.0-1.0-7.0-3.0","battery-v0.2","","-1","&#9826;","elianto","#f73b6a7A","-1","-1","1","0","","0","0","3","4ee95e0e8737a0304baac70a&order=1&STUDY_ID=61caf85b4892b889f6411591","999","","","","","","","","","",""
"pit-trial","20","567457","0.0-1.0-7.0-4.0","battery-v0.2","","444","&#9826;","elianto","#f73b6a7A","-1","32","0","-10","1294.2999999523163","1","0","3","4ee95e0e8737a0304baac70a&order=1&STUDY_ID=61caf85b4892b889f6411591","999","","","","","","","","","",""
"pit-trial","21","572323","0.0-1.0-7.1-0.1","battery-v0.2","","-1","&#9826;","elianto","#f73b6a7A","-1","-1","1","0","","0","0","3","4ee95e0e8737a0304baac70a&order=1&STUDY_ID=61caf85b4892b889f6411591","999","","","","","","","","","",""
"pit-trial","22","577189","0.0-1.0-7.1-1.1","battery-v0.2","","-1","&#9826;","elianto","#f73b6a7A","-1","-1","1","0","","0","0","3","4ee95e0e8737a0304baac70a&order=1&STUDY_ID=61caf85b4892b889f6411591","999","","","","","","","","","",""
"pit-trial","23","582046","0.0-1.0-7.1-2.1","battery-v0.2","","-1","&#9826;","elianto","#f73b6a7A","-1","-1","1","-10","","0","0","3","4ee95e0e8737a0304baac70a&order=1&STUDY_ID=61caf85b4892b889f6411591","999","","","","","","","","","",""
"pit-trial","24","586905","0.0-1.0-7.1-3.1","battery-v0.2","","-1","&#9826;","elianto","#f73b6a7A","-1","-1","1","0","","0","0","3","4ee95e0e8737a0304baac70a&order=1&STUDY_ID=61caf85b4892b889f6411591","999","","","","","","","","","",""
"pit-trial","25","591771","0.0-1.0-7.1-4.1","battery-v0.2","","-1","&#9826;","elianto","#f73b6a7A","-1","-1","1","0","","0","0","3","4ee95e0e8737a0304baac70a&order=1&STUDY_ID=61caf85b4892b889f6411591","999","","","","","","","","","",""
"call-function","26","591773","0.0-1.0-8.0","battery-v0.2","","","","","","","","","","","","","","","","","","","","","","","","",""
"pit-instructions","27","926168","0.0-1.0-9.0","battery-v0.2","[{""page_index"":0,""viewing_time"":298056.1999999881},{""page_index"":1,""viewing_time"":36337.30000001192}]","334395.39999997616","","","","","","","","","","","","","","","","","","","","","","",""
"pit-trial","28","931034","0.0-1.0-10.0-0.0","battery-v0.2","","-1","&#9789;","elianto","#f73b6a7A","32","-1","0","-10","","0","0","4","4ee95e0e8737a0304baac70a&order=1&STUDY_ID=61caf85b4892b889f6411591","999","","","","","","","","","",""
"pit-trial","29","934625","0.0-1.0-10.0-1.0","battery-v0.2","","734.9000000357628","&#9789;","elianto","#f73b6a7A","32","32","1","0","1585.199999988079","1","0","4","4ee95e0e8737a0304baac70a&order=1&STUDY_ID=61caf85b4892b889f6411591","999","","","","","","","","","",""
"pit-trial","30","938096","0.0-1.0-10.0-2.0","battery-v0.2","","617","&#9789;","elianto","#f73b6a7A","32","32","1","0","1467.3999999761581","1","0","4","4ee95e0e8737a0304baac70a&order=1&STUDY_ID=61caf85b4892b889f6411591","999","","","","","","","","","",""
"pit-trial","31","941523","0.0-1.0-10.0-3.0","battery-v0.2","","571.7999999523163","&#9789;","elianto","#f73b6a7A","32","32","1","0","1423.7999999523163","1","0","4","4ee95e0e8737a0304baac70a&order=1&STUDY_ID=61caf85b4892b889f6411591","999","","","","","","","","","",""
"pit-trial","32","945068","0.0-1.0-10.0-4.0","battery-v0.2","","685.5999999642372","&#9789;","elianto","#f73b6a7A","32","32","1","-10","1537.199999988079","1","0","4","4ee95e0e8737a0304baac70a&order=1&STUDY_ID=61caf85b4892b889f6411591","999","","","","","","","","","",""
"call-function","33","945071","0.0-1.0-11.0","battery-v0.2","","","","","","","","","","","","","","","","","","","","","","","","",""
"pit-instructions","34","1035471","0.0-1.0-12.0","battery-v0.2","[{""page_index"":0,""viewing_time"":48660.80000001192},{""page_index"":1,""viewing_time"":7725.699999988079},{""page_index"":2,""viewing_time"":13258.699999988079},{""page_index"":3,""viewing_time"":3590.199999988079},{""page_index"":4,""viewing_time"":1331.6000000238419},{""page_index"":3,""viewing_time"":13897.099999964237},{""page_index"":4,""viewing_time"":1935}]","90399.80000001192","","","","","","","","","","","","","","","","","","","","","","",""
"pit-comprehension","35","1040594","0.0-1.0-13.0-0.0","battery-v0.2","","5117.300000011921","","","","","","","","","","","","","","","SPACE","0","","","","","","",""
"pit-instructions","36","1042316","0.0-1.0-13.0-1.0","battery-v0.2","[{""page_index"":0,""viewing_time"":1675.5}]","1676.199999988079","","","","","","","","","","","","","","","","","","","","","","",""
"pit-comprehension","37","1050447","0.0-1.0-14.0-0.0","battery-v0.2","","8126.699999988079","","","","","","","","","","","","","","","10","0","","","","","","",""
"pit-instructions","38","1052072","0.0-1.0-14.0-1.0","battery-v0.2","[{""page_index"":0,""viewing_time"":1608}]","1608.9000000357628","","","","","","","","","","","","","","","","","","","","","","",""
"pit-comprehension","39","1097978","0.0-1.0-15.0-0.0","battery-v0.2","","45901.69999998808","","","","","","","","","","","","","","","0","0","","","","","","",""
"pit-instructions","40","1099726","0.0-1.0-15.0-1.0","battery-v0.2","[{""page_index"":0,""viewing_time"":1731}]","1731.5","","","","","","","","","","","","","","","","","","","","","","",""
"pit-comprehension","41","1107418","0.0-1.0-16.0-0.0","battery-v0.2","","7688.800000011921","","","","","","","","","","","","","","","True","0","","","","","","",""
"pit-instructions","42","1109152","0.0-1.0-16.0-1.0","battery-v0.2","[{""page_index"":0,""viewing_time"":1717.699999988079}]","1718.300000011921","","","","","","","","","","","","","","","","","","","","","","",""
"pit-comprehension","43","1114339","0.0-1.0-17.0-0.0","battery-v0.2","","5183.299999952316","","","","","","","","","","","","","","","True","0","","","","","","",""
"pit-instructions","44","1116355","0.0-1.0-17.0-1.0","battery-v0.2","[{""page_index"":0,""viewing_time"":1998.300000011921}]","1998.9000000357628","","","","","","","","","","","","","","","","","","","","","","",""
"pit-comprehension","45","1149197","0.0-1.0-18.0-0.0","battery-v0.2","","32838.10000002384","","","","","","","","","","","","","","","True","0","","","","","","",""
"pit-instructions","46","1150423","0.0-1.0-18.0-1.0","battery-v0.2","[{""page_index"":0,""viewing_time"":1207.8999999761581}]","1208.800000011921","","","","","","","","","","","","","","","","","","","","","","",""
"pit-instructions","47","1156593","0.0-2.0","battery-v0.2","[{""page_index"":0,""viewing_time"":1605},{""page_index"":1,""viewing_time"":2528.400000035763},{""page_index"":2,""viewing_time"":2032.699999988079}]","6166.800000011921","","","","","","","","","","","","","","","","","","","","","","",""
"pit-trial","48","1160359","0.0-3.0","battery-v0.2","","901.8999999761581","&#9733;","elianto","#3366ff99","-1","32","0","0","1754.199999988079","1","1","","","","","","","4ee95e0e8737a0304baac70a&order=1&STUDY_ID=61caf85b4892b889f6411591","1","2","2","win","no-go","0"
"pit-trial","49","1164628","0.0-4.0","battery-v0.2","","1408.5999999642372","&#9728;","elianto","#f73b6a7A","-1","32","0","0","2259.399999976158","1","1","","","","","","","4ee95e0e8737a0304baac70a&order=1&STUDY_ID=61caf85b4892b889f6411591","2","0","4","lose","no-go","1"
"pit-trial","50","1168692","0.0-5.0","battery-v0.2","","1203.8999999761581","&#9730;","elianto","#3366ff99","32","32","1","+10","2054.5","1","1","","","","","","","4ee95e0e8737a0304baac70a&order=1&STUDY_ID=61caf85b4892b889f6411591","3","1","1","win","go","0"
"pit-trial","51","1173406","0.0-6.0","battery-v0.2","","1854.5","&#9752;","elianto","#f73b6a7A","32","32","1","0","2705.199999988079","1","1","","","","","","","4ee95e0e8737a0304baac70a&order=1&STUDY_ID=61caf85b4892b889f6411591","4","3","3","lose","go","0"
"pit-trial","52","1177289","0.0-7.0","battery-v0.2","","1023.5","&#9730;","elianto","#3366ff99","32","32","1","0","1874","1","1","","","","","","","4ee95e0e8737a0304baac70a&order=1&STUDY_ID=61caf85b4892b889f6411591","5","1","1","win","go","1"
"pit-trial","53","1181250","0.0-8.0","battery-v0.2","","1103.7999999523163","&#9728;","elianto","#f73b6a7A","-1","32","0","0","1954.0999999642372","1","1","","","","","","","4ee95e0e8737a0304baac70a&order=1&STUDY_ID=61caf85b4892b889f6411591","6","0","4","lose","no-go","1"
"pit-trial","54","1186105","0.0-9.0","battery-v0.2","","-1","&#9752;","elianto","#f73b6a7A","32","-1","0","0","","0","1","","","","","","","4ee95e0e8737a0304baac70a&order=1&STUDY_ID=61caf85b4892b889f6411591","7","3","3","lose","go","1"
"pit-trial","55","1189921","0.0-10.0","battery-v0.2","","962.1000000238419","&#9733;","elianto","#3366ff99","-1","32","0","+10","1812.7000000476837","1","1","","","","","","","4ee95e0e8737a0304baac70a&order=1&STUDY_ID=61caf85b4892b889f6411591","8","2","2","win","no-go","1"
"pit-trial","56","1194784","0.0-11.0","battery-v0.2","","-1","&#9752;","elianto","#f73b6a7A","32","-1","0","-10","","0","1","","","","","","","4ee95e0e8737a0304baac70a&order=1&STUDY_ID=61caf85b4892b889f6411591","9","3","3","lose","go","0"
"pit-trial","57","1198698","0.0-12.0","battery-v0.2","","1056.5","&#9730;","elianto","#3366ff99","32","32","1","+10","1906.6000000238419","1","1","","","","","","","4ee95e0e8737a0304baac70a&order=1&STUDY_ID=61caf85b4892b889f6411591","10","1","1","win","go","0"
"pit-trial","58","1202331","0.0-13.0","battery-v0.2","","774.5","&#9733;","elianto","#3366ff99","-1","32","0","0","1626.0999999642372","1","1","","","","","","","4ee95e0e8737a0304baac70a&order=1&STUDY_ID=61caf85b4892b889f6411591","11","2","2","win","no-go","0"
"pit-trial","59","1207189","0.0-14.0","battery-v0.2","","-1","&#9728;","elianto","#f73b6a7A","-1","-1","1","-10","","0","1","","","","","","","4ee95e0e8737a0304baac70a&order=1&STUDY_ID=61caf85b4892b889f6411591","12","0","4","lose","no-go","1"
"pit-trial","60","1211009","0.0-15.0","battery-v0.2","","963.3000000119209","&#9733;","elianto","#3366ff99","-1","32","0","0","1814.1000000238419","1","1","","","","","","","4ee95e0e8737a0304baac70a&order=1&STUDY_ID=61caf85b4892b889f6411591","13","2","2","win","no-go","0"
"pit-trial","61","1214676","0.0-16.0","battery-v0.2","","812.4000000357628","&#9730;","elianto","#3366ff99","32","32","1","+10","1662.6000000238419","1","1","","","","","","","4ee95e0e8737a0304baac70a&order=1&STUDY_ID=61caf85b4892b889f6411591","14","1","1","win","go","0"
"pit-trial","62","1219536","0.0-17.0","battery-v0.2","","-1","&#9752;","elianto","#f73b6a7A","32","-1","0","-10","","0","1","","","","","","","4ee95e0e8737a0304baac70a&order=1&STUDY_ID=61caf85b4892b889f6411591","15","3","3","lose","go","0"
"pit-trial","63","1224395","0.0-18.0","battery-v0.2","","-1","&#9728;","elianto","#f73b6a7A","-1","-1","1","-10","","0","1","","","","","","","4ee95e0e8737a0304baac70a&order=1&STUDY_ID=61caf85b4892b889f6411591","16","0","4","lose","no-go","1"
"pit-trial","64","1228079","0.0-19.0","battery-v0.2","","829.8999999761581","&#9730;","elianto","#3366ff99","32","32","1","+10","1680","1","1","","","","","","","4ee95e0e8737a0304baac70a&order=1&STUDY_ID=61caf85b4892b889f6411591","17","1","1","win","go","0"
"pit-trial","65","1231698","0.0-20.0","battery-v0.2","","759.2000000476837","&#9752;","elianto","#f73b6a7A","32","32","1","0","1609.7000000476837","1","1","","","","","","","4ee95e0e8737a0304baac70a&order=1&STUDY_ID=61caf85b4892b889f6411591","18","3","3","lose","go","0"
"pit-trial","66","1236562","0.0-21.0","battery-v0.2","","-1","&#9733;","elianto","#3366ff99","-1","-1","1","+10","","0","1","","","","","","","4ee95e0e8737a0304baac70a&order=1&STUDY_ID=61caf85b4892b889f6411591","19","2","2","win","no-go","0"
"pit-trial","67","1240241","0.0-22.0","battery-v0.2","","820.5","&#9728;","elianto","#f73b6a7A","-1","32","0","-10","1670.5999999642372","1","1","","","","","","","4ee95e0e8737a0304baac70a&order=1&STUDY_ID=61caf85b4892b889f6411591","20","0","4","lose","no-go","0"
"pit-instructions","68","1246754","0.0-23.0","battery-v0.2","[{""page_index"":0,""viewing_time"":2917.399999976158},{""page_index"":1,""viewing_time"":3591.600000023842}]","6509.699999988079","","","","","","","","","","","","","","","","","","","","","","",""
"pit-trial","69","1251615","0.0-24.0","battery-v0.2","","-1","Y","elianto","#3366ff99","32","-1","0","+10","","0","2","","","","","","","4ee95e0e8737a0304baac70a&order=1&STUDY_ID=61caf85b4892b889f6411591","21","2","1","win","go","1"
"pit-trial","70","1256474","0.0-25.0","battery-v0.2","","-1","H","elianto","#f73b6a7A","32","-1","0","0","","0","2","","","","","","","4ee95e0e8737a0304baac70a&order=1&STUDY_ID=61caf85b4892b889f6411591","22","3","3","lose","go","1"
"pit-trial","71","1261332","0.0-26.0","battery-v0.2","","-1","R","elianto","#3366ff99","-1","-1","1","+10","","0","2","","","","","","","4ee95e0e8737a0304baac70a&order=1&STUDY_ID=61caf85b4892b889f6411591","23","1","2","win","no-go","0"
"pit-trial","72","1266193","0.0-27.0","battery-v0.2","","-1","M","elianto","#3366ff99","-1","-1","1","0","","0","2","","","","","","","4ee95e0e8737a0304baac70a&order=1&STUDY_ID=61caf85b4892b889f6411591","24","0","2","win","no-go","1"
"pit-trial","73","1271052","0.0-28.0","battery-v0.2","","-1","H","elianto","#f73b6a7A","32","-1","0","-10","","0","2","","","","","","","4ee95e0e8737a0304baac70a&order=1&STUDY_ID=61caf85b4892b889f6411591","25","3","3","lose","go","0"
"pit-trial","74","1275910","0.0-29.0","battery-v0.2","","-1","M","elianto","#3366ff99","-1","-1","1","+10","","0","2","","","","","","","4ee95e0e8737a0304baac70a&order=1&STUDY_ID=61caf85b4892b889f6411591","26","0","2","win","no-go","0"
"pit-trial","75","1280770","0.0-30.0","battery-v0.2","","-1","Y","elianto","#3366ff99","32","-1","0","0","","0","2","","","","","","","4ee95e0e8737a0304baac70a&order=1&STUDY_ID=61caf85b4892b889f6411591","27","2","1","win","go","0"
"pit-trial","76","1285632","0.0-31.0","battery-v0.2","","-1","R","elianto","#3366ff99","-1","-1","1","+10","","0","2","","","","","","","4ee95e0e8737a0304baac70a&order=1&STUDY_ID=61caf85b4892b889f6411591","28","1","2","win","no-go","0"
"pit-trial","77","1290486","0.0-32.0","battery-v0.2","","-1","M","elianto","#3366ff99","-1","-1","1","+10","","0","2","","","","","","","4ee95e0e8737a0304baac70a&order=1&STUDY_ID=61caf85b4892b889f6411591","29","0","2","win","no-go","0"
"pit-trial","78","1295345","0.0-33.0","battery-v0.2","","-1","R","elianto","#3366ff99","-1","-1","1","+10","","0","2","","","","","","","4ee95e0e8737a0304baac70a&order=1&STUDY_ID=61caf85b4892b889f6411591","30","1","2","win","no-go","0"
"pit-trial","79","1300200","0.0-34.0","battery-v0.2","","-1","H","elianto","#f73b6a7A","32","-1","0","0","","0","2","","","","","","","4ee95e0e8737a0304baac70a&order=1&STUDY_ID=61caf85b4892b889f6411591","31","3","3","lose","go","1"
"pit-trial","80","1305054","0.0-35.0","battery-v0.2","","-1","Y","elianto","#3366ff99","32","-1","0","0","","0","2","","","","","","","4ee95e0e8737a0304baac70a&order=1&STUDY_ID=61caf85b4892b889f6411591","32","2","1","win","go","0"
"pit-trial","81","1309917","0.0-36.0","battery-v0.2","","-1","Y","elianto","#3366ff99","32","-1","0","0","","0","2","","","","","","","4ee95e0e8737a0304baac70a&order=1&STUDY_ID=61caf85b4892b889f6411591","33","2","1","win","go","0"
"pit-trial","82","1314780","0.0-37.0","battery-v0.2","","-1","R","elianto","#3366ff99","-1","-1","1","+10","","0","2","","","","","","","4ee95e0e8737a0304baac70a&order=1&STUDY_ID=61caf85b4892b889f6411591","34","1","2","win","no-go","0"
"pit-trial","83","1319641","0.0-38.0","battery-v0.2","","-1","H","elianto","#f73b6a7A","32","-1","0","-10","","0","2","","","","","","","4ee95e0e8737a0304baac70a&order=1&STUDY_ID=61caf85b4892b889f6411591","35","3","3","lose","go","0"
"pit-trial","84","1324504","0.0-39.0","battery-v0.2","","-1","M","elianto","#3366ff99","-1","-1","1","+10","","0","2","","","","","","","4ee95e0e8737a0304baac70a&order=1&STUDY_ID=61caf85b4892b889f6411591","36","0","2","win","no-go","0"
"pit-trial","85","1329364","0.0-40.0","battery-v0.2","","-1","M","elianto","#3366ff99","-1","-1","1","+10","","0","2","","","","","","","4ee95e0e8737a0304baac70a&order=1&STUDY_ID=61caf85b4892b889f6411591","37","0","2","win","no-go","0"
"pit-trial","86","1334223","0.0-41.0","battery-v0.2","","-1","R","elianto","#3366ff99","-1","-1","1","0","","0","2","","","","","","","4ee95e0e8737a0304baac70a&order=1&STUDY_ID=61caf85b4892b889f6411591","38","1","2","win","no-go","1"
"pit-trial","87","1339079","0.0-42.0","battery-v0.2","","-1","H","elianto","#f73b6a7A","32","-1","0","-10","","0","2","","","","","","","4ee95e0e8737a0304baac70a&order=1&STUDY_ID=61caf85b4892b889f6411591","39","3","3","lose","go","0"
"pit-trial","88","1343938","0.0-43.0","battery-v0.2","","-1","Y","elianto","#3366ff99","32","-1","0","0","","0","2","","","","","","","4ee95e0e8737a0304baac70a&order=1&STUDY_ID=61caf85b4892b889f6411591","40","2","1","win","go","0"
"pit-trial","89","1348796","0.0-44.0","battery-v0.2","","-1","Y","elianto","#3366ff99","32","-1","0","0","","0","2","","","","","","","4ee95e0e8737a0304baac70a&order=1&STUDY_ID=61caf85b4892b889f6411591","41","2","1","win","go","0"
"pit-trial","90","1353659","0.0-45.0","battery-v0.2","","-1","M","elianto","#3366ff99","-1","-1","1","+10","","0","2","","","","","","","4ee95e0e8737a0304baac70a&order=1&STUDY_ID=61caf85b4892b889f6411591","42","0","2","win","no-go","0"
"pit-trial","91","1358521","0.0-46.0","battery-v0.2","","-1","H","elianto","#f73b6a7A","32","-1","0","0","","0","2","","","","","","","4ee95e0e8737a0304baac70a&order=1&STUDY_ID=61caf85b4892b889f6411591","43","3","3","lose","go","1"
"pit-trial","92","1363381","0.0-47.0","battery-v0.2","","-1","R","elianto","#3366ff99","-1","-1","1","+10","","0","2","","","","","","","4ee95e0e8737a0304baac70a&order=1&STUDY_ID=61caf85b4892b889f6411591","44","1","2","win","no-go","0"
"pit-trial","93","1368245","0.0-48.0","battery-v0.2","","-1","H","elianto","#f73b6a7A","32","-1","0","0","","0","2","","","","","","","4ee95e0e8737a0304baac70a&order=1&STUDY_ID=61caf85b4892b889f6411591","45","3","3","lose","go","1"
"pit-trial","94","1373101","0.0-49.0","battery-v0.2","","-1","Y","elianto","#3366ff99","32","-1","0","0","","0","2","","","","","","","4ee95e0e8737a0304baac70a&order=1&STUDY_ID=61caf85b4892b889f6411591","46","2","1","win","go","0"
"pit-trial","95","1377960","0.0-50.0","battery-v0.2","","-1","M","elianto","#3366ff99","-1","-1","1","+10","","0","2","","","","","","","4ee95e0e8737a0304baac70a&order=1&STUDY_ID=61caf85b4892b889f6411591","47","0","2","win","no-go","0"
"pit-trial","96","1382822","0.0-51.0","battery-v0.2","","-1","R","elianto","#3366ff99","-1","-1","1","+10","","0","2","","","","","","","4ee95e0e8737a0304baac70a&order=1&STUDY_ID=61caf85b4892b889f6411591","48","1","2","win","no-go","0"
"pit-trial","97","1387687","0.0-52.0","battery-v0.2","","-1","Y","elianto","#3366ff99","32","-1","0","0","","0","2","","","","","","","4ee95e0e8737a0304baac70a&order=1&STUDY_ID=61caf85b4892b889f6411591","49","2","1","win","go","0"
"pit-trial","98","1392542","0.0-53.0","battery-v0.2","","-1","H","elianto","#f73b6a7A","32","-1","0","-10","","0","2","","","","","","","4ee95e0e8737a0304baac70a&order=1&STUDY_ID=61caf85b4892b889f6411591","50","3","3","lose","go","0"
"pit-trial","99","1397394","0.0-54.0","battery-v0.2","","-1","R","elianto","#3366ff99","-1","-1","1","+10","","0","2","","","","","","","4ee95e0e8737a0304baac70a&order=1&STUDY_ID=61caf85b4892b889f6411591","51","1","2","win","no-go","0"
"pit-trial","100","1402254","0.0-55.0","battery-v0.2","","-1","M","elianto","#3366ff99","-1","-1","1","+10","","0","2","","","","","","","4ee95e0e8737a0304baac70a&order=1&STUDY_ID=61caf85b4892b889f6411591","52","0","2","win","no-go","0"
"pit-trial","101","1407111","0.0-56.0","battery-v0.2","","-1","Z","elianto","#f73b6a7A","-1","-1","1","0","","0","2","","","","","","","4ee95e0e8737a0304baac70a&order=1&STUDY_ID=61caf85b4892b889f6411591","53","4","4","lose","no-go","0"
"pit-trial","102","1411972","0.0-57.0","battery-v0.2","","-1","M","elianto","#3366ff99","-1","-1","1","0","","0","2","","","","","","","4ee95e0e8737a0304baac70a&order=1&STUDY_ID=61caf85b4892b889f6411591","54","0","2","win","no-go","1"
"pit-trial","103","1418423","0.0-58.0","battery-v0.2","","-1","Y","elianto","#3366ff99","32","-1","0","0","","0","2","","","","","","","4ee95e0e8737a0304baac70a&order=1&STUDY_ID=61caf85b4892b889f6411591","55","2","1","win","go","0"
"pit-trial","104","1424422","0.0-59.0","battery-v0.2","","-1","C","elianto","#f73b6a7A","32","-1","0","-10","","0","2","","","","","","","4ee95e0e8737a0304baac70a&order=1&STUDY_ID=61caf85b4892b889f6411591","56","5","3","lose","go","0"
"pit-trial","105","1430422","0.0-60.0","battery-v0.2","","-1","M","elianto","#3366ff99","-1","-1","1","+10","","0","2","","","","","","","4ee95e0e8737a0304baac70a&order=1&STUDY_ID=61caf85b4892b889f6411591","57","0","2","win","no-go","0"
"pit-trial","106","1437921","0.0-61.0","battery-v0.2","","-1","Z","elianto","#f73b6a7A","-1","-1","1","0","","0","2","","","","","","","4ee95e0e8737a0304baac70a&order=1&STUDY_ID=61caf85b4892b889f6411591","58","4","4","lose","no-go","0"
"pit-trial","107","1445605","0.0-62.0","battery-v0.2","","-1","Y","elianto","#3366ff99","32","-1","0","0","","0","2","","","","","","","4ee95e0e8737a0304baac70a&order=1&STUDY_ID=61caf85b4892b889f6411591","59","2","1","win","go","0"
"pit-trial","108","1452422","0.0-63.0","battery-v0.2","","-1","C","elianto","#f73b6a7A","32","-1","0","-10","","0","2","","","","","","","4ee95e0e8737a0304baac70a&order=1&STUDY_ID=61caf85b4892b889f6411591","60","5","3","lose","go","0"
"pit-trial","109","1458422","0.0-64.0","battery-v0.2","","-1","B","elianto","#3366ff99","-1","-1","1","+10","","0","2","","","","","","","4ee95e0e8737a0304baac70a&order=1&STUDY_ID=61caf85b4892b889f6411591","61","6","2","win","no-go","0"
"pit-trial","110","1464422","0.0-65.0","battery-v0.2","","-1","Z","elianto","#f73b6a7A","-1","-1","1","0","","0","2","","","","","","","4ee95e0e8737a0304baac70a&order=1&STUDY_ID=61caf85b4892b889f6411591","62","4","4","lose","no-go","0"
"pit-trial","111","1470422","0.0-66.0","battery-v0.2","","-1","C","elianto","#f73b6a7A","32","-1","0","-10","","0","2","","","","","","","4ee95e0e8737a0304baac70a&order=1&STUDY_ID=61caf85b4892b889f6411591","63","5","3","lose","go","0"
"pit-trial","112","1476422","0.0-67.0","battery-v0.2","","-1","Y","elianto","#3366ff99","32","-1","0","0","","0","2","","","","","","","4ee95e0e8737a0304baac70a&order=1&STUDY_ID=61caf85b4892b889f6411591","64","2","1","win","go","0"
"pit-trial","113","1482422","0.0-68.0","battery-v0.2","","-1","C","elianto","#f73b6a7A","32","-1","0","-10","","0","2","","","","","","","4ee95e0e8737a0304baac70a&order=1&STUDY_ID=61caf85b4892b889f6411591","65","5","3","lose","go","0"
"pit-trial","114","1488422","0.0-69.0","battery-v0.2","","-1","B","elianto","#3366ff99","-1","-1","1","+10","","0","2","","","","","","","4ee95e0e8737a0304baac70a&order=1&STUDY_ID=61caf85b4892b889f6411591","66","6","2","win","no-go","0"
"pit-trial","115","1495095","0.0-70.0","battery-v0.2","","-1","Y","elianto","#3366ff99","32","-1","0","0","","0","2","","","","","","","4ee95e0e8737a0304baac70a&order=1&STUDY_ID=61caf85b4892b889f6411591","67","2","1","win","go","0"
"pit-trial","116","1501422","0.0-71.0","battery-v0.2","","-1","Z","elianto","#f73b6a7A","-1","-1","1","0","","0","2","","","","","","","4ee95e0e8737a0304baac70a&order=1&STUDY_ID=61caf85b4892b889f6411591","68","4","4","lose","no-go","0"
"pit-trial","117","1507421","0.0-72.0","battery-v0.2","","-1","C","elianto","#f73b6a7A","32","-1","0","0","","0","2","","","","","","","4ee95e0e8737a0304baac70a&order=1&STUDY_ID=61caf85b4892b889f6411591","69","5","3","lose","go","1"
"pit-trial","118","1514400","0.0-73.0","battery-v0.2","","-1","B","elianto","#3366ff99","-1","-1","1","+10","","0","2","","","","","","","4ee95e0e8737a0304baac70a&order=1&STUDY_ID=61caf85b4892b889f6411591","70","6","2","win","no-go","0"
"pit-trial","119","1521516","0.0-74.0","battery-v0.2","","-1","T","elianto","#f73b6a7A","-1","-1","1","-10","","0","2","","","","","","","4ee95e0e8737a0304baac70a&order=1&STUDY_ID=61caf85b4892b889f6411591","71","7","4","lose","no-go","1"
"pit-trial","120","1527421","0.0-75.0","battery-v0.2","","-1","Z","elianto","#f73b6a7A","-1","-1","1","0","","0","2","","","","","","","4ee95e0e8737a0304baac70a&order=1&STUDY_ID=61caf85b4892b889f6411591","72","4","4","lose","no-go","0"
"pit-trial","121","1533421","0.0-76.0","battery-v0.2","","-1","B","elianto","#3366ff99","-1","-1","1","+10","","0","2","","","","","","","4ee95e0e8737a0304baac70a&order=1&STUDY_ID=61caf85b4892b889f6411591","73","6","2","win","no-go","0"
"pit-trial","122","1540419","0.0-77.0","battery-v0.2","","-1","Z","elianto","#f73b6a7A","-1","-1","1","0","","0","2","","","","","","","4ee95e0e8737a0304baac70a&order=1&STUDY_ID=61caf85b4892b889f6411591","74","4","4","lose","no-go","0"
"pit-trial","123","1546422","0.0-78.0","battery-v0.2","","-1","T","elianto","#f73b6a7A","-1","-1","1","0","","0","2","","","","","","","4ee95e0e8737a0304baac70a&order=1&STUDY_ID=61caf85b4892b889f6411591","75","7","4","lose","no-go","0"
"pit-trial","124","1553908","0.0-79.0","battery-v0.2","","-1","C","elianto","#f73b6a7A","32","-1","0","0","","0","2","","","","","","","4ee95e0e8737a0304baac70a&order=1&STUDY_ID=61caf85b4892b889f6411591","76","5","3","lose","go","1"
"pit-trial","125","1560536","0.0-80.0","battery-v0.2","","-1","C","elianto","#f73b6a7A","32","-1","0","0","","0","2","","","","","","","4ee95e0e8737a0304baac70a&order=1&STUDY_ID=61caf85b4892b889f6411591","77","5","3","lose","go","1"
"pit-trial","126","1566421","0.0-81.0","battery-v0.2","","-1","Z","elianto","#f73b6a7A","-1","-1","1","0","","0","2","","","","","","","4ee95e0e8737a0304baac70a&order=1&STUDY_ID=61caf85b4892b889f6411591","78","4","4","lose","no-go","0"
"pit-trial","127","1572421","0.0-82.0","battery-v0.2","","-1","B","elianto","#3366ff99","-1","-1","1","+10","","0","2","","","","","","","4ee95e0e8737a0304baac70a&order=1&STUDY_ID=61caf85b4892b889f6411591","79","6","2","win","no-go","0"
"pit-trial","128","1579531","0.0-83.0","battery-v0.2","","-1","T","elianto","#f73b6a7A","-1","-1","1","0","","0","2","","","","","","","4ee95e0e8737a0304baac70a&order=1&STUDY_ID=61caf85b4892b889f6411591","80","7","4","lose","no-go","0"
"pit-trial","129","1585421","0.0-84.0","battery-v0.2","","-1","C","elianto","#f73b6a7A","32","-1","0","-10","","0","2","","","","","","","4ee95e0e8737a0304baac70a&order=1&STUDY_ID=61caf85b4892b889f6411591","81","5","3","lose","go","0"
"pit-trial","130","1591420","0.0-85.0","battery-v0.2","","-1","Z","elianto","#f73b6a7A","-1","-1","1","0","","0","2","","","","","","","4ee95e0e8737a0304baac70a&order=1&STUDY_ID=61caf85b4892b889f6411591","82","4","4","lose","no-go","0"
"pit-trial","131","1596282","0.0-86.0","battery-v0.2","","-1","B","elianto","#3366ff99","-1","-1","1","+10","","0","2","","","","","","","4ee95e0e8737a0304baac70a&order=1&STUDY_ID=61caf85b4892b889f6411591","83","6","2","win","no-go","0"
"pit-trial","132","1599879","0.0-87.0","battery-v0.2","","741.5","T","elianto","#f73b6a7A","-1","32","0","0","1593.199999988079","1","2","","","","","","","4ee95e0e8737a0304baac70a&order=1&STUDY_ID=61caf85b4892b889f6411591","84","7","4","lose","no-go","1"
"pit-trial","133","1604734","0.0-88.0","battery-v0.2","","-1","Z","elianto","#f73b6a7A","-1","-1","1","0","","0","2","","","","","","","4ee95e0e8737a0304baac70a&order=1&STUDY_ID=61caf85b4892b889f6411591","85","4","4","lose","no-go","0"
"pit-trial","134","1609590","0.0-89.0","battery-v0.2","","-1","B","elianto","#3366ff99","-1","-1","1","+10","","0","2","","","","","","","4ee95e0e8737a0304baac70a&order=1&STUDY_ID=61caf85b4892b889f6411591","86","6","2","win","no-go","0"
"pit-trial","135","1614449","0.0-90.0","battery-v0.2","","-1","C","elianto","#f73b6a7A","32","-1","0","-10","","0","2","","","","","","","4ee95e0e8737a0304baac70a&order=1&STUDY_ID=61caf85b4892b889f6411591","87","5","3","lose","go","0"
"pit-trial","136","1618167","0.0-91.0","battery-v0.2","","863","T","elianto","#f73b6a7A","-1","32","0","-10","1713.1000000238419","1","2","","","","","","","4ee95e0e8737a0304baac70a&order=1&STUDY_ID=61caf85b4892b889f6411591","88","7","4","lose","no-go","0"
"pit-trial","137","1621690","0.0-92.0","battery-v0.2","","667.3000000119209","T","elianto","#f73b6a7A","-1","32","0","-10","1518.4000000357628","1","2","","","","","","","4ee95e0e8737a0304baac70a&order=1&STUDY_ID=61caf85b4892b889f6411591","89","7","4","lose","no-go","0"
"pit-trial","138","1625457","0.0-93.0","battery-v0.2","","908.3999999761581","B","elianto","#3366ff99","-1","32","0","0","1759.5999999642372","1","2","","","","","","","4ee95e0e8737a0304baac70a&order=1&STUDY_ID=61caf85b4892b889f6411591","90","6","2","win","no-go","0"
"pit-trial","139","1629256","0.0-94.0","battery-v0.2","","940.3000000119209","C","elianto","#f73b6a7A","32","32","1","0","1790.300000011921","1","2","","","","","","","4ee95e0e8737a0304baac70a&order=1&STUDY_ID=61caf85b4892b889f6411591","91","5","3","lose","go","0"
"pit-trial","140","1634120","0.0-95.0","battery-v0.2","","-1","Z","elianto","#f73b6a7A","-1","-1","1","0","","0","2","","","","","","","4ee95e0e8737a0304baac70a&order=1&STUDY_ID=61caf85b4892b889f6411591","92","4","4","lose","no-go","0"
"pit-trial","141","1638981","0.0-96.0","battery-v0.2","","-1","C","elianto","#f73b6a7A","32","-1","0","0","","0","2","","","","","","","4ee95e0e8737a0304baac70a&order=1&STUDY_ID=61caf85b4892b889f6411591","93","5","3","lose","go","1"
"pit-trial","142","1642520","0.0-97.0","battery-v0.2","","685.3000000119209","T","elianto","#f73b6a7A","-1","32","0","-10","1535.300000011921","1","2","","","","","","","4ee95e0e8737a0304baac70a&order=1&STUDY_ID=61caf85b4892b889f6411591","94","7","4","lose","no-go","0"
"pit-trial","143","1646345","0.0-98.0","battery-v0.2","","966.1999999880791","B","elianto","#3366ff99","-1","32","0","0","1816.699999988079","1","2","","","","","","","4ee95e0e8737a0304baac70a&order=1&STUDY_ID=61caf85b4892b889f6411591","95","6","2","win","no-go","0"
"pit-trial","144","1651206","0.0-99.0","battery-v0.2","","-1","X","elianto","#f73b6a7A","-1","-1","1","0","","0","2","","","","","","","4ee95e0e8737a0304baac70a&order=1&STUDY_ID=61caf85b4892b889f6411591","96","8","4","lose","no-go","0"
"pit-trial","145","1654859","0.0-100.0","battery-v0.2","","799.5","T","elianto","#f73b6a7A","-1","32","0","-10","1650.6000000238419","1","2","","","","","","","4ee95e0e8737a0304baac70a&order=1&STUDY_ID=61caf85b4892b889f6411591","97","7","4","lose","no-go","0"
"pit-trial","146","1658722","0.0-101.0","battery-v0.2","","1009.1000000238419","C","elianto","#f73b6a7A","32","32","1","0","1859.4000000357628","1","2","","","","","","","4ee95e0e8737a0304baac70a&order=1&STUDY_ID=61caf85b4892b889f6411591","98","5","3","lose","go","0"
"pit-trial","147","1662342","0.0-102.0","battery-v0.2","","762.0999999642372","X","elianto","#f73b6a7A","-1","32","0","-10","1612.5","1","2","","","","","","","4ee95e0e8737a0304baac70a&order=1&STUDY_ID=61caf85b4892b889f6411591","99","8","4","lose","no-go","0"
"pit-trial","148","1666005","0.0-103.0","battery-v0.2","","807.6000000238419","B","elianto","#3366ff99","-1","32","0","0","1660","1","2","","","","","","","4ee95e0e8737a0304baac70a&order=1&STUDY_ID=61caf85b4892b889f6411591","100","6","2","win","no-go","0"
"pit-trial","149","1670868","0.0-104.0","battery-v0.2","","-1","X","elianto","#f73b6a7A","-1","-1","1","0","","0","2","","","","","","","4ee95e0e8737a0304baac70a&order=1&STUDY_ID=61caf85b4892b889f6411591","101","8","4","lose","no-go","0"
"pit-trial","150","1674732","0.0-105.0","battery-v0.2","","1009.5999999642372","N","elianto","#f73b6a7A","32","32","1","0","1859.9000000357628","1","2","","","","","","","4ee95e0e8737a0304baac70a&order=1&STUDY_ID=61caf85b4892b889f6411591","102","10","3","lose","go","0"
"pit-trial","151","1679595","0.0-106.0","battery-v0.2","","-1","B","elianto","#3366ff99","-1","-1","1","+10","","0","2","","","","","","","4ee95e0e8737a0304baac70a&order=1&STUDY_ID=61caf85b4892b889f6411591","103","6","2","win","no-go","0"
"pit-trial","152","1683337","0.0-107.0","battery-v0.2","","885.8999999761581","F","elianto","#3366ff99","32","32","1","+10","1737","1","2","","","","","","","4ee95e0e8737a0304baac70a&order=1&STUDY_ID=61caf85b4892b889f6411591","104","9","1","win","go","0"
"pit-trial","153","1688198","0.0-108.0","battery-v0.2","","-1","X","elianto","#f73b6a7A","-1","-1","1","0","","0","2","","","","","","","4ee95e0e8737a0304baac70a&order=1&STUDY_ID=61caf85b4892b889f6411591","105","8","4","lose","no-go","0"
"pit-trial","154","1692001","0.0-109.0","battery-v0.2","","948.4000000357628","N","elianto","#f73b6a7A","32","32","1","-10","1798.9000000357628","1","2","","","","","","","4ee95e0e8737a0304baac70a&order=1&STUDY_ID=61caf85b4892b889f6411591","106","10","3","lose","go","1"
"pit-trial","155","1696853","0.0-110.0","battery-v0.2","","-1","F","elianto","#3366ff99","32","-1","0","+10","","0","2","","","","","","","4ee95e0e8737a0304baac70a&order=1&STUDY_ID=61caf85b4892b889f6411591","107","9","1","win","go","1"
"pit-trial","156","1701716","0.0-111.0","battery-v0.2","","-1","B","elianto","#3366ff99","-1","-1","1","+10","","0","2","","","","","","","4ee95e0e8737a0304baac70a&order=1&STUDY_ID=61caf85b4892b889f6411591","108","6","2","win","no-go","0"
"pit-trial","157","1705444","0.0-112.0","battery-v0.2","","873.1999999880791","Q","elianto","#3366ff99","32","32","1","+10","1723.4000000357628","1","2","","","","","","","4ee95e0e8737a0304baac70a&order=1&STUDY_ID=61caf85b4892b889f6411591","109","11","1","win","go","0"
"pit-trial","158","1710308","0.0-113.0","battery-v0.2","","-1","F","elianto","#3366ff99","32","-1","0","+10","","0","2","","","","","","","4ee95e0e8737a0304baac70a&order=1&STUDY_ID=61caf85b4892b889f6411591","110","9","1","win","go","1"
"pit-trial","159","1714049","0.0-114.0","battery-v0.2","","885.2000000476837","N","elianto","#f73b6a7A","32","32","1","0","1736.800000011921","1","2","","","","","","","4ee95e0e8737a0304baac70a&order=1&STUDY_ID=61caf85b4892b889f6411591","111","10","3","lose","go","0"
"pit-trial","160","1718908","0.0-115.0","battery-v0.2","","-1","X","elianto","#f73b6a7A","-1","-1","1","0","","0","2","","","","","","","4ee95e0e8737a0304baac70a&order=1&STUDY_ID=61caf85b4892b889f6411591","112","8","4","lose","no-go","0"
"pit-trial","161","1722625","0.0-116.0","battery-v0.2","","857.5","F","elianto","#3366ff99","32","32","1","0","1708","1","2","","","","","","","4ee95e0e8737a0304baac70a&order=1&STUDY_ID=61caf85b4892b889f6411591","113","9","1","win","go","1"
"pit-trial","162","1727490","0.0-117.0","battery-v0.2","","-1","X","elianto","#f73b6a7A","-1","-1","1","0","","0","2","","","","","","","4ee95e0e8737a0304baac70a&order=1&STUDY_ID=61caf85b4892b889f6411591","114","8","4","lose","no-go","0"
"pit-trial","163","1731097","0.0-118.0","battery-v0.2","","747.1000000238419","Q","elianto","#3366ff99","32","32","1","+10","1597.5","1","2","","","","","","","4ee95e0e8737a0304baac70a&order=1&STUDY_ID=61caf85b4892b889f6411591","115","11","1","win","go","0"
"pit-trial","164","1735958","0.0-119.0","battery-v0.2","","-1","N","elianto","#f73b6a7A","32","-1","0","-10","","0","2","","","","","","","4ee95e0e8737a0304baac70a&order=1&STUDY_ID=61caf85b4892b889f6411591","116","10","3","lose","go","0"
"pit-trial","165","1740821","0.0-120.0","battery-v0.2","","-1","F","elianto","#3366ff99","32","-1","0","0","","0","2","","","","","","","4ee95e0e8737a0304baac70a&order=1&STUDY_ID=61caf85b4892b889f6411591","117","9","1","win","go","0"
"pit-trial","166","1745685","0.0-121.0","battery-v0.2","","-1","X","elianto","#f73b6a7A","-1","-1","1","0","","0","2","","","","","","","4ee95e0e8737a0304baac70a&order=1&STUDY_ID=61caf85b4892b889f6411591","118","8","4","lose","no-go","0"
"pit-trial","167","1749415","0.0-122.0","battery-v0.2","","876","Q","elianto","#3366ff99","32","32","1","+10","1726","1","2","","","","","","","4ee95e0e8737a0304baac70a&order=1&STUDY_ID=61caf85b4892b889f6411591","119","11","1","win","go","0"
"pit-trial","168","1754168","0.0-123.0","battery-v0.2","","1895.0999999642372","N","elianto","#f73b6a7A","32","32","1","0","2745.5","1","2","","","","","","","4ee95e0e8737a0304baac70a&order=1&STUDY_ID=61caf85b4892b889f6411591","120","10","3","lose","go","0"
"pit-trial","169","1757780","0.0-124.0","battery-v0.2","","752.8000000119209","N","elianto","#f73b6a7A","32","32","1","0","1603","1","2","","","","","","","4ee95e0e8737a0304baac70a&order=1&STUDY_ID=61caf85b4892b889f6411591","121","10","3","lose","go","0"
"pit-trial","170","1761838","0.0-125.0","battery-v0.2","","1201.699999988079","F","elianto","#3366ff99","32","32","1","+10","2051.900000035763","1","2","","","","","","","4ee95e0e8737a0304baac70a&order=1&STUDY_ID=61caf85b4892b889f6411591","122","9","1","win","go","0"
"pit-trial","171","1766698","0.0-126.0","battery-v0.2","","-1","X","elianto","#f73b6a7A","-1","-1","1","0","","0","2","","","","","","","4ee95e0e8737a0304baac70a&order=1&STUDY_ID=61caf85b4892b889f6411591","123","8","4","lose","no-go","0"
"pit-trial","172","1770320","0.0-127.0","battery-v0.2","","761.3000000119209","Q","elianto","#3366ff99","32","32","1","+10","1612.300000011921","1","2","","","","","","","4ee95e0e8737a0304baac70a&order=1&STUDY_ID=61caf85b4892b889f6411591","124","11","1","win","go","0"
"pit-trial","173","1774044","0.0-128.0","battery-v0.2","","864","F","elianto","#3366ff99","32","32","1","+10","1715.300000011921","1","2","","","","","","","4ee95e0e8737a0304baac70a&order=1&STUDY_ID=61caf85b4892b889f6411591","125","9","1","win","go","0"
"pit-trial","174","1778904","0.0-129.0","battery-v0.2","","-1","X","elianto","#f73b6a7A","-1","-1","1","0","","0","2","","","","","","","4ee95e0e8737a0304baac70a&order=1&STUDY_ID=61caf85b4892b889f6411591","126","8","4","lose","no-go","0"
"pit-trial","175","1782645","0.0-130.0","battery-v0.2","","884.6000000238419","Q","elianto","#3366ff99","32","32","1","+10","1734.9000000357628","1","2","","","","","","","4ee95e0e8737a0304baac70a&order=1&STUDY_ID=61caf85b4892b889f6411591","127","11","1","win","go","0"
"pit-trial","176","1786620","0.0-131.0","battery-v0.2","","1116.6000000238419","N","elianto","#f73b6a7A","32","32","1","0","1967.1000000238419","1","2","","","","","","","4ee95e0e8737a0304baac70a&order=1&STUDY_ID=61caf85b4892b889f6411591","128","10","3","lose","go","0"
"pit-trial","177","1790352","0.0-132.0","battery-v0.2","","873.1000000238419","N","elianto","#f73b6a7A","32","32","1","0","1723.199999988079","1","2","","","","","","","4ee95e0e8737a0304baac70a&order=1&STUDY_ID=61caf85b4892b889f6411591","129","10","3","lose","go","0"
"pit-trial","178","1795210","0.0-133.0","battery-v0.2","","-1","X","elianto","#f73b6a7A","-1","-1","1","0","","0","2","","","","","","","4ee95e0e8737a0304baac70a&order=1&STUDY_ID=61caf85b4892b889f6411591","130","8","4","lose","no-go","0"
"pit-trial","179","1799204","0.0-134.0","battery-v0.2","","1140.6000000238419","F","elianto","#3366ff99","32","32","1","+10","1991","1","2","","","","","","","4ee95e0e8737a0304baac70a&order=1&STUDY_ID=61caf85b4892b889f6411591","131","9","1","win","go","0"
"pit-trial","180","1802909","0.0-135.0","battery-v0.2","","851.6999999880791","Q","elianto","#3366ff99","32","32","1","+10","1701.800000011921","1","2","","","","","","","4ee95e0e8737a0304baac70a&order=1&STUDY_ID=61caf85b4892b889f6411591","132","11","1","win","go","0"
"pit-trial","181","1806522","0.0-136.0","battery-v0.2","","766.1000000238419","Q","elianto","#3366ff99","32","32","1","+10","1616.199999988079","1","2","","","","","","","4ee95e0e8737a0304baac70a&order=1&STUDY_ID=61caf85b4892b889f6411591","133","11","1","win","go","0"
"pit-trial","182","1810829","0.0-137.0","battery-v0.2","","1454.699999988079","F","elianto","#3366ff99","32","32","1","+10","2305.300000011921","1","2","","","","","","","4ee95e0e8737a0304baac70a&order=1&STUDY_ID=61caf85b4892b889f6411591","134","9","1","win","go","0"
"pit-trial","183","1815329","0.0-138.0","battery-v0.2","","1646.8999999761581","N","elianto","#f73b6a7A","32","32","1","0","2497.899999976158","1","2","","","","","","","4ee95e0e8737a0304baac70a&order=1&STUDY_ID=61caf85b4892b889f6411591","135","10","3","lose","go","0"
"pit-trial","184","1820185","0.0-139.0","battery-v0.2","","-1","X","elianto","#f73b6a7A","-1","-1","1","0","","0","2","","","","","","","4ee95e0e8737a0304baac70a&order=1&STUDY_ID=61caf85b4892b889f6411591","136","8","4","lose","no-go","0"
"pit-trial","185","1824304","0.0-140.0","battery-v0.2","","1266.2999999523163","N","elianto","#f73b6a7A","32","32","1","-10","2116.899999976158","1","2","","","","","","","4ee95e0e8737a0304baac70a&order=1&STUDY_ID=61caf85b4892b889f6411591","137","10","3","lose","go","1"
"pit-trial","186","1827909","0.0-141.0","battery-v0.2","","747.7000000476837","Q","elianto","#3366ff99","32","32","1","+10","1599.3999999761581","1","2","","","","","","","4ee95e0e8737a0304baac70a&order=1&STUDY_ID=61caf85b4892b889f6411591","138","11","1","win","go","0"
"pit-trial","187","1831834","0.0-142.0","battery-v0.2","","1071.9000000357628","F","elianto","#3366ff99","32","32","1","+10","1922.2000000476837","1","2","","","","","","","4ee95e0e8737a0304baac70a&order=1&STUDY_ID=61caf85b4892b889f6411591","139","9","1","win","go","0"
"pit-trial","188","1836693","0.0-143.0","battery-v0.2","","-1","X","elianto","#f73b6a7A","-1","-1","1","0","","0","2","","","","","","","4ee95e0e8737a0304baac70a&order=1&STUDY_ID=61caf85b4892b889f6411591","140","8","4","lose","no-go","0"
"pit-instructions","189","1847923","0.0-144.0","battery-v0.2","[{""page_index"":0,""viewing_time"":6634},{""page_index"":1,""viewing_time"":4594.899999976158}]","11229.799999952316","","","","","","","","","","","","","","","","","","","","","","",""
"pit-trial","190","1851533","0.0-145.0","battery-v0.2","","747.6999999880791","K","elianto","#3366ff99","32","32","1","+10","1599.300000011921","1","3","","","","","","","4ee95e0e8737a0304baac70a&order=1&STUDY_ID=61caf85b4892b889f6411591","141","3","1","win","go","0"
"pit-trial","191","1855299","0.0-146.0","battery-v0.2","","907.3999999761581","V","elianto","#3366ff99","-1","32","0","+10","1758.699999988079","1","3","","","","","","","4ee95e0e8737a0304baac70a&order=1&STUDY_ID=61caf85b4892b889f6411591","142","0","2","win","no-go","1"
"pit-trial","192","1858987","0.0-147.0","battery-v0.2","","834.8999999761581","D","elianto","#f73b6a7A","-1","32","0","-10","1685.300000011921","1","3","","","","","","","4ee95e0e8737a0304baac70a&order=1&STUDY_ID=61caf85b4892b889f6411591","143","2","4","lose","no-go","0"
"pit-trial","193","1863849","0.0-148.0","battery-v0.2","","-1","J","elianto","#f73b6a7A","32","-1","0","-10","","0","3","","","","","","","4ee95e0e8737a0304baac70a&order=1&STUDY_ID=61caf85b4892b889f6411591","144","1","3","lose","go","0"
"pit-trial","194","1868709","0.0-149.0","battery-v0.2","","-1","J","elianto","#f73b6a7A","32","-1","0","-10","","0","3","","","","","","","4ee95e0e8737a0304baac70a&order=1&STUDY_ID=61caf85b4892b889f6411591","145","1","3","lose","go","0"
"pit-trial","195","1873568","0.0-150.0","battery-v0.2","","-1","K","elianto","#3366ff99","32","-1","0","0","","0","3","","","","","","","4ee95e0e8737a0304baac70a&order=1&STUDY_ID=61caf85b4892b889f6411591","146","3","1","win","go","0"
"pit-trial","196","1878431","0.0-151.0","battery-v0.2","","-1","V","elianto","#3366ff99","-1","-1","1","+10","","0","3","","","","","","","4ee95e0e8737a0304baac70a&order=1&STUDY_ID=61caf85b4892b889f6411591","147","0","2","win","no-go","0"
"pit-trial","197","1883292","0.0-152.0","battery-v0.2","","-1","D","elianto","#f73b6a7A","-1","-1","1","0","","0","3","","","","","","","4ee95e0e8737a0304baac70a&order=1&STUDY_ID=61caf85b4892b889f6411591","148","2","4","lose","no-go","0"
"pit-trial","198","1888152","0.0-153.0","battery-v0.2","","-1","D","elianto","#f73b6a7A","-1","-1","1","0","","0","3","","","","","","","4ee95e0e8737a0304baac70a&order=1&STUDY_ID=61caf85b4892b889f6411591","149","2","4","lose","no-go","0"
"pit-trial","199","1893013","0.0-154.0","battery-v0.2","","-1","V","elianto","#3366ff99","-1","-1","1","+10","","0","3","","","","","","","4ee95e0e8737a0304baac70a&order=1&STUDY_ID=61caf85b4892b889f6411591","150","0","2","win","no-go","0"
"pit-trial","200","1897871","0.0-155.0","battery-v0.2","","-1","J","elianto","#f73b6a7A","32","-1","0","-10","","0","3","","","","","","","4ee95e0e8737a0304baac70a&order=1&STUDY_ID=61caf85b4892b889f6411591","151","1","3","lose","go","0"
"pit-trial","201","1902732","0.0-156.0","battery-v0.2","","-1","K","elianto","#3366ff99","32","-1","0","0","","0","3","","","","","","","4ee95e0e8737a0304baac70a&order=1&STUDY_ID=61caf85b4892b889f6411591","152","3","1","win","go","0"
"pit-trial","202","1907586","0.0-157.0","battery-v0.2","","-1","V","elianto","#3366ff99","-1","-1","1","+10","","0","3","","","","","","","4ee95e0e8737a0304baac70a&order=1&STUDY_ID=61caf85b4892b889f6411591","153","0","2","win","no-go","0"
"pit-trial","203","1912446","0.0-158.0","battery-v0.2","","-1","J","elianto","#f73b6a7A","32","-1","0","-10","","0","3","","","","","","","4ee95e0e8737a0304baac70a&order=1&STUDY_ID=61caf85b4892b889f6411591","154","1","3","lose","go","0"
"pit-trial","204","1917308","0.0-159.0","battery-v0.2","","-1","D","elianto","#f73b6a7A","-1","-1","1","0","","0","3","","","","","","","4ee95e0e8737a0304baac70a&order=1&STUDY_ID=61caf85b4892b889f6411591","155","2","4","lose","no-go","0"
"pit-trial","205","1922164","0.0-160.0","battery-v0.2","","-1","K","elianto","#3366ff99","32","-1","0","0","","0","3","","","","","","","4ee95e0e8737a0304baac70a&order=1&STUDY_ID=61caf85b4892b889f6411591","156","3","1","win","go","0"
"pit-trial","206","1927025","0.0-161.0","battery-v0.2","","-1","V","elianto","#3366ff99","-1","-1","1","0","","0","3","","","","","","","4ee95e0e8737a0304baac70a&order=1&STUDY_ID=61caf85b4892b889f6411591","157","0","2","win","no-go","1"
"pit-trial","207","1931886","0.0-162.0","battery-v0.2","","-1","D","elianto","#f73b6a7A","-1","-1","1","-10","","0","3","","","","","","","4ee95e0e8737a0304baac70a&order=1&STUDY_ID=61caf85b4892b889f6411591","158","2","4","lose","no-go","1"
"pit-trial","208","1936744","0.0-163.0","battery-v0.2","","-1","K","elianto","#3366ff99","32","-1","0","0","","0","3","","","","","","","4ee95e0e8737a0304baac70a&order=1&STUDY_ID=61caf85b4892b889f6411591","159","3","1","win","go","0"
"pit-trial","209","1941599","0.0-164.0","battery-v0.2","","-1","J","elianto","#f73b6a7A","32","-1","0","-10","","0","3","","","","","","","4ee95e0e8737a0304baac70a&order=1&STUDY_ID=61caf85b4892b889f6411591","160","1","3","lose","go","0"
"pit-trial","210","1946453","0.0-165.0","battery-v0.2","","-1","K","elianto","#3366ff99","32","-1","0","0","","0","3","","","","","","","4ee95e0e8737a0304baac70a&order=1&STUDY_ID=61caf85b4892b889f6411591","161","3","1","win","go","0"
"pit-trial","211","1951307","0.0-166.0","battery-v0.2","","-1","J","elianto","#f73b6a7A","32","-1","0","-10","","0","3","","","","","","","4ee95e0e8737a0304baac70a&order=1&STUDY_ID=61caf85b4892b889f6411591","162","1","3","lose","go","0"
"pit-trial","212","1956170","0.0-167.0","battery-v0.2","","-1","D","elianto","#f73b6a7A","-1","-1","1","0","","0","3","","","","","","","4ee95e0e8737a0304baac70a&order=1&STUDY_ID=61caf85b4892b889f6411591","163","2","4","lose","no-go","0"
"pit-trial","213","1961027","0.0-168.0","battery-v0.2","","-1","V","elianto","#3366ff99","-1","-1","1","+10","","0","3","","","","","","","4ee95e0e8737a0304baac70a&order=1&STUDY_ID=61caf85b4892b889f6411591","164","0","2","win","no-go","0"
"pit-trial","214","1965885","0.0-169.0","battery-v0.2","","-1","J","elianto","#f73b6a7A","32","-1","0","-10","","0","3","","","","","","","4ee95e0e8737a0304baac70a&order=1&STUDY_ID=61caf85b4892b889f6411591","165","1","3","lose","go","0"
"pit-trial","215","1970743","0.0-170.0","battery-v0.2","","-1","K","elianto","#3366ff99","32","-1","0","0","","0","3","","","","","","","4ee95e0e8737a0304baac70a&order=1&STUDY_ID=61caf85b4892b889f6411591","166","3","1","win","go","0"
"pit-trial","216","1975601","0.0-171.0","battery-v0.2","","-1","D","elianto","#f73b6a7A","-1","-1","1","0","","0","3","","","","","","","4ee95e0e8737a0304baac70a&order=1&STUDY_ID=61caf85b4892b889f6411591","167","2","4","lose","no-go","0"
"pit-trial","217","1980460","0.0-172.0","battery-v0.2","","-1","V","elianto","#3366ff99","-1","-1","1","+10","","0","3","","","","","","","4ee95e0e8737a0304baac70a&order=1&STUDY_ID=61caf85b4892b889f6411591","168","0","2","win","no-go","0"
"pit-trial","218","1985823","0.0-173.0","battery-v0.2","","-1","K","elianto","#3366ff99","32","-1","0","0","","0","3","","","","","","","4ee95e0e8737a0304baac70a&order=1&STUDY_ID=61caf85b4892b889f6411591","169","3","1","win","go","0"
"pit-trial","219","1990681","0.0-174.0","battery-v0.2","","-1","J","elianto","#f73b6a7A","32","-1","0","-10","","0","3","","","","","","","4ee95e0e8737a0304baac70a&order=1&STUDY_ID=61caf85b4892b889f6411591","170","1","3","lose","go","0"
"pit-trial","220","1995537","0.0-175.0","battery-v0.2","","-1","D","elianto","#f73b6a7A","-1","-1","1","-10","","0","3","","","","","","","4ee95e0e8737a0304baac70a&order=1&STUDY_ID=61caf85b4892b889f6411591","171","2","4","lose","no-go","1"
"pit-trial","221","2000396","0.0-176.0","battery-v0.2","","-1","V","elianto","#3366ff99","-1","-1","1","0","","0","3","","","","","","","4ee95e0e8737a0304baac70a&order=1&STUDY_ID=61caf85b4892b889f6411591","172","0","2","win","no-go","1"
"pit-trial","222","2005255","0.0-177.0","battery-v0.2","","-1","D","elianto","#f73b6a7A","-1","-1","1","0","","0","3","","","","","","","4ee95e0e8737a0304baac70a&order=1&STUDY_ID=61caf85b4892b889f6411591","173","2","4","lose","no-go","0"
"pit-trial","223","2010114","0.0-178.0","battery-v0.2","","-1","W","elianto","#f73b6a7A","-1","-1","1","0","","0","3","","","","","","","4ee95e0e8737a0304baac70a&order=1&STUDY_ID=61caf85b4892b889f6411591","174","5","4","lose","no-go","0"
"pit-trial","224","2014970","0.0-179.0","battery-v0.2","","-1","J","elianto","#f73b6a7A","32","-1","0","-10","","0","3","","","","","","","4ee95e0e8737a0304baac70a&order=1&STUDY_ID=61caf85b4892b889f6411591","175","1","3","lose","go","0"
"pit-trial","225","2019832","0.0-180.0","battery-v0.2","","-1","E","elianto","#f73b6a7A","32","-1","0","0","","0","3","","","","","","","4ee95e0e8737a0304baac70a&order=1&STUDY_ID=61caf85b4892b889f6411591","176","4","3","lose","go","1"
"pit-trial","226","2024693","0.0-181.0","battery-v0.2","","-1","J","elianto","#f73b6a7A","32","-1","0","-10","","0","3","","","","","","","4ee95e0e8737a0304baac70a&order=1&STUDY_ID=61caf85b4892b889f6411591","177","1","3","lose","go","0"
"pit-trial","227","2029551","0.0-182.0","battery-v0.2","","-1","D","elianto","#f73b6a7A","-1","-1","1","0","","0","3","","","","","","","4ee95e0e8737a0304baac70a&order=1&STUDY_ID=61caf85b4892b889f6411591","178","2","4","lose","no-go","0"
"pit-trial","228","2034410","0.0-183.0","battery-v0.2","","-1","E","elianto","#f73b6a7A","32","-1","0","-10","","0","3","","","","","","","4ee95e0e8737a0304baac70a&order=1&STUDY_ID=61caf85b4892b889f6411591","179","4","3","lose","go","0"
"pit-trial","229","2039266","0.0-184.0","battery-v0.2","","-1","W","elianto","#f73b6a7A","-1","-1","1","0","","0","3","","","","","","","4ee95e0e8737a0304baac70a&order=1&STUDY_ID=61caf85b4892b889f6411591","180","5","4","lose","no-go","0"
"pit-trial","230","2044125","0.0-185.0","battery-v0.2","","-1","E","elianto","#f73b6a7A","32","-1","0","0","","0","3","","","","","","","4ee95e0e8737a0304baac70a&order=1&STUDY_ID=61caf85b4892b889f6411591","181","4","3","lose","go","1"
"pit-trial","231","2048985","0.0-186.0","battery-v0.2","","-1","S","elianto","#3366ff99","-1","-1","1","+10","","0","3","","","","","","","4ee95e0e8737a0304baac70a&order=1&STUDY_ID=61caf85b4892b889f6411591","182","6","2","win","no-go","0"
"pit-trial","232","2053843","0.0-187.0","battery-v0.2","","-1","D","elianto","#f73b6a7A","-1","-1","1","0","","0","3","","","","","","","4ee95e0e8737a0304baac70a&order=1&STUDY_ID=61caf85b4892b889f6411591","183","2","4","lose","no-go","0"
"pit-trial","233","2058695","0.0-188.0","battery-v0.2","","-1","W","elianto","#f73b6a7A","-1","-1","1","-10","","0","3","","","","","","","4ee95e0e8737a0304baac70a&order=1&STUDY_ID=61caf85b4892b889f6411591","184","5","4","lose","no-go","1"
"pit-trial","234","2063549","0.0-189.0","battery-v0.2","","-1","E","elianto","#f73b6a7A","32","-1","0","-10","","0","3","","","","","","","4ee95e0e8737a0304baac70a&order=1&STUDY_ID=61caf85b4892b889f6411591","185","4","3","lose","go","0"
"pit-trial","235","2068410","0.0-190.0","battery-v0.2","","-1","S","elianto","#3366ff99","-1","-1","1","+10","","0","3","","","","","","","4ee95e0e8737a0304baac70a&order=1&STUDY_ID=61caf85b4892b889f6411591","186","6","2","win","no-go","0"
"pit-trial","236","2073269","0.0-191.0","battery-v0.2","","-1","D","elianto","#f73b6a7A","-1","-1","1","0","","0","3","","","","","","","4ee95e0e8737a0304baac70a&order=1&STUDY_ID=61caf85b4892b889f6411591","187","2","4","lose","no-go","0"
"pit-trial","237","2078128","0.0-192.0","battery-v0.2","","-1","W","elianto","#f73b6a7A","-1","-1","1","0","","0","3","","","","","","","4ee95e0e8737a0304baac70a&order=1&STUDY_ID=61caf85b4892b889f6411591","188","5","4","lose","no-go","0"
"pit-trial","238","2082986","0.0-193.0","battery-v0.2","","-1","S","elianto","#3366ff99","-1","-1","1","+10","","0","3","","","","","","","4ee95e0e8737a0304baac70a&order=1&STUDY_ID=61caf85b4892b889f6411591","189","6","2","win","no-go","0"
"pit-trial","239","2087842","0.0-194.0","battery-v0.2","","-1","E","elianto","#f73b6a7A","32","-1","0","-10","","0","3","","","","","","","4ee95e0e8737a0304baac70a&order=1&STUDY_ID=61caf85b4892b889f6411591","190","4","3","lose","go","0"
"pit-trial","240","2092700","0.0-195.0","battery-v0.2","","-1","P","elianto","#3366ff99","32","-1","0","+10","","0","3","","","","","","","4ee95e0e8737a0304baac70a&order=1&STUDY_ID=61caf85b4892b889f6411591","191","7","1","win","go","1"
"pit-trial","241","2097555","0.0-196.0","battery-v0.2","","-1","W","elianto","#f73b6a7A","-1","-1","1","0","","0","3","","","","","","","4ee95e0e8737a0304baac70a&order=1&STUDY_ID=61caf85b4892b889f6411591","192","5","4","lose","no-go","0"
"pit-trial","242","2102411","0.0-197.0","battery-v0.2","","-1","S","elianto","#3366ff99","-1","-1","1","+10","","0","3","","","","","","","4ee95e0e8737a0304baac70a&order=1&STUDY_ID=61caf85b4892b889f6411591","193","6","2","win","no-go","0"
"pit-trial","243","2107271","0.0-198.0","battery-v0.2","","-1","P","elianto","#3366ff99","32","-1","0","0","","0","3","","","","","","","4ee95e0e8737a0304baac70a&order=1&STUDY_ID=61caf85b4892b889f6411591","194","7","1","win","go","0"
"pit-trial","244","2112128","0.0-199.0","battery-v0.2","","-1","E","elianto","#f73b6a7A","32","-1","0","-10","","0","3","","","","","","","4ee95e0e8737a0304baac70a&order=1&STUDY_ID=61caf85b4892b889f6411591","195","4","3","lose","go","0"
"pit-trial","245","2116985","0.0-200.0","battery-v0.2","","-1","W","elianto","#f73b6a7A","-1","-1","1","0","","0","3","","","","","","","4ee95e0e8737a0304baac70a&order=1&STUDY_ID=61caf85b4892b889f6411591","196","5","4","lose","no-go","0"
"pit-trial","246","2121842","0.0-201.0","battery-v0.2","","-1","S","elianto","#3366ff99","-1","-1","1","0","","0","3","","","","","","","4ee95e0e8737a0304baac70a&order=1&STUDY_ID=61caf85b4892b889f6411591","197","6","2","win","no-go","1"
"pit-trial","247","2126700","0.0-202.0","battery-v0.2","","-1","E","elianto","#f73b6a7A","32","-1","0","-10","","0","3","","","","","","","4ee95e0e8737a0304baac70a&order=1&STUDY_ID=61caf85b4892b889f6411591","198","4","3","lose","go","0"
"pit-trial","248","2131556","0.0-203.0","battery-v0.2","","-1","P","elianto","#3366ff99","32","-1","0","0","","0","3","","","","","","","4ee95e0e8737a0304baac70a&order=1&STUDY_ID=61caf85b4892b889f6411591","199","7","1","win","go","0"
"pit-trial","249","2136413","0.0-204.0","battery-v0.2","","-1","W","elianto","#f73b6a7A","-1","-1","1","-10","","0","3","","","","","","","4ee95e0e8737a0304baac70a&order=1&STUDY_ID=61caf85b4892b889f6411591","200","5","4","lose","no-go","1"
"pit-trial","250","2141271","0.0-205.0","battery-v0.2","","-1","E","elianto","#f73b6a7A","32","-1","0","0","","0","3","","","","","","","4ee95e0e8737a0304baac70a&order=1&STUDY_ID=61caf85b4892b889f6411591","201","4","3","lose","go","1"
"pit-trial","251","2146133","0.0-206.0","battery-v0.2","","-1","S","elianto","#3366ff99","-1","-1","1","+10","","0","3","","","","","","","4ee95e0e8737a0304baac70a&order=1&STUDY_ID=61caf85b4892b889f6411591","202","6","2","win","no-go","0"
"pit-trial","252","2150992","0.0-207.0","battery-v0.2","","-1","W","elianto","#f73b6a7A","-1","-1","1","-10","","0","3","","","","","","","4ee95e0e8737a0304baac70a&order=1&STUDY_ID=61caf85b4892b889f6411591","203","5","4","lose","no-go","1"
"pit-trial","253","2155851","0.0-208.0","battery-v0.2","","-1","P","elianto","#3366ff99","32","-1","0","0","","0","3","","","","","","","4ee95e0e8737a0304baac70a&order=1&STUDY_ID=61caf85b4892b889f6411591","204","7","1","win","go","0"
"pit-trial","254","2160713","0.0-209.0","battery-v0.2","","-1","W","elianto","#f73b6a7A","-1","-1","1","0","","0","3","","","","","","","4ee95e0e8737a0304baac70a&order=1&STUDY_ID=61caf85b4892b889f6411591","205","5","4","lose","no-go","0"
"pit-trial","255","2165566","0.0-210.0","battery-v0.2","","-1","E","elianto","#f73b6a7A","32","-1","0","-10","","0","3","","","","","","","4ee95e0e8737a0304baac70a&order=1&STUDY_ID=61caf85b4892b889f6411591","206","4","3","lose","go","0"
"pit-trial","256","2170424","0.0-211.0","battery-v0.2","","-1","S","elianto","#3366ff99","-1","-1","1","+10","","0","3","","","","","","","4ee95e0e8737a0304baac70a&order=1&STUDY_ID=61caf85b4892b889f6411591","207","6","2","win","no-go","0"
"pit-trial","257","2175282","0.0-212.0","battery-v0.2","","-1","P","elianto","#3366ff99","32","-1","0","+10","","0","3","","","","","","","4ee95e0e8737a0304baac70a&order=1&STUDY_ID=61caf85b4892b889f6411591","208","7","1","win","go","1"
"pit-trial","258","2180145","0.0-213.0","battery-v0.2","","-1","P","elianto","#3366ff99","32","-1","0","0","","0","3","","","","","","","4ee95e0e8737a0304baac70a&order=1&STUDY_ID=61caf85b4892b889f6411591","209","7","1","win","go","0"
"pit-trial","259","2185004","0.0-214.0","battery-v0.2","","-1","E","elianto","#f73b6a7A","32","-1","0","-10","","0","3","","","","","","","4ee95e0e8737a0304baac70a&order=1&STUDY_ID=61caf85b4892b889f6411591","210","4","3","lose","go","0"
"pit-trial","260","2189863","0.0-215.0","battery-v0.2","","-1","S","elianto","#3366ff99","-1","-1","1","+10","","0","3","","","","","","","4ee95e0e8737a0304baac70a&order=1&STUDY_ID=61caf85b4892b889f6411591","211","6","2","win","no-go","0"
"pit-trial","261","2194721","0.0-216.0","battery-v0.2","","-1","W","elianto","#f73b6a7A","-1","-1","1","-10","","0","3","","","","","","","4ee95e0e8737a0304baac70a&order=1&STUDY_ID=61caf85b4892b889f6411591","212","5","4","lose","no-go","1"
"pit-trial","262","2199577","0.0-217.0","battery-v0.2","","-1","P","elianto","#3366ff99","32","-1","0","0","","0","3","","","","","","","4ee95e0e8737a0304baac70a&order=1&STUDY_ID=61caf85b4892b889f6411591","213","7","1","win","go","0"
"pit-trial","263","2204435","0.0-218.0","battery-v0.2","","-1","S","elianto","#3366ff99","-1","-1","1","+10","","0","3","","","","","","","4ee95e0e8737a0304baac70a&order=1&STUDY_ID=61caf85b4892b889f6411591","214","6","2","win","no-go","0"
"pit-trial","264","2209292","0.0-219.0","battery-v0.2","","-1","E","elianto","#f73b6a7A","32","-1","0","-10","","0","3","","","","","","","4ee95e0e8737a0304baac70a&order=1&STUDY_ID=61caf85b4892b889f6411591","215","4","3","lose","go","0"
"pit-trial","265","2214153","0.0-220.0","battery-v0.2","","-1","G","elianto","#3366ff99","32","-1","0","+10","","0","3","","","","","","","4ee95e0e8737a0304baac70a&order=1&STUDY_ID=61caf85b4892b889f6411591","216","8","1","win","go","1"
"pit-trial","266","2219008","0.0-221.0","battery-v0.2","","-1","P","elianto","#3366ff99","32","-1","0","0","","0","3","","","","","","","4ee95e0e8737a0304baac70a&order=1&STUDY_ID=61caf85b4892b889f6411591","217","7","1","win","go","0"
"pit-trial","267","2223867","0.0-222.0","battery-v0.2","","-1","S","elianto","#3366ff99","-1","-1","1","+10","","0","3","","","","","","","4ee95e0e8737a0304baac70a&order=1&STUDY_ID=61caf85b4892b889f6411591","218","6","2","win","no-go","0"
"pit-trial","268","2228726","0.0-223.0","battery-v0.2","","-1","G","elianto","#3366ff99","32","-1","0","0","","0","3","","","","","","","4ee95e0e8737a0304baac70a&order=1&STUDY_ID=61caf85b4892b889f6411591","219","8","1","win","go","0"
"pit-trial","269","2233586","0.0-224.0","battery-v0.2","","-1","E","elianto","#f73b6a7A","32","-1","0","-10","","0","3","","","","","","","4ee95e0e8737a0304baac70a&order=1&STUDY_ID=61caf85b4892b889f6411591","220","4","3","lose","go","0"
"pit-trial","270","2238446","0.0-225.0","battery-v0.2","","-1","G","elianto","#3366ff99","32","-1","0","0","","0","3","","","","","","","4ee95e0e8737a0304baac70a&order=1&STUDY_ID=61caf85b4892b889f6411591","221","8","1","win","go","0"
"pit-trial","271","2243310","0.0-226.0","battery-v0.2","","-1","S","elianto","#3366ff99","-1","-1","1","+10","","0","3","","","","","","","4ee95e0e8737a0304baac70a&order=1&STUDY_ID=61caf85b4892b889f6411591","222","6","2","win","no-go","0"
"pit-trial","272","2248170","0.0-227.0","battery-v0.2","","-1","P","elianto","#3366ff99","32","-1","0","0","","0","3","","","","","","","4ee95e0e8737a0304baac70a&order=1&STUDY_ID=61caf85b4892b889f6411591","223","7","1","win","go","0"
"pit-trial","273","2253033","0.0-228.0","battery-v0.2","","-1","A","elianto","#3366ff99","-1","-1","1","+10","","0","3","","","","","","","4ee95e0e8737a0304baac70a&order=1&STUDY_ID=61caf85b4892b889f6411591","224","9","2","win","no-go","0"
"pit-trial","274","2257896","0.0-229.0","battery-v0.2","","-1","G","elianto","#3366ff99","32","-1","0","0","","0","3","","","","","","","4ee95e0e8737a0304baac70a&order=1&STUDY_ID=61caf85b4892b889f6411591","225","8","1","win","go","0"
"pit-trial","275","2262759","0.0-230.0","battery-v0.2","","-1","P","elianto","#3366ff99","32","-1","0","+10","","0","3","","","","","","","4ee95e0e8737a0304baac70a&order=1&STUDY_ID=61caf85b4892b889f6411591","226","7","1","win","go","1"
"pit-trial","276","2267618","0.0-231.0","battery-v0.2","","-1","S","elianto","#3366ff99","-1","-1","1","+10","","0","3","","","","","","","4ee95e0e8737a0304baac70a&order=1&STUDY_ID=61caf85b4892b889f6411591","227","6","2","win","no-go","0"
"pit-trial","277","2272482","0.0-232.0","battery-v0.2","","-1","A","elianto","#3366ff99","-1","-1","1","0","","0","3","","","","","","","4ee95e0e8737a0304baac70a&order=1&STUDY_ID=61caf85b4892b889f6411591","228","9","2","win","no-go","1"
"pit-trial","278","2277344","0.0-233.0","battery-v0.2","","-1","A","elianto","#3366ff99","-1","-1","1","+10","","0","3","","","","","","","4ee95e0e8737a0304baac70a&order=1&STUDY_ID=61caf85b4892b889f6411591","229","9","2","win","no-go","0"
"pit-trial","279","2282205","0.0-234.0","battery-v0.2","","-1","G","elianto","#3366ff99","32","-1","0","0","","0","3","","","","","","","4ee95e0e8737a0304baac70a&order=1&STUDY_ID=61caf85b4892b889f6411591","230","8","1","win","go","0"
"pit-trial","280","2287064","0.0-235.0","battery-v0.2","","-1","L","elianto","#f73b6a7A","32","-1","0","-10","","0","3","","","","","","","4ee95e0e8737a0304baac70a&order=1&STUDY_ID=61caf85b4892b889f6411591","231","10","3","lose","go","0"
"pit-trial","281","2291929","0.0-236.0","battery-v0.2","","-1","U","elianto","#f73b6a7A","-1","-1","1","0","","0","3","","","","","","","4ee95e0e8737a0304baac70a&order=1&STUDY_ID=61caf85b4892b889f6411591","232","11","4","lose","no-go","0"
"pit-trial","282","2296788","0.0-237.0","battery-v0.2","","-1","A","elianto","#3366ff99","-1","-1","1","0","","0","3","","","","","","","4ee95e0e8737a0304baac70a&order=1&STUDY_ID=61caf85b4892b889f6411591","233","9","2","win","no-go","1"
"pit-trial","283","2301651","0.0-238.0","battery-v0.2","","-1","G","elianto","#3366ff99","32","-1","0","0","","0","3","","","","","","","4ee95e0e8737a0304baac70a&order=1&STUDY_ID=61caf85b4892b889f6411591","234","8","1","win","go","0"
"pit-trial","284","2306511","0.0-239.0","battery-v0.2","","-1","L","elianto","#f73b6a7A","32","-1","0","-10","","0","3","","","","","","","4ee95e0e8737a0304baac70a&order=1&STUDY_ID=61caf85b4892b889f6411591","235","10","3","lose","go","0"
"pit-trial","285","2311372","0.0-240.0","battery-v0.2","","-1","U","elianto","#f73b6a7A","-1","-1","1","0","","0","3","","","","","","","4ee95e0e8737a0304baac70a&order=1&STUDY_ID=61caf85b4892b889f6411591","236","11","4","lose","no-go","0"
"pit-trial","286","2316232","0.0-241.0","battery-v0.2","","-1","G","elianto","#3366ff99","32","-1","0","+10","","0","3","","","","","","","4ee95e0e8737a0304baac70a&order=1&STUDY_ID=61caf85b4892b889f6411591","237","8","1","win","go","1"
"pit-trial","287","2321087","0.0-242.0","battery-v0.2","","-1","U","elianto","#f73b6a7A","-1","-1","1","0","","0","3","","","","","","","4ee95e0e8737a0304baac70a&order=1&STUDY_ID=61caf85b4892b889f6411591","238","11","4","lose","no-go","0"
"pit-trial","288","2325948","0.0-243.0","battery-v0.2","","-1","L","elianto","#f73b6a7A","32","-1","0","0","","0","3","","","","","","","4ee95e0e8737a0304baac70a&order=1&STUDY_ID=61caf85b4892b889f6411591","239","10","3","lose","go","1"
"pit-trial","289","2330800","0.0-244.0","battery-v0.2","","-1","A","elianto","#3366ff99","-1","-1","1","+10","","0","3","","","","","","","4ee95e0e8737a0304baac70a&order=1&STUDY_ID=61caf85b4892b889f6411591","240","9","2","win","no-go","0"
"pit-trial","290","2335655","0.0-245.0","battery-v0.2","","-1","U","elianto","#f73b6a7A","-1","-1","1","0","","0","3","","","","","","","4ee95e0e8737a0304baac70a&order=1&STUDY_ID=61caf85b4892b889f6411591","241","11","4","lose","no-go","0"
"pit-trial","291","2340509","0.0-246.0","battery-v0.2","","-1","G","elianto","#3366ff99","32","-1","0","0","","0","3","","","","","","","4ee95e0e8737a0304baac70a&order=1&STUDY_ID=61caf85b4892b889f6411591","242","8","1","win","go","0"
"pit-trial","292","2345365","0.0-247.0","battery-v0.2","","-1","A","elianto","#3366ff99","-1","-1","1","+10","","0","3","","","","","","","4ee95e0e8737a0304baac70a&order=1&STUDY_ID=61caf85b4892b889f6411591","243","9","2","win","no-go","0"
"pit-trial","293","2350222","0.0-248.0","battery-v0.2","","-1","L","elianto","#f73b6a7A","32","-1","0","-10","","0","3","","","","","","","4ee95e0e8737a0304baac70a&order=1&STUDY_ID=61caf85b4892b889f6411591","244","10","3","lose","go","0"
"pit-trial","294","2355078","0.0-249.0","battery-v0.2","","-1","A","elianto","#3366ff99","-1","-1","1","+10","","0","3","","","","","","","4ee95e0e8737a0304baac70a&order=1&STUDY_ID=61caf85b4892b889f6411591","245","9","2","win","no-go","0"
"pit-trial","295","2359936","0.0-250.0","battery-v0.2","","-1","G","elianto","#3366ff99","32","-1","0","0","","0","3","","","","","","","4ee95e0e8737a0304baac70a&order=1&STUDY_ID=61caf85b4892b889f6411591","246","8","1","win","go","0"
"pit-trial","296","2364796","0.0-251.0","battery-v0.2","","-1","L","elianto","#f73b6a7A","32","-1","0","0","","0","3","","","","","","","4ee95e0e8737a0304baac70a&order=1&STUDY_ID=61caf85b4892b889f6411591","247","10","3","lose","go","1"
"pit-trial","297","2369654","0.0-252.0","battery-v0.2","","-1","U","elianto","#f73b6a7A","-1","-1","1","0","","0","3","","","","","","","4ee95e0e8737a0304baac70a&order=1&STUDY_ID=61caf85b4892b889f6411591","248","11","4","lose","no-go","0"
"pit-trial","298","2374512","0.0-253.0","battery-v0.2","","-1","L","elianto","#f73b6a7A","32","-1","0","-10","","0","3","","","","","","","4ee95e0e8737a0304baac70a&order=1&STUDY_ID=61caf85b4892b889f6411591","249","10","3","lose","go","0"
"pit-trial","299","2379372","0.0-254.0","battery-v0.2","","-1","U","elianto","#f73b6a7A","-1","-1","1","0","","0","3","","","","","","","4ee95e0e8737a0304baac70a&order=1&STUDY_ID=61caf85b4892b889f6411591","250","11","4","lose","no-go","0"
"pit-trial","300","2384231","0.0-255.0","battery-v0.2","","-1","A","elianto","#3366ff99","-1","-1","1","0","","0","3","","","","","","","4ee95e0e8737a0304baac70a&order=1&STUDY_ID=61caf85b4892b889f6411591","251","9","2","win","no-go","1"
"pit-trial","301","2389088","0.0-256.0","battery-v0.2","","-1","G","elianto","#3366ff99","32","-1","0","0","","0","3","","","","","","","4ee95e0e8737a0304baac70a&order=1&STUDY_ID=61caf85b4892b889f6411591","252","8","1","win","go","0"
"pit-trial","302","2393951","0.0-257.0","battery-v0.2","","-1","L","elianto","#f73b6a7A","32","-1","0","0","","0","3","","","","","","","4ee95e0e8737a0304baac70a&order=1&STUDY_ID=61caf85b4892b889f6411591","253","10","3","lose","go","1"
"pit-trial","303","2398807","0.0-258.0","battery-v0.2","","-1","A","elianto","#3366ff99","-1","-1","1","0","","0","3","","","","","","","4ee95e0e8737a0304baac70a&order=1&STUDY_ID=61caf85b4892b889f6411591","254","9","2","win","no-go","1"
"pit-trial","304","2403664","0.0-259.0","battery-v0.2","","-1","G","elianto","#3366ff99","32","-1","0","0","","0","3","","","","","","","4ee95e0e8737a0304baac70a&order=1&STUDY_ID=61caf85b4892b889f6411591","255","8","1","win","go","0"
"pit-trial","305","2408519","0.0-260.0","battery-v0.2","","-1","U","elianto","#f73b6a7A","-1","-1","1","0","","0","3","","","","","","","4ee95e0e8737a0304baac70a&order=1&STUDY_ID=61caf85b4892b889f6411591","256","11","4","lose","no-go","0"
"pit-trial","306","2413375","0.0-261.0","battery-v0.2","","-1","U","elianto","#f73b6a7A","-1","-1","1","0","","0","3","","","","","","","4ee95e0e8737a0304baac70a&order=1&STUDY_ID=61caf85b4892b889f6411591","257","11","4","lose","no-go","0"
"pit-trial","307","2418233","0.0-262.0","battery-v0.2","","-1","L","elianto","#f73b6a7A","32","-1","0","-10","","0","3","","","","","","","4ee95e0e8737a0304baac70a&order=1&STUDY_ID=61caf85b4892b889f6411591","258","10","3","lose","go","0"
"pit-trial","308","2423090","0.0-263.0","battery-v0.2","","-1","G","elianto","#3366ff99","32","-1","0","0","","0","3","","","","","","","4ee95e0e8737a0304baac70a&order=1&STUDY_ID=61caf85b4892b889f6411591","259","8","1","win","go","0"
"pit-trial","309","2427947","0.0-264.0","battery-v0.2","","-1","A","elianto","#3366ff99","-1","-1","1","+10","","0","3","","","","","","","4ee95e0e8737a0304baac70a&order=1&STUDY_ID=61caf85b4892b889f6411591","260","9","2","win","no-go","0"
