"trial_type","trial_index","time_elapsed","internal_node_id","task_version","subject_id","interactions","blur_events","focus_events","fullscreenenter_events","fullscreenexit_events","success","view_history","rt","responses","num_errors","age","subject","participantId","rune","rune_set","hex","correct","choice","accuracy","outcome","keys","total_keys","block","practice","value","sub","trial","stimulus","robot","valence","action","sham","browser_interactions"
"pavlovia","0","10","0.0-0.0","battery-v0.2","","""event"",""trial"",""time""
""fullscreenenter"",""1"",""1936""
","
","
","""event"",""trial"",""time""
""fullscreenenter"",""1"",""1936""
","
","","","","","","","","","","","","","","","","","","","","","","","","","","","",""
"fullscreen","1","2892","0.0-1.0","battery-v0.2","","""event"",""trial"",""time""
""fullscreenenter"",""1"",""1936""
","
","
","""event"",""trial"",""time""
""fullscreenenter"",""1"",""1936""
","
","true","","","","","","","","","","","","","","","","","","","","","","","","","","",""
"pit-instructions","2","8889","0.0-2.0-0.0","battery-v0.2","","""event"",""trial"",""time""
""fullscreenenter"",""1"",""1936""
","
","
","""event"",""trial"",""time""
""fullscreenenter"",""1"",""1936""
","
","","[{""page_index"":0,""viewing_time"":5988}]","5989","","","","","","","","","","","","","","","","","","","","","","","","",""
"pit-comprehension","3","12201","0.0-2.0-1.0-0.0","battery-v0.2","","""event"",""trial"",""time""
""fullscreenenter"",""1"",""1936""
","
","
","""event"",""trial"",""time""
""fullscreenenter"",""1"",""1936""
","
","","","3203","[""shark""]","0","19","1280","568","","","","","","","","","","","","","","","","","","","",""
"pit-instructions","4","13515","0.0-2.0-1.0-1.0","battery-v0.2","","""event"",""trial"",""time""
""fullscreenenter"",""1"",""1936""
","
","
","""event"",""trial"",""time""
""fullscreenenter"",""1"",""1936""
","
","","[{""page_index"":0,""viewing_time"":1287.0000000000018}]","1288","","","","","","","","","","","","","","","","","","","","","","","","",""
"pit-comprehension","5","15964","0.0-2.0-2.0-0.0","battery-v0.2","","""event"",""trial"",""time""
""fullscreenenter"",""1"",""1936""
","
","
","""event"",""trial"",""time""
""fullscreenenter"",""1"",""1936""
","
","","","2447.000000000002","[""tiger""]","0","19","1280","568","","","","","","","","","","","","","","","","","","","",""
"pit-instructions","6","17593","0.0-2.0-2.0-1.0","battery-v0.2","","""event"",""trial"",""time""
""fullscreenenter"",""1"",""1936""
","
","
","""event"",""trial"",""time""
""fullscreenenter"",""1"",""1936""
","
","","[{""page_index"":0,""viewing_time"":1441}]","1441","","","","","","","","","","","","","","","","","","","","","","","","",""
"pit-instructions","7","117648","0.0-2.0-3.0","battery-v0.2","","""event"",""trial"",""time""
""fullscreenenter"",""1"",""1936""
","
","
","""event"",""trial"",""time""
""fullscreenenter"",""1"",""1936""
","
","","[{""page_index"":0,""viewing_time"":8663.000000000004},{""page_index"":1,""viewing_time"":7351.999999999996},{""page_index"":2,""viewing_time"":6108},{""page_index"":3,""viewing_time"":6123.000000000007},{""page_index"":4,""viewing_time"":6467.999999999993},{""page_index"":5,""viewing_time"":6444},{""page_index"":6,""viewing_time"":7508},{""page_index"":7,""viewing_time"":7552},{""page_index"":8,""viewing_time"":6276},{""page_index"":9,""viewing_time"":7845},{""page_index"":10,""viewing_time"":7175},{""page_index"":11,""viewing_time"":8147},{""page_index"":12,""viewing_time"":6762},{""page_index"":13,""viewing_time"":7626.000000000015}]","100049.00000000001","","","","","","","","","","","","","","","","","","","","","","","","",""
"pit-trial","8","121124","0.0-2.0-4.0-0.0","battery-v0.2","","""event"",""trial"",""time""
""fullscreenenter"",""1"",""1936""
","
","
","""event"",""trial"",""time""
""fullscreenenter"",""1"",""1936""
","
","","","622","","","19","1280","568","&#9784;","elianto","#FFFFF080"," "," ","1","&#10004","[1473]","1","0","0","","","","","","","","",""
"pit-trial","9","124703","0.0-2.0-4.1-0.1","battery-v0.2","","""event"",""trial"",""time""
""fullscreenenter"",""1"",""1936""
","
","
","""event"",""trial"",""time""
""fullscreenenter"",""1"",""1936""
","
","","","725","","","19","1280","568","&#9784;","elianto","#FFFFF080"," "," ","1","&#10004","[1576]","1","0","0","","","","","","","","",""
"pit-trial","10","128172","0.0-2.0-4.2-0.2","battery-v0.2","","""event"",""trial"",""time""
""fullscreenenter"",""1"",""1936""
","
","
","""event"",""trial"",""time""
""fullscreenenter"",""1"",""1936""
","
","","","616","","","19","1280","568","&#9784;","elianto","#FFFFF080"," "," ","1","&#10004","[1467]","1","0","0","","","","","","","","",""
"pit-trial","11","131731","0.0-2.0-4.3-0.3","battery-v0.2","","""event"",""trial"",""time""
""fullscreenenter"",""1"",""1936""
","
","
","""event"",""trial"",""time""
""fullscreenenter"",""1"",""1936""
","
","","","705","","","19","1280","568","&#9784;","elianto","#FFFFF080"," "," ","1","&#10004","[1555.9999999999854]","1","0","0","","","","","","","","",""
"pit-trial","12","135167","0.0-2.0-4.4-0.4","battery-v0.2","","""event"",""trial"",""time""
""fullscreenenter"",""1"",""1936""
","
","
","""event"",""trial"",""time""
""fullscreenenter"",""1"",""1936""
","
","","","580.9999999999709","","","19","1280","568","&#9784;","elianto","#FFFFF080"," "," ","1","&#10004","[1431.999999999971]","1","0","0","","","","","","","","",""
"pit-instructions","13","158522","0.0-2.0-5.0","battery-v0.2","","""event"",""trial"",""time""
""fullscreenenter"",""1"",""1936""
","
","
","""event"",""trial"",""time""
""fullscreenenter"",""1"",""1936""
","
","","[{""page_index"":0,""viewing_time"":5388},{""page_index"":1,""viewing_time"":6464},{""page_index"":2,""viewing_time"":6313.000000000029},{""page_index"":3,""viewing_time"":5186.999999999971}]","23352","","","","","","","","","","","","","","","","","","","","","","","","",""
"pit-trial","14","163377","0.0-2.0-6.0-0.0","battery-v0.2","","""event"",""trial"",""time""
""fullscreenenter"",""1"",""1936""
","
","
","""event"",""trial"",""time""
""fullscreenenter"",""1"",""1936""
","
","","","-1","","","19","1280","568","&#9854;","elianto","#FFFFF080","-1","-1","1","&#10004","[]","0","0","1","","","","","","","","",""
"pit-trial","15","168231","0.0-2.0-6.1-0.1","battery-v0.2","","""event"",""trial"",""time""
""fullscreenenter"",""1"",""1936""
","
","
","""event"",""trial"",""time""
""fullscreenenter"",""1"",""1936""
","
","","","-1","","","19","1280","568","&#9854;","elianto","#FFFFF080","-1","-1","1","&#10004","[]","0","0","1","","","","","","","","",""
"pit-trial","16","173085","0.0-2.0-6.2-0.2","battery-v0.2","","""event"",""trial"",""time""
""fullscreenenter"",""1"",""1936""
","
","
","""event"",""trial"",""time""
""fullscreenenter"",""1"",""1936""
","
","","","-1","","","19","1280","568","&#9854;","elianto","#FFFFF080","-1","-1","1","&#10004","[]","0","0","1","","","","","","","","",""
"pit-trial","17","177940","0.0-2.0-6.3-0.3","battery-v0.2","","""event"",""trial"",""time""
""fullscreenenter"",""1"",""1936""
","
","
","""event"",""trial"",""time""
""fullscreenenter"",""1"",""1936""
","
","","","-1","","","19","1280","568","&#9854;","elianto","#FFFFF080","-1","-1","1","&#10004","[]","0","0","1","","","","","","","","",""
"pit-trial","18","182794","0.0-2.0-6.4-0.4","battery-v0.2","","""event"",""trial"",""time""
""fullscreenenter"",""1"",""1936""
","
","
","""event"",""trial"",""time""
""fullscreenenter"",""1"",""1936""
","
","","","-1","","","19","1280","568","&#9854;","elianto","#FFFFF080","-1","-1","1","&#10004","[]","0","0","1","","","","","","","","",""
"pit-instructions","19","311411","0.0-2.0-7.0","battery-v0.2","","""event"",""trial"",""time""
""fullscreenenter"",""1"",""1936""
","
","
","""event"",""trial"",""time""
""fullscreenenter"",""1"",""1936""
","
","","[{""page_index"":0,""viewing_time"":8366},{""page_index"":1,""viewing_time"":8278},{""page_index"":2,""viewing_time"":6550},{""page_index"":3,""viewing_time"":6746},{""page_index"":4,""viewing_time"":5271.000000000029},{""page_index"":5,""viewing_time"":5732.999999999971},{""page_index"":6,""viewing_time"":4779.000000000029},{""page_index"":7,""viewing_time"":7450.999999999971},{""page_index"":8,""viewing_time"":6700},{""page_index"":9,""viewing_time"":5995},{""page_index"":10,""viewing_time"":9766},{""page_index"":11,""viewing_time"":6030},{""page_index"":12,""viewing_time"":8212},{""page_index"":13,""viewing_time"":8833},{""page_index"":14,""viewing_time"":7142},{""page_index"":15,""viewing_time"":6258},{""page_index"":16,""viewing_time"":9009.000000000058},{""page_index"":17,""viewing_time"":7491.999999999942}]","128611","","","","","","","","","","","","","","","","","","","","","","","","",""
"pit-trial","20","314911","0.0-2.0-8.0-0.0","battery-v0.2","","""event"",""trial"",""time""
""fullscreenenter"",""1"",""1936""
","
","
","""event"",""trial"",""time""
""fullscreenenter"",""1"",""1936""
","
","","","646","","","19","1280","568","&#9776;","elianto","#3366ff99"," "," ","1","+10","[1497]","1","0","1","","","","","","","","",""
"pit-trial","21","318432","0.0-2.0-8.0-1.0","battery-v0.2","","""event"",""trial"",""time""
""fullscreenenter"",""1"",""1936""
","
","
","""event"",""trial"",""time""
""fullscreenenter"",""1"",""1936""
","
","","","667.0000000000582","","","19","1280","568","&#9776;","elianto","#3366ff99"," "," ","1","+10","[1517.0000000000582]","1","0","1","","","","","","","","",""
"pit-trial","22","321971","0.0-2.0-8.0-2.0","battery-v0.2","","""event"",""trial"",""time""
""fullscreenenter"",""1"",""1936""
","
","
","""event"",""trial"",""time""
""fullscreenenter"",""1"",""1936""
","
","","","685","","","19","1280","568","&#9776;","elianto","#3366ff99"," "," ","1","+10","[1537]","1","0","1","","","","","","","","",""
"pit-trial","23","325748","0.0-2.0-8.0-3.0","battery-v0.2","","""event"",""trial"",""time""
""fullscreenenter"",""1"",""1936""
","
","
","""event"",""trial"",""time""
""fullscreenenter"",""1"",""1936""
","
","","","922","","","19","1280","568","&#9776;","elianto","#3366ff99"," "," ","1","0","[1773]","1","0","1","","","","","","","","",""
"pit-trial","24","329140","0.0-2.0-8.0-4.0","battery-v0.2","","""event"",""trial"",""time""
""fullscreenenter"",""1"",""1936""
","
","
","""event"",""trial"",""time""
""fullscreenenter"",""1"",""1936""
","
","","","539","","","19","1280","568","&#9776;","elianto","#3366ff99"," "," ","1","+10","[1389]","1","0","1","","","","","","","","",""
"call-function","25","329142","0.0-2.0-9.0","battery-v0.2","","""event"",""trial"",""time""
""fullscreenenter"",""1"",""1936""
","
","
","""event"",""trial"",""time""
""fullscreenenter"",""1"",""1936""
","
","","","","","","","","","","","","","","","","","","","","","","","","","","","",""
"pit-instructions","26","368649","0.0-2.0-10.0","battery-v0.2","","""event"",""trial"",""time""
""fullscreenenter"",""1"",""1936""
","
","
","""event"",""trial"",""time""
""fullscreenenter"",""1"",""1936""
","
","","[{""page_index"":0,""viewing_time"":6405},{""page_index"":1,""viewing_time"":7474},{""page_index"":2,""viewing_time"":9270},{""page_index"":3,""viewing_time"":8862},{""page_index"":4,""viewing_time"":7494}]","39505","","","","","","","","","","","","","","","","","","","","","","","","",""
"pit-trial","27","372153","0.0-2.0-11.0-0.0","battery-v0.2","","""event"",""trial"",""time""
""fullscreenenter"",""1"",""1936""
","
","
","""event"",""trial"",""time""
""fullscreenenter"",""1"",""1936""
","
","","","651","","","19","1280","568","&#9761;","elianto","#3366ff99","-1"," ","0","0","[1500]","1","0","2","","","","","","","","",""
"pit-trial","28","375854","0.0-2.0-11.0-1.0","battery-v0.2","","""event"",""trial"",""time""
""fullscreenenter"",""1"",""1936""
","
","
","""event"",""trial"",""time""
""fullscreenenter"",""1"",""1936""
","
","","","846","","","19","1280","568","&#9761;","elianto","#3366ff99","-1"," ","0","0","[1697]","1","0","2","","","","","","","","",""
"pit-trial","29","380709","0.0-2.0-11.0-2.0","battery-v0.2","","""event"",""trial"",""time""
""fullscreenenter"",""1"",""1936""
","
","
","""event"",""trial"",""time""
""fullscreenenter"",""1"",""1936""
","
","","","-1","","","19","1280","568","&#9761;","elianto","#3366ff99","-1","-1","1","+10","[]","0","0","2","","","","","","","","",""
"pit-trial","30","385563","0.0-2.0-11.0-3.0","battery-v0.2","","""event"",""trial"",""time""
""fullscreenenter"",""1"",""1936""
","
","
","""event"",""trial"",""time""
""fullscreenenter"",""1"",""1936""
","
","","","-1","","","19","1280","568","&#9761;","elianto","#3366ff99","-1","-1","1","0","[]","0","0","2","","","","","","","","",""
"pit-trial","31","390418","0.0-2.0-11.0-4.0","battery-v0.2","","""event"",""trial"",""time""
""fullscreenenter"",""1"",""1936""
","
","
","""event"",""trial"",""time""
""fullscreenenter"",""1"",""1936""
","
","","","-1","","","19","1280","568","&#9761;","elianto","#3366ff99","-1","-1","1","+10","[]","0","0","2","","","","","","","","",""
"pit-trial","32","395274","0.0-2.0-11.1-0.1","battery-v0.2","","""event"",""trial"",""time""
""fullscreenenter"",""1"",""1936""
","
","
","""event"",""trial"",""time""
""fullscreenenter"",""1"",""1936""
","
","","","-1","","","19","1280","568","&#9761;","elianto","#3366ff99","-1","-1","1","+10","[]","0","0","2","","","","","","","","",""
"pit-trial","33","400128","0.0-2.0-11.1-1.1","battery-v0.2","","""event"",""trial"",""time""
""fullscreenenter"",""1"",""1936""
","
","
","""event"",""trial"",""time""
""fullscreenenter"",""1"",""1936""
","
","","","-1","","","19","1280","568","&#9761;","elianto","#3366ff99","-1","-1","1","+10","[]","0","0","2","","","","","","","","",""
"pit-trial","34","404983","0.0-2.0-11.1-2.1","battery-v0.2","","""event"",""trial"",""time""
""fullscreenenter"",""1"",""1936""
","
","
","""event"",""trial"",""time""
""fullscreenenter"",""1"",""1936""
","
","","","-1","","","19","1280","568","&#9761;","elianto","#3366ff99","-1","-1","1","+10","[]","0","0","2","","","","","","","","",""
"pit-trial","35","409835","0.0-2.0-11.1-3.1","battery-v0.2","","""event"",""trial"",""time""
""fullscreenenter"",""1"",""1936""
","
","
","""event"",""trial"",""time""
""fullscreenenter"",""1"",""1936""
","
","","","-1","","","19","1280","568","&#9761;","elianto","#3366ff99","-1","-1","1","0","[]","0","0","2","","","","","","","","",""
"pit-trial","36","414689","0.0-2.0-11.1-4.1","battery-v0.2","","""event"",""trial"",""time""
""fullscreenenter"",""1"",""1936""
","
","
","""event"",""trial"",""time""
""fullscreenenter"",""1"",""1936""
","
","","","-1","","","19","1280","568","&#9761;","elianto","#3366ff99","-1","-1","1","+10","[]","0","0","2","","","","","","","","",""
"call-function","37","414690","0.0-2.0-12.0","battery-v0.2","","""event"",""trial"",""time""
""fullscreenenter"",""1"",""1936""
","
","
","""event"",""trial"",""time""
""fullscreenenter"",""1"",""1936""
","
","","","","","","","","","","","","","","","","","","","","","","","","","","","",""
"pit-instructions","38","447342","0.0-2.0-13.0","battery-v0.2","","""event"",""trial"",""time""
""fullscreenenter"",""1"",""1936""
","
","
","""event"",""trial"",""time""
""fullscreenenter"",""1"",""1936""
","
","","[{""page_index"":0,""viewing_time"":5637},{""page_index"":1,""viewing_time"":7191},{""page_index"":2,""viewing_time"":3791},{""page_index"":3,""viewing_time"":10881},{""page_index"":4,""viewing_time"":5150}]","32650","","","","","","","","","","","","","","","","","","","","","","","","",""
"pit-trial","39","452196","0.0-2.0-14.0-0.0","battery-v0.2","","""event"",""trial"",""time""
""fullscreenenter"",""1"",""1936""
","
","
","""event"",""trial"",""time""
""fullscreenenter"",""1"",""1936""
","
","","","-1","","","19","1280","568","&#9826;","elianto","#f73b6a7A","-1","-1","1","0","[]","0","0","3","","","","","","","","",""
"pit-trial","40","457050","0.0-2.0-14.0-1.0","battery-v0.2","","""event"",""trial"",""time""
""fullscreenenter"",""1"",""1936""
","
","
","""event"",""trial"",""time""
""fullscreenenter"",""1"",""1936""
","
","","","-1","","","19","1280","568","&#9826;","elianto","#f73b6a7A","-1","-1","1","0","[]","0","0","3","","","","","","","","",""
"pit-trial","41","461904","0.0-2.0-14.0-2.0","battery-v0.2","","""event"",""trial"",""time""
""fullscreenenter"",""1"",""1936""
","
","
","""event"",""trial"",""time""
""fullscreenenter"",""1"",""1936""
","
","","","-1","","","19","1280","568","&#9826;","elianto","#f73b6a7A","-1","-1","1","0","[]","0","0","3","","","","","","","","",""
"pit-trial","42","466760","0.0-2.0-14.0-3.0","battery-v0.2","","""event"",""trial"",""time""
""fullscreenenter"",""1"",""1936""
","
","
","""event"",""trial"",""time""
""fullscreenenter"",""1"",""1936""
","
","","","-1","","","19","1280","568","&#9826;","elianto","#f73b6a7A","-1","-1","1","-10","[]","0","0","3","","","","","","","","",""
"pit-trial","43","471615","0.0-2.0-14.0-4.0","battery-v0.2","","""event"",""trial"",""time""
""fullscreenenter"",""1"",""1936""
","
","
","""event"",""trial"",""time""
""fullscreenenter"",""1"",""1936""
","
","","","-1","","","19","1280","568","&#9826;","elianto","#f73b6a7A","-1","-1","1","0","[]","0","0","3","","","","","","","","",""
"call-function","44","471617","0.0-2.0-15.0","battery-v0.2","","""event"",""trial"",""time""
""fullscreenenter"",""1"",""1936""
","
","
","""event"",""trial"",""time""
""fullscreenenter"",""1"",""1936""
","
","","","","","","","","","","","","","","","","","","","","","","","","","","","",""
"pit-instructions","45","495732","0.0-2.0-16.0","battery-v0.2","","""event"",""trial"",""time""
""fullscreenenter"",""1"",""1936""
","
","
","""event"",""trial"",""time""
""fullscreenenter"",""1"",""1936""
","
","","[{""page_index"":0,""viewing_time"":6404},{""page_index"":1,""viewing_time"":8279},{""page_index"":2,""viewing_time"":4343},{""page_index"":3,""viewing_time"":5089}]","24115","","","","","","","","","","","","","","","","","","","","","","","","",""
"pit-trial","46","500587","0.0-2.0-17.0-0.0","battery-v0.2","","""event"",""trial"",""time""
""fullscreenenter"",""1"",""1936""
","
","
","""event"",""trial"",""time""
""fullscreenenter"",""1"",""1936""
","
","","","-1","","","19","1280","568","&#9789;","elianto","#f73b6a7A"," ","-1","0","-10","[]","0","0","4","","","","","","","","",""
"pit-trial","47","503984","0.0-2.0-17.0-1.0","battery-v0.2","","""event"",""trial"",""time""
""fullscreenenter"",""1"",""1936""
","
","
","""event"",""trial"",""time""
""fullscreenenter"",""1"",""1936""
","
","","","544","","","19","1280","568","&#9789;","elianto","#f73b6a7A"," "," ","1","0","[1394]","1","0","4","","","","","","","","",""
"pit-trial","48","507296","0.0-2.0-17.0-2.0","battery-v0.2","","""event"",""trial"",""time""
""fullscreenenter"",""1"",""1936""
","
","
","""event"",""trial"",""time""
""fullscreenenter"",""1"",""1936""
","
","","","457","","","19","1280","568","&#9789;","elianto","#f73b6a7A"," "," ","1","0","[1308]","1","0","4","","","","","","","","",""
"pit-trial","49","510559","0.0-2.0-17.0-3.0","battery-v0.2","","""event"",""trial"",""time""
""fullscreenenter"",""1"",""1936""
","
","
","""event"",""trial"",""time""
""fullscreenenter"",""1"",""1936""
","
","","","411","","","19","1280","568","&#9789;","elianto","#f73b6a7A"," "," ","1","-10","[1261.0000000000582]","1","0","4","","","","","","","","",""
"pit-trial","50","513712","0.0-2.0-17.0-4.0","battery-v0.2","","""event"",""trial"",""time""
""fullscreenenter"",""1"",""1936""
","
","
","""event"",""trial"",""time""
""fullscreenenter"",""1"",""1936""
","
","","","298.9999999999418","","","19","1280","568","&#9789;","elianto","#f73b6a7A"," "," ","1","0","[1149.9999999999418]","1","0","4","","","","","","","","",""
"call-function","51","513714","0.0-2.0-18.0","battery-v0.2","","""event"",""trial"",""time""
""fullscreenenter"",""1"",""1936""
","
","
","""event"",""trial"",""time""
""fullscreenenter"",""1"",""1936""
","
","","","","","","","","","","","","","","","","","","","","","","","","","","","",""
"pit-instructions","52","577591","0.0-2.0-19.0","battery-v0.2","","""event"",""trial"",""time""
""fullscreenenter"",""1"",""1936""
","
","
","""event"",""trial"",""time""
""fullscreenenter"",""1"",""1936""
","
","","[{""page_index"":0,""viewing_time"":6434.999999999942},{""page_index"":1,""viewing_time"":5532},{""page_index"":2,""viewing_time"":11113},{""page_index"":3,""viewing_time"":7945},{""page_index"":4,""viewing_time"":8479},{""page_index"":5,""viewing_time"":8073},{""page_index"":6,""viewing_time"":8391},{""page_index"":7,""viewing_time"":4867},{""page_index"":8,""viewing_time"":3040}]","63874.99999999994","","","","","","","","","","","","","","","","","","","","","","","","",""
"pit-comprehension","53","581993","0.0-2.0-20.0-0.0","battery-v0.2","","""event"",""trial"",""time""
""fullscreenenter"",""1"",""1936""
","
","
","""event"",""trial"",""time""
""fullscreenenter"",""1"",""1936""
","
","","","4399","[""SPACE""]","0","19","1280","568","","","","","","","","","","","","","","","","","","","",""
"pit-instructions","54","584913","0.0-2.0-20.0-1.0","battery-v0.2","","""event"",""trial"",""time""
""fullscreenenter"",""1"",""1936""
","
","
","""event"",""trial"",""time""
""fullscreenenter"",""1"",""1936""
","
","","[{""page_index"":0,""viewing_time"":2879}]","2879","","","","","","","","","","","","","","","","","","","","","","","","",""
"pit-comprehension","55","589882","0.0-2.0-21.0-0.0","battery-v0.2","","""event"",""trial"",""time""
""fullscreenenter"",""1"",""1936""
","
","
","""event"",""trial"",""time""
""fullscreenenter"",""1"",""1936""
","
","","","4967","[""10""]","0","19","1280","568","","","","","","","","","","","","","","","","","","","",""
"pit-instructions","56","591686","0.0-2.0-21.0-1.0","battery-v0.2","","""event"",""trial"",""time""
""fullscreenenter"",""1"",""1936""
","
","
","""event"",""trial"",""time""
""fullscreenenter"",""1"",""1936""
","
","","[{""page_index"":0,""viewing_time"":1761}]","1761","","","","","","","","","","","","","","","","","","","","","","","","",""
"pit-comprehension","57","598327","0.0-2.0-22.0-0.0","battery-v0.2","","""event"",""trial"",""time""
""fullscreenenter"",""1"",""1936""
","
","
","""event"",""trial"",""time""
""fullscreenenter"",""1"",""1936""
","
","","","6638","[""0""]","0","19","1280","568","","","","","","","","","","","","","","","","","","","",""
"pit-instructions","58","599851","0.0-2.0-22.0-1.0","battery-v0.2","","""event"",""trial"",""time""
""fullscreenenter"",""1"",""1936""
","
","
","""event"",""trial"",""time""
""fullscreenenter"",""1"",""1936""
","
","","[{""page_index"":0,""viewing_time"":1480}]","1480","","","","","","","","","","","","","","","","","","","","","","","","",""
"pit-comprehension","59","610773","0.0-2.0-23.0-0.0","battery-v0.2","","""event"",""trial"",""time""
""fullscreenenter"",""1"",""1936""
","
","
","""event"",""trial"",""time""
""fullscreenenter"",""1"",""1936""
","
","","","10919","[""True""]","0","19","1280","568","","","","","","","","","","","","","","","","","","","",""
"pit-instructions","60","612207","0.0-2.0-23.0-1.0","battery-v0.2","","""event"",""trial"",""time""
""fullscreenenter"",""1"",""1936""
","
","
","""event"",""trial"",""time""
""fullscreenenter"",""1"",""1936""
","
","","[{""page_index"":0,""viewing_time"":1389}]","1389","","","","","","","","","","","","","","","","","","","","","","","","",""
"pit-comprehension","61","619575","0.0-2.0-24.0-0.0","battery-v0.2","","""event"",""trial"",""time""
""fullscreenenter"",""1"",""1936""
","
","
","""event"",""trial"",""time""
""fullscreenenter"",""1"",""1936""
","
","","","7363.999999999884","[""True""]","0","19","1280","568","","","","","","","","","","","","","","","","","","","",""
"pit-instructions","62","621167","0.0-2.0-24.0-1.0","battery-v0.2","","""event"",""trial"",""time""
""fullscreenenter"",""1"",""1936""
","
","
","""event"",""trial"",""time""
""fullscreenenter"",""1"",""1936""
","
","","[{""page_index"":0,""viewing_time"":1542}]","1542","","","","","","","","","","","","","","","","","","","","","","","","",""
"pit-comprehension","63","627546","0.0-2.0-25.0-0.0","battery-v0.2","","""event"",""trial"",""time""
""fullscreenenter"",""1"",""1936""
","
","
","""event"",""trial"",""time""
""fullscreenenter"",""1"",""1936""
","
","","","6375","[""True""]","0","19","1280","568","","","","","","","","","","","","","","","","","","","",""
"pit-instructions","64","629352","0.0-2.0-25.0-1.0","battery-v0.2","","""event"",""trial"",""time""
""fullscreenenter"",""1"",""1936""
","
","
","""event"",""trial"",""time""
""fullscreenenter"",""1"",""1936""
","
","","[{""page_index"":0,""viewing_time"":1758}]","1758","","","","","","","","","","","","","","","","","","","","","","","","",""
"pit-comprehension","65","642190","0.0-2.0-26.0-0.0","battery-v0.2","","""event"",""trial"",""time""
""fullscreenenter"",""1"",""1936""
","
","
","""event"",""trial"",""time""
""fullscreenenter"",""1"",""1936""
","
","","","12835","[""False""]","0","19","1280","568","","","","","","","","","","","","","","","","","","","",""
"pit-instructions","66","643659","0.0-2.0-26.0-1.0","battery-v0.2","","""event"",""trial"",""time""
""fullscreenenter"",""1"",""1936""
","
","
","""event"",""trial"",""time""
""fullscreenenter"",""1"",""1936""
","
","","[{""page_index"":0,""viewing_time"":1421}]","1421","","","","","","","","","","","","","","","","","","","","","","","","",""
"pit-instructions","67","660319","0.0-3.0","battery-v0.2","","""event"",""trial"",""time""
""fullscreenenter"",""1"",""1936""
","
","
","""event"",""trial"",""time""
""fullscreenenter"",""1"",""1936""
","
","","[{""page_index"":0,""viewing_time"":4569},{""page_index"":1,""viewing_time"":5477},{""page_index"":2,""viewing_time"":6612}]","16658","","","","","","","","","","","","","","","","","","","","","","","","",""
"pit-trial","68","663996","0.0-4.0","battery-v0.2","","""event"",""trial"",""time""
""fullscreenenter"",""1"",""1936""
","
","
","""event"",""trial"",""time""
""fullscreenenter"",""1"",""1936""
","
","","","818","","","19","1280","568","&#9728;","elianto","#f73b6a7A","-1"," ","0","-10","[1671]","1","1","","","1280","1","0","4","lose","no-go","0","[]"
"pit-trial","69","667524","0.0-5.0","battery-v0.2","","""event"",""trial"",""time""
""fullscreenenter"",""1"",""1936""
","
","
","""event"",""trial"",""time""
""fullscreenenter"",""1"",""1936""
","
","","","675","","","19","1280","568","&#9730;","elianto","#3366ff99"," "," ","1","0","[1525]","1","1","","","1280","2","1","1","win","go","1","0"
"pit-trial","70","671107","0.0-6.0","battery-v0.2","","""event"",""trial"",""time""
""fullscreenenter"",""1"",""1936""
","
","
","""event"",""trial"",""time""
""fullscreenenter"",""1"",""1936""
","
","","","729","","","19","1280","568","&#9752;","elianto","#f73b6a7A"," "," ","1","0","[1580]","1","1","","","1280","3","3","3","lose","go","0","0"
"pit-trial","71","674781","0.0-7.0","battery-v0.2","","""event"",""trial"",""time""
""fullscreenenter"",""1"",""1936""
","
","
","""event"",""trial"",""time""
""fullscreenenter"",""1"",""1936""
","
","","","820","","","19","1280","568","&#9733;","elianto","#3366ff99","-1"," ","0","0","[1671]","1","1","","","1280","4","2","2","win","no-go","0","0"
"pit-trial","72","678717","0.0-8.0","battery-v0.2","","""event"",""trial"",""time""
""fullscreenenter"",""1"",""1936""
","
","
","""event"",""trial"",""time""
""fullscreenenter"",""1"",""1936""
","
","","","1082","","","19","1280","568","&#9752;","elianto","#f73b6a7A"," "," ","1","0","[1933]","1","1","","","1280","5","3","3","lose","go","0","0"
"pit-trial","73","682238","0.0-9.0","battery-v0.2","","""event"",""trial"",""time""
""fullscreenenter"",""1"",""1936""
","
","
","""event"",""trial"",""time""
""fullscreenenter"",""1"",""1936""
","
","","","666","","","19","1280","568","&#9733;","elianto","#3366ff99","-1"," ","0","0","[1515.0000000001164]","1","1","","","1280","6","2","2","win","no-go","0","0"
"pit-trial","74","686887","0.0-10.0","battery-v0.2","","""event"",""trial"",""time""
""fullscreenenter"",""1"",""1936""
","
","
","""event"",""trial"",""time""
""fullscreenenter"",""1"",""1936""
","
","","","1793.9999999998836","","","19","1280","568","&#9728;","elianto","#f73b6a7A","-1"," ","0","-10","[2644.9999999998836]","1","1","","","1280","7","0","4","lose","no-go","0","0"
"pit-trial","75","691742","0.0-11.0","battery-v0.2","","""event"",""trial"",""time""
""fullscreenenter"",""1"",""1936""
","
","
","""event"",""trial"",""time""
""fullscreenenter"",""1"",""1936""
","
","","","-1","","","19","1280","568","&#9730;","elianto","#3366ff99"," ","-1","0","0","[]","0","1","","","1280","8","1","1","win","go","0","0"
"pit-trial","76","696598","0.0-12.0","battery-v0.2","","""event"",""trial"",""time""
""fullscreenenter"",""1"",""1936""
","
","
","""event"",""trial"",""time""
""fullscreenenter"",""1"",""1936""
","
","","","-1","","","19","1280","568","&#9752;","elianto","#f73b6a7A"," ","-1","0","-10","[]","0","1","","","1280","9","3","3","lose","go","0","0"
"pit-trial","77","700519","0.0-13.0","battery-v0.2","","""event"",""trial"",""time""
""fullscreenenter"",""1"",""1936""
","
","
","""event"",""trial"",""time""
""fullscreenenter"",""1"",""1936""
","
","","","1065","","","19","1280","568","&#9733;","elianto","#3366ff99","-1"," ","0","0","[1917]","1","1","","","1280","10","2","2","win","no-go","0","0"
"pit-trial","78","705374","0.0-14.0","battery-v0.2","","""event"",""trial"",""time""
""fullscreenenter"",""1"",""1936""
","
","
","""event"",""trial"",""time""
""fullscreenenter"",""1"",""1936""
","
","","","-1","","","19","1280","568","&#9728;","elianto","#f73b6a7A","-1","-1","1","0","[]","0","1","","","1280","11","0","4","lose","no-go","0","0"
"pit-trial","79","709165","0.0-15.0","battery-v0.2","","""event"",""trial"",""time""
""fullscreenenter"",""1"",""1936""
","
","
","""event"",""trial"",""time""
""fullscreenenter"",""1"",""1936""
","
","","","936.0000000001164","","","19","1280","568","&#9730;","elianto","#3366ff99"," "," ","1","+10","[1787.0000000001164]","1","1","","","1280","12","1","1","win","go","0","0"
"pit-trial","80","712972","0.0-16.0","battery-v0.2","","""event"",""trial"",""time""
""fullscreenenter"",""1"",""1936""
","
","
","""event"",""trial"",""time""
""fullscreenenter"",""1"",""1936""
","
","","","952","","","19","1280","568","&#9730;","elianto","#3366ff99"," "," ","1","0","[1802]","1","1","","","1280","13","1","1","win","go","1","0"
"pit-trial","81","717696","0.0-17.0","battery-v0.2","","""event"",""trial"",""time""
""fullscreenenter"",""1"",""1936""
","
","
","""event"",""trial"",""time""
""fullscreenenter"",""1"",""1936""
","
","","","1869","","","19","1280","568","&#9752;","elianto","#f73b6a7A"," "," ","1","0","[2719]","1","1","","","1280","14","3","3","lose","go","0","0"
"pit-trial","82","722550","0.0-18.0","battery-v0.2","","""event"",""trial"",""time""
""fullscreenenter"",""1"",""1936""
","
","
","""event"",""trial"",""time""
""fullscreenenter"",""1"",""1936""
","
","","","-1","","","19","1280","568","&#9733;","elianto","#3366ff99","-1","-1","1","0","[]","0","1","","","1280","15","2","2","win","no-go","1","0"
"pit-trial","83","727406","0.0-19.0","battery-v0.2","","""event"",""trial"",""time""
""fullscreenenter"",""1"",""1936""
","
","
","""event"",""trial"",""time""
""fullscreenenter"",""1"",""1936""
","
","","","-1","","","19","1280","568","&#9728;","elianto","#f73b6a7A","-1","-1","1","0","[]","0","1","","","1280","16","0","4","lose","no-go","0","0"
"pit-trial","84","732047","0.0-20.0","battery-v0.2","","""event"",""trial"",""time""
""fullscreenenter"",""1"",""1936""
","
","
","""event"",""trial"",""time""
""fullscreenenter"",""1"",""1936""
","
","","","1786","","","19","1280","568","&#9752;","elianto","#f73b6a7A"," "," ","1","0","[2637]","1","1","","","1280","17","3","3","lose","go","0","0"
"pit-trial","85","735774","0.0-21.0","battery-v0.2","","""event"",""trial"",""time""
""fullscreenenter"",""1"",""1936""
","
","
","""event"",""trial"",""time""
""fullscreenenter"",""1"",""1936""
","
","","","872","","","19","1280","568","&#9733;","elianto","#3366ff99","-1"," ","0","+10","[1723]","1","1","","","1280","18","2","2","win","no-go","1","0"
"pit-trial","86","740630","0.0-22.0","battery-v0.2","","""event"",""trial"",""time""
""fullscreenenter"",""1"",""1936""
","
","
","""event"",""trial"",""time""
""fullscreenenter"",""1"",""1936""
","
","","","-1","","","19","1280","568","&#9730;","elianto","#3366ff99"," ","-1","0","0","[]","0","1","","","1280","19","1","1","win","go","0","0"
"pit-trial","87","745486","0.0-23.0","battery-v0.2","","""event"",""trial"",""time""
""fullscreenenter"",""1"",""1936""
","
","
","""event"",""trial"",""time""
""fullscreenenter"",""1"",""1936""
","
","","","-1","","","19","1280","568","&#9728;","elianto","#f73b6a7A","-1","-1","1","0","[]","0","1","","","1280","20","0","4","lose","no-go","0","0"
"pit-instructions","88","757787","0.0-24.0","battery-v0.2","","""event"",""trial"",""time""
""fullscreenenter"",""1"",""1936""
","
","
","""event"",""trial"",""time""
""fullscreenenter"",""1"",""1936""
","
","","[{""page_index"":0,""viewing_time"":5543},{""page_index"":1,""viewing_time"":6755}]","12298","","","","","","","","","","","","","","","","","","","","","","","","",""
"pit-trial","89","761681","0.0-25.0","battery-v0.2","","""event"",""trial"",""time""
""fullscreenenter"",""1"",""1936""
","
","
","""event"",""trial"",""time""
""fullscreenenter"",""1"",""1936""
","
","","","1037","","","19","1280","568","g","elianto","#3366ff99"," "," ","1","0","[1888]","1","2","","","1280","21","3","1","win","go","1","0"
"pit-trial","90","765137","0.0-26.0","battery-v0.2","","""event"",""trial"",""time""
""fullscreenenter"",""1"",""1936""
","
","
","""event"",""trial"",""time""
""fullscreenenter"",""1"",""1936""
","
","","","599.9999999998836","","","19","1280","568","a","elianto","#f73b6a7A","-1"," ","0","-10","[1450.9999999998836]","1","2","","","1280","22","2","4","lose","no-go","0","0"
"pit-trial","91","768809","0.0-27.0","battery-v0.2","","""event"",""trial"",""time""
""fullscreenenter"",""1"",""1936""
","
","
","""event"",""trial"",""time""
""fullscreenenter"",""1"",""1936""
","
","","","816","","","19","1280","568","l","elianto","#f73b6a7A"," "," ","1","0","[1667]","1","2","","","1280","23","1","3","lose","go","0","0"
"pit-trial","92","772365","0.0-28.0","battery-v0.2","","""event"",""trial"",""time""
""fullscreenenter"",""1"",""1936""
","
","
","""event"",""trial"",""time""
""fullscreenenter"",""1"",""1936""
","
","","","702","","","19","1280","568","u","elianto","#3366ff99","-1"," ","0","0","[1552]","1","2","","","1280","24","0","2","win","no-go","0","0"
"pit-trial","93","775957","0.0-29.0","battery-v0.2","","""event"",""trial"",""time""
""fullscreenenter"",""1"",""1936""
","
","
","""event"",""trial"",""time""
""fullscreenenter"",""1"",""1936""
","
","","","735","","","19","1280","568","l","elianto","#f73b6a7A"," "," ","1","-10","[1587.9999999998836]","1","2","","","1280","25","1","3","lose","go","1","0"
"pit-trial","94","780459","0.0-30.0","battery-v0.2","","""event"",""trial"",""time""
""fullscreenenter"",""1"",""1936""
","
","
","""event"",""trial"",""time""
""fullscreenenter"",""1"",""1936""
","
","","","1646","","","19","1280","568","a","elianto","#f73b6a7A","-1"," ","0","-10","[2497]","1","2","","","1280","26","2","4","lose","no-go","0","0"
"pit-trial","95","785315","0.0-31.0","battery-v0.2","","""event"",""trial"",""time""
""fullscreenenter"",""1"",""1936""
","
","
","""event"",""trial"",""time""
""fullscreenenter"",""1"",""1936""
","
","","","-1","","","19","1280","568","g","elianto","#3366ff99"," ","-1","0","+10","[]","0","2","","","1280","27","3","1","win","go","1","0"
"pit-trial","96","790171","0.0-32.0","battery-v0.2","","""event"",""trial"",""time""
""fullscreenenter"",""1"",""1936""
","
","
","""event"",""trial"",""time""
""fullscreenenter"",""1"",""1936""
","
","","","-1","","","19","1280","568","u","elianto","#3366ff99","-1","-1","1","0","[]","0","2","","","1280","28","0","2","win","no-go","1","0"
"pit-trial","97","793773","0.0-33.0","battery-v0.2","","""event"",""trial"",""time""
""fullscreenenter"",""1"",""1936""
","
","
","""event"",""trial"",""time""
""fullscreenenter"",""1"",""1936""
","
","","","746.0000000001164","","","19","1280","568","u","elianto","#3366ff99","-1"," ","0","+10","[1597.0000000001164]","1","2","","","1280","29","0","2","win","no-go","1","0"
"pit-trial","98","798629","0.0-34.0","battery-v0.2","","""event"",""trial"",""time""
""fullscreenenter"",""1"",""1936""
","
","
","""event"",""trial"",""time""
""fullscreenenter"",""1"",""1936""
","
","","","-1","","","19","1280","568","a","elianto","#f73b6a7A","-1","-1","1","0","[]","0","2","","","1280","30","2","4","lose","no-go","0","0"
"pit-trial","99","802247","0.0-35.0","battery-v0.2","","""event"",""trial"",""time""
""fullscreenenter"",""1"",""1936""
","
","
","""event"",""trial"",""time""
""fullscreenenter"",""1"",""1936""
","
","","","762.9999999998836","","","19","1280","568","l","elianto","#f73b6a7A"," "," ","1","0","[1614]","1","2","","","1280","31","1","3","lose","go","0","0"
"pit-trial","100","807101","0.0-36.0","battery-v0.2","","""event"",""trial"",""time""
""fullscreenenter"",""1"",""1936""
","
","
","""event"",""trial"",""time""
""fullscreenenter"",""1"",""1936""
","
","","","-1","","","19","1280","568","g","elianto","#3366ff99"," ","-1","0","0","[]","0","2","","","1280","32","3","1","win","go","0","0"
"pit-trial","101","810631","0.0-37.0","battery-v0.2","","""event"",""trial"",""time""
""fullscreenenter"",""1"",""1936""
","
","
","""event"",""trial"",""time""
""fullscreenenter"",""1"",""1936""
","
","","","674","","","19","1280","568","u","elianto","#3366ff99","-1"," ","0","0","[1525]","1","2","","","1280","33","0","2","win","no-go","0","0"
"pit-trial","102","814289","0.0-38.0","battery-v0.2","","""event"",""trial"",""time""
""fullscreenenter"",""1"",""1936""
","
","
","""event"",""trial"",""time""
""fullscreenenter"",""1"",""1936""
","
","","","803","","","19","1280","568","l","elianto","#f73b6a7A"," "," ","1","-10","[1654]","1","2","","","1280","34","1","3","lose","go","1","0"
"pit-trial","103","819144","0.0-39.0","battery-v0.2","","""event"",""trial"",""time""
""fullscreenenter"",""1"",""1936""
","
","
","""event"",""trial"",""time""
""fullscreenenter"",""1"",""1936""
","
","","","-1","","","19","1280","568","g","elianto","#3366ff99"," ","-1","0","0","[]","0","2","","","1280","35","3","1","win","go","0","0"
"pit-trial","104","824000","0.0-40.0","battery-v0.2","","""event"",""trial"",""time""
""fullscreenenter"",""1"",""1936""
","
","
","""event"",""trial"",""time""
""fullscreenenter"",""1"",""1936""
","
","","","-1","","","19","1280","568","a","elianto","#f73b6a7A","-1","-1","1","0","[]","0","2","","","1280","36","2","4","lose","no-go","0","0"
"pit-trial","105","827522","0.0-41.0","battery-v0.2","","""event"",""trial"",""time""
""fullscreenenter"",""1"",""1936""
","
","
","""event"",""trial"",""time""
""fullscreenenter"",""1"",""1936""
","
","","","667","","","19","1280","568","l","elianto","#f73b6a7A"," "," ","1","0","[1517]","1","2","","","1280","37","1","3","lose","go","0","0"
"pit-trial","106","832378","0.0-42.0","battery-v0.2","","""event"",""trial"",""time""
""fullscreenenter"",""1"",""1936""
","
","
","""event"",""trial"",""time""
""fullscreenenter"",""1"",""1936""
","
","","","-1","","","19","1280","568","g","elianto","#3366ff99"," ","-1","0","0","[]","0","2","","","1280","38","3","1","win","go","0","0"
"pit-trial","107","836050","0.0-43.0","battery-v0.2","","""event"",""trial"",""time""
""fullscreenenter"",""1"",""1936""
","
","
","""event"",""trial"",""time""
""fullscreenenter"",""1"",""1936""
","
","","","817","","","19","1280","568","u","elianto","#3366ff99","-1"," ","0","0","[1668]","1","2","","","1280","39","0","2","win","no-go","0","0"
"pit-trial","108","840904","0.0-44.0","battery-v0.2","","""event"",""trial"",""time""
""fullscreenenter"",""1"",""1936""
","
","
","""event"",""trial"",""time""
""fullscreenenter"",""1"",""1936""
","
","","","-1","","","19","1280","568","a","elianto","#f73b6a7A","-1","-1","1","0","[]","0","2","","","1280","40","2","4","lose","no-go","0","0"
"pit-trial","109","844319","0.0-45.0","battery-v0.2","","""event"",""trial"",""time""
""fullscreenenter"",""1"",""1936""
","
","
","""event"",""trial"",""time""
""fullscreenenter"",""1"",""1936""
","
","","","560.9999999998836","","","19","1280","568","g","elianto","#3366ff99"," "," ","1","0","[1411]","1","2","","","1280","41","3","1","win","go","1","0"
"pit-trial","110","847872","0.0-46.0","battery-v0.2","","""event"",""trial"",""time""
""fullscreenenter"",""1"",""1936""
","
","
","""event"",""trial"",""time""
""fullscreenenter"",""1"",""1936""
","
","","","698","","","19","1280","568","l","elianto","#f73b6a7A"," "," ","1","0","[1549]","1","2","","","1280","42","1","3","lose","go","0","0"
"pit-trial","111","852256","0.0-47.0","battery-v0.2","","""event"",""trial"",""time""
""fullscreenenter"",""1"",""1936""
","
","
","""event"",""trial"",""time""
""fullscreenenter"",""1"",""1936""
","
","","","1530","","","19","1280","568","u","elianto","#3366ff99","-1"," ","0","0","[2380]","1","2","","","1280","43","0","2","win","no-go","0","0"
"pit-trial","112","857112","0.0-48.0","battery-v0.2","","""event"",""trial"",""time""
""fullscreenenter"",""1"",""1936""
","
","
","""event"",""trial"",""time""
""fullscreenenter"",""1"",""1936""
","
","","","-1","","","19","1280","568","a","elianto","#f73b6a7A","-1","-1","1","0","[]","0","2","","","1280","44","2","4","lose","no-go","0","0"
"pit-trial","113","861968","0.0-49.0","battery-v0.2","","""event"",""trial"",""time""
""fullscreenenter"",""1"",""1936""
","
","
","""event"",""trial"",""time""
""fullscreenenter"",""1"",""1936""
","
","","","-1","","","19","1280","568","u","elianto","#3366ff99","-1","-1","1","0","[]","0","2","","","1280","45","0","2","win","no-go","1","0"
"pit-trial","114","865541","0.0-50.0","battery-v0.2","","""event"",""trial"",""time""
""fullscreenenter"",""1"",""1936""
","
","
","""event"",""trial"",""time""
""fullscreenenter"",""1"",""1936""
","
","","","718","","","19","1280","568","g","elianto","#3366ff99"," "," ","1","+10","[1569]","1","2","","","1280","46","3","1","win","go","0","0"
"pit-trial","115","869085","0.0-51.0","battery-v0.2","","""event"",""trial"",""time""
""fullscreenenter"",""1"",""1936""
","
","
","""event"",""trial"",""time""
""fullscreenenter"",""1"",""1936""
","
","","","688","","","19","1280","568","l","elianto","#f73b6a7A"," "," ","1","0","[1538]","1","2","","","1280","47","1","3","lose","go","0","0"
"pit-trial","116","873940","0.0-52.0","battery-v0.2","","""event"",""trial"",""time""
""fullscreenenter"",""1"",""1936""
","
","
","""event"",""trial"",""time""
""fullscreenenter"",""1"",""1936""
","
","","","-1","","","19","1280","568","a","elianto","#f73b6a7A","-1","-1","1","0","[]","0","2","","","1280","48","2","4","lose","no-go","0","0"
"pit-trial","117","878794","0.0-53.0","battery-v0.2","","""event"",""trial"",""time""
""fullscreenenter"",""1"",""1936""
","
","
","""event"",""trial"",""time""
""fullscreenenter"",""1"",""1936""
","
","","","-1","","","19","1280","568","a","elianto","#f73b6a7A","-1","-1","1","0","[]","0","2","","","1280","49","2","4","lose","no-go","0","0"
"pit-trial","118","882493","0.0-54.0","battery-v0.2","","""event"",""trial"",""time""
""fullscreenenter"",""1"",""1936""
","
","
","""event"",""trial"",""time""
""fullscreenenter"",""1"",""1936""
","
","","","846","","","19","1280","568","l","elianto","#f73b6a7A"," "," ","1","-10","[1695.9999999998836]","1","2","","","1280","50","1","3","lose","go","1","0"
"pit-trial","119","887348","0.0-55.0","battery-v0.2","","""event"",""trial"",""time""
""fullscreenenter"",""1"",""1936""
","
","
","""event"",""trial"",""time""
""fullscreenenter"",""1"",""1936""
","
","","","-1","","","19","1280","568","u","elianto","#3366ff99","-1","-1","1","+10","[]","0","2","","","1280","51","0","2","win","no-go","0","0"
"pit-trial","120","890710","0.0-56.0","battery-v0.2","","""event"",""trial"",""time""
""fullscreenenter"",""1"",""1936""
","
","
","""event"",""trial"",""time""
""fullscreenenter"",""1"",""1936""
","
","","","507","","","19","1280","568","g","elianto","#3366ff99"," "," ","1","+10","[1357]","1","2","","","1280","52","3","1","win","go","0","0"
"pit-trial","121","895565","0.0-57.0","battery-v0.2","","""event"",""trial"",""time""
""fullscreenenter"",""1"",""1936""
","
","
","""event"",""trial"",""time""
""fullscreenenter"",""1"",""1936""
","
","","","-1","","","19","1280","568","p","elianto","#f73b6a7A"," ","-1","0","-10","[]","0","2","","","1280","53","4","3","lose","go","0","0"
"pit-trial","122","899534","0.0-58.0","battery-v0.2","","""event"",""trial"",""time""
""fullscreenenter"",""1"",""1936""
","
","
","""event"",""trial"",""time""
""fullscreenenter"",""1"",""1936""
","
","","","1113.0000000001164","","","19","1280","568","s","elianto","#f73b6a7A","-1"," ","0","-10","[1964.0000000001164]","1","2","","","1280","54","5","4","lose","no-go","0","0"
"pit-trial","123","903062","0.0-59.0","battery-v0.2","","""event"",""trial"",""time""
""fullscreenenter"",""1"",""1936""
","
","
","""event"",""trial"",""time""
""fullscreenenter"",""1"",""1936""
","
","","","673","","","19","1280","568","l","elianto","#f73b6a7A"," "," ","1","0","[1522.9999999998836]","1","2","","","1280","55","1","3","lose","go","0","0"
"pit-trial","124","907918","0.0-60.0","battery-v0.2","","""event"",""trial"",""time""
""fullscreenenter"",""1"",""1936""
","
","
","""event"",""trial"",""time""
""fullscreenenter"",""1"",""1936""
","
","","","-1","","","19","1280","568","a","elianto","#f73b6a7A","-1","-1","1","0","[]","0","2","","","1280","56","2","4","lose","no-go","0","0"
"pit-trial","125","912774","0.0-61.0","battery-v0.2","","""event"",""trial"",""time""
""fullscreenenter"",""1"",""1936""
","
","
","""event"",""trial"",""time""
""fullscreenenter"",""1"",""1936""
","
","","","-1","","","19","1280","568","s","elianto","#f73b6a7A","-1","-1","1","-10","[]","0","2","","","1280","57","5","4","lose","no-go","1","0"
"pit-trial","126","916198","0.0-62.0","battery-v0.2","","""event"",""trial"",""time""
""fullscreenenter"",""1"",""1936""
","
","
","""event"",""trial"",""time""
""fullscreenenter"",""1"",""1936""
","
","","","568.0000000001164","","","19","1280","568","p","elianto","#f73b6a7A"," "," ","1","0","[1419.0000000001164]","1","2","","","1280","58","4","3","lose","go","0","0"
"pit-trial","127","919814","0.0-63.0","battery-v0.2","","""event"",""trial"",""time""
""fullscreenenter"",""1"",""1936""
","
","
","""event"",""trial"",""time""
""fullscreenenter"",""1"",""1936""
","
","","","762","","","19","1280","568","l","elianto","#f73b6a7A"," "," ","1","-10","[1612]","1","2","","","1280","59","1","3","lose","go","1","0"
"pit-trial","128","924669","0.0-64.0","battery-v0.2","","""event"",""trial"",""time""
""fullscreenenter"",""1"",""1936""
","
","
","""event"",""trial"",""time""
""fullscreenenter"",""1"",""1936""
","
","","","-1","","","19","1280","568","a","elianto","#f73b6a7A","-1","-1","1","0","[]","0","2","","","1280","60","2","4","lose","no-go","0","0"
"pit-trial","129","928295","0.0-65.0","battery-v0.2","","""event"",""trial"",""time""
""fullscreenenter"",""1"",""1936""
","
","
","""event"",""trial"",""time""
""fullscreenenter"",""1"",""1936""
","
","","","771.0000000001164","","","19","1280","568","p","elianto","#f73b6a7A"," "," ","1","-10","[1621.0000000001164]","1","2","","","1280","61","4","3","lose","go","1","0"
"pit-trial","130","932134","0.0-66.0","battery-v0.2","","""event"",""trial"",""time""
""fullscreenenter"",""1"",""1936""
","
","
","""event"",""trial"",""time""
""fullscreenenter"",""1"",""1936""
","
","","","983.9999999998836","","","19","1280","568","w","elianto","#3366ff99","-1"," ","0","0","[1834.9999999998836]","1","2","","","1280","62","6","2","win","no-go","0","0"
"pit-trial","131","936990","0.0-67.0","battery-v0.2","","""event"",""trial"",""time""
""fullscreenenter"",""1"",""1936""
","
","
","""event"",""trial"",""time""
""fullscreenenter"",""1"",""1936""
","
","","","-1","","","19","1280","568","a","elianto","#f73b6a7A","-1","-1","1","0","[]","0","2","","","1280","63","2","4","lose","no-go","0","0"
"pit-trial","132","941846","0.0-68.0","battery-v0.2","","""event"",""trial"",""time""
""fullscreenenter"",""1"",""1936""
","
","
","""event"",""trial"",""time""
""fullscreenenter"",""1"",""1936""
","
","","","-1","","","19","1280","568","s","elianto","#f73b6a7A","-1","-1","1","-10","[]","0","2","","","1280","64","5","4","lose","no-go","1","0"
"pit-trial","133","946702","0.0-69.0","battery-v0.2","","""event"",""trial"",""time""
""fullscreenenter"",""1"",""1936""
","
","
","""event"",""trial"",""time""
""fullscreenenter"",""1"",""1936""
","
","","","-1","","","19","1280","568","a","elianto","#f73b6a7A","-1","-1","1","0","[]","0","2","","","1280","65","2","4","lose","no-go","0","0"
"pit-trial","134","951558","0.0-70.0","battery-v0.2","","""event"",""trial"",""time""
""fullscreenenter"",""1"",""1936""
","
","
","""event"",""trial"",""time""
""fullscreenenter"",""1"",""1936""
","
","","","-1","","","19","1280","568","s","elianto","#f73b6a7A","-1","-1","1","0","[]","0","2","","","1280","66","5","4","lose","no-go","0","0"
"pit-trial","135","954935","0.0-71.0","battery-v0.2","","""event"",""trial"",""time""
""fullscreenenter"",""1"",""1936""
","
","
","""event"",""trial"",""time""
""fullscreenenter"",""1"",""1936""
","
","","","522","","","19","1280","568","p","elianto","#f73b6a7A"," "," ","1","0","[1373]","1","2","","","1280","67","4","3","lose","go","0","0"
"pit-trial","136","959422","0.0-72.0","battery-v0.2","","""event"",""trial"",""time""
""fullscreenenter"",""1"",""1936""
","
","
","""event"",""trial"",""time""
""fullscreenenter"",""1"",""1936""
","
","","","1632.9999999998836","","","19","1280","568","w","elianto","#3366ff99","-1"," ","0","0","[2483]","1","2","","","1280","68","6","2","win","no-go","0","0"
"pit-trial","137","964277","0.0-73.0","battery-v0.2","","""event"",""trial"",""time""
""fullscreenenter"",""1"",""1936""
","
","
","""event"",""trial"",""time""
""fullscreenenter"",""1"",""1936""
","
","","","-1","","","19","1280","568","w","elianto","#3366ff99","-1","-1","1","+10","[]","0","2","","","1280","69","6","2","win","no-go","0","0"
"pit-trial","138","969133","0.0-74.0","battery-v0.2","","""event"",""trial"",""time""
""fullscreenenter"",""1"",""1936""
","
","
","""event"",""trial"",""time""
""fullscreenenter"",""1"",""1936""
","
","","","-1","","","19","1280","568","s","elianto","#f73b6a7A","-1","-1","1","-10","[]","0","2","","","1280","70","5","4","lose","no-go","1","0"
"pit-trial","139","972624","0.0-75.0","battery-v0.2","","""event"",""trial"",""time""
""fullscreenenter"",""1"",""1936""
","
","
","""event"",""trial"",""time""
""fullscreenenter"",""1"",""1936""
","
","","","636","","","19","1280","568","p","elianto","#f73b6a7A"," "," ","1","-10","[1487]","1","2","","","1280","71","4","3","lose","go","1","0"
"pit-trial","140","977479","0.0-76.0","battery-v0.2","","""event"",""trial"",""time""
""fullscreenenter"",""1"",""1936""
","
","
","""event"",""trial"",""time""
""fullscreenenter"",""1"",""1936""
","
","","","-1","","","19","1280","568","e","elianto","#3366ff99"," ","-1","0","0","[3082]","1","2","","","1280","72","7","1","win","go","0","0"
"pit-trial","141","981046","0.0-77.0","battery-v0.2","","""event"",""trial"",""time""
""fullscreenenter"",""1"",""1936""
","
","
","""event"",""trial"",""time""
""fullscreenenter"",""1"",""1936""
","
","","","712","","","19","1280","568","p","elianto","#f73b6a7A"," "," ","1","0","[1562]","1","2","","","1280","73","4","3","lose","go","0","0"
"pit-trial","142","985902","0.0-78.0","battery-v0.2","","""event"",""trial"",""time""
""fullscreenenter"",""1"",""1936""
","
","
","""event"",""trial"",""time""
""fullscreenenter"",""1"",""1936""
","
","","","-1","","","19","1280","568","w","elianto","#3366ff99","-1","-1","1","+10","[]","0","2","","","1280","74","6","2","win","no-go","0","0"
"pit-trial","143","989945","0.0-79.0","battery-v0.2","","""event"",""trial"",""time""
""fullscreenenter"",""1"",""1936""
","
","
","""event"",""trial"",""time""
""fullscreenenter"",""1"",""1936""
","
","","","1188","","","19","1280","568","e","elianto","#3366ff99"," "," ","1","+10","[2039]","1","2","","","1280","75","7","1","win","go","0","0"
"pit-trial","144","994800","0.0-80.0","battery-v0.2","","""event"",""trial"",""time""
""fullscreenenter"",""1"",""1936""
","
","
","""event"",""trial"",""time""
""fullscreenenter"",""1"",""1936""
","
","","","-1","","","19","1280","568","s","elianto","#f73b6a7A","-1","-1","1","0","[]","0","2","","","1280","76","5","4","lose","no-go","0","0"
"pit-trial","145","998189","0.0-81.0","battery-v0.2","","""event"",""trial"",""time""
""fullscreenenter"",""1"",""1936""
","
","
","""event"",""trial"",""time""
""fullscreenenter"",""1"",""1936""
","
","","","533.0000000001164","","","19","1280","568","p","elianto","#f73b6a7A"," "," ","1","-10","[1385.0000000001164]","1","2","","","1280","77","4","3","lose","go","1","0"
"pit-trial","146","1003043","0.0-82.0","battery-v0.2","","""event"",""trial"",""time""
""fullscreenenter"",""1"",""1936""
","
","
","""event"",""trial"",""time""
""fullscreenenter"",""1"",""1936""
","
","","","-1","","","19","1280","568","w","elianto","#3366ff99","-1","-1","1","+10","[]","0","2","","","1280","78","6","2","win","no-go","0","0"
"pit-trial","147","1006372","0.0-83.0","battery-v0.2","","""event"",""trial"",""time""
""fullscreenenter"",""1"",""1936""
","
","
","""event"",""trial"",""time""
""fullscreenenter"",""1"",""1936""
","
","","","473","","","19","1280","568","e","elianto","#3366ff99"," "," ","1","+10","[1324]","1","2","","","1280","79","7","1","win","go","0","0"
"pit-trial","148","1011227","0.0-84.0","battery-v0.2","","""event"",""trial"",""time""
""fullscreenenter"",""1"",""1936""
","
","
","""event"",""trial"",""time""
""fullscreenenter"",""1"",""1936""
","
","","","-1","","","19","1280","568","s","elianto","#f73b6a7A","-1","-1","1","0","[]","0","2","","","1280","80","5","4","lose","no-go","0","0"
"pit-trial","149","1016081","0.0-85.0","battery-v0.2","","""event"",""trial"",""time""
""fullscreenenter"",""1"",""1936""
","
","
","""event"",""trial"",""time""
""fullscreenenter"",""1"",""1936""
","
","","","-1","","","19","1280","568","s","elianto","#f73b6a7A","-1","-1","1","0","[]","0","2","","","1280","81","5","4","lose","no-go","0","0"
"pit-trial","150","1020937","0.0-86.0","battery-v0.2","","""event"",""trial"",""time""
""fullscreenenter"",""1"",""1936""
","
","
","""event"",""trial"",""time""
""fullscreenenter"",""1"",""1936""
","
","","","-1","","","19","1280","568","w","elianto","#3366ff99","-1","-1","1","+10","[]","0","2","","","1280","82","6","2","win","no-go","0","0"
"pit-trial","151","1024437","0.0-87.0","battery-v0.2","","""event"",""trial"",""time""
""fullscreenenter"",""1"",""1936""
","
","
","""event"",""trial"",""time""
""fullscreenenter"",""1"",""1936""
","
","","","645.0000000002328","","","19","1280","568","e","elianto","#3366ff99"," "," ","1","+10","[1496.0000000001164]","1","2","","","1280","83","7","1","win","go","0","0"
"pit-trial","152","1028237","0.0-88.0","battery-v0.2","","""event"",""trial"",""time""
""fullscreenenter"",""1"",""1936""
","
","
","""event"",""trial"",""time""
""fullscreenenter"",""1"",""1936""
","
","","","946.0000000002328","","","19","1280","568","p","elianto","#f73b6a7A"," "," ","1","0","[1795.0000000001164]","1","2","","","1280","84","4","3","lose","go","0","0"
"pit-trial","153","1033093","0.0-89.0","battery-v0.2","","""event"",""trial"",""time""
""fullscreenenter"",""1"",""1936""
","
","
","""event"",""trial"",""time""
""fullscreenenter"",""1"",""1936""
","
","","","-1","","","19","1280","568","p","elianto","#f73b6a7A"," ","-1","0","-10","[3011.9999999998836]","1","2","","","1280","85","4","3","lose","go","0","0"
"pit-trial","154","1037949","0.0-90.0","battery-v0.2","","""event"",""trial"",""time""
""fullscreenenter"",""1"",""1936""
","
","
","""event"",""trial"",""time""
""fullscreenenter"",""1"",""1936""
","
","","","-1","","","19","1280","568","s","elianto","#f73b6a7A","-1","-1","1","0","[]","0","2","","","1280","86","5","4","lose","no-go","0","0"
"pit-trial","155","1041441","0.0-91.0","battery-v0.2","","""event"",""trial"",""time""
""fullscreenenter"",""1"",""1936""
","
","
","""event"",""trial"",""time""
""fullscreenenter"",""1"",""1936""
","
","","","636.9999999998836","","","19","1280","568","e","elianto","#3366ff99"," "," ","1","+10","[1487]","1","2","","","1280","87","7","1","win","go","0","0"
"pit-trial","156","1046297","0.0-92.0","battery-v0.2","","""event"",""trial"",""time""
""fullscreenenter"",""1"",""1936""
","
","
","""event"",""trial"",""time""
""fullscreenenter"",""1"",""1936""
","
","","","-1","","","19","1280","568","w","elianto","#3366ff99","-1","-1","1","+10","[]","0","2","","","1280","88","6","2","win","no-go","0","0"
"pit-trial","157","1051152","0.0-93.0","battery-v0.2","","""event"",""trial"",""time""
""fullscreenenter"",""1"",""1936""
","
","
","""event"",""trial"",""time""
""fullscreenenter"",""1"",""1936""
","
","","","-1","","","19","1280","568","w","elianto","#3366ff99","-1","-1","1","+10","[]","0","2","","","1280","89","6","2","win","no-go","0","0"
"pit-trial","158","1056006","0.0-94.0","battery-v0.2","","""event"",""trial"",""time""
""fullscreenenter"",""1"",""1936""
","
","
","""event"",""trial"",""time""
""fullscreenenter"",""1"",""1936""
","
","","","-1","","","19","1280","568","s","elianto","#f73b6a7A","-1","-1","1","0","[]","0","2","","","1280","90","5","4","lose","no-go","0","0"
"pit-trial","159","1059459","0.0-95.0","battery-v0.2","","""event"",""trial"",""time""
""fullscreenenter"",""1"",""1936""
","
","
","""event"",""trial"",""time""
""fullscreenenter"",""1"",""1936""
","
","","","598","","","19","1280","568","p","elianto","#f73b6a7A"," "," ","1","-10","[1448]","1","2","","","1280","91","4","3","lose","go","1","0"
"pit-trial","160","1063010","0.0-96.0","battery-v0.2","","""event"",""trial"",""time""
""fullscreenenter"",""1"",""1936""
","
","
","""event"",""trial"",""time""
""fullscreenenter"",""1"",""1936""
","
","","","696","","","19","1280","568","e","elianto","#3366ff99"," "," ","1","+10","[1548]","1","2","","","1280","92","7","1","win","go","0","0"
"pit-trial","161","1066458","0.0-97.0","battery-v0.2","","""event"",""trial"",""time""
""fullscreenenter"",""1"",""1936""
","
","
","""event"",""trial"",""time""
""fullscreenenter"",""1"",""1936""
","
","","","593","","","19","1280","568","p","elianto","#f73b6a7A"," "," ","1","0","[1443.0000000002328]","1","2","","","1280","93","4","3","lose","go","0","0"
"pit-trial","162","1071314","0.0-98.0","battery-v0.2","","""event"",""trial"",""time""
""fullscreenenter"",""1"",""1936""
","
","
","""event"",""trial"",""time""
""fullscreenenter"",""1"",""1936""
","
","","","-1","","","19","1280","568","w","elianto","#3366ff99","-1","-1","1","+10","[]","0","2","","","1280","94","6","2","win","no-go","0","0"
"pit-trial","163","1074909","0.0-99.0","battery-v0.2","","""event"",""trial"",""time""
""fullscreenenter"",""1"",""1936""
","
","
","""event"",""trial"",""time""
""fullscreenenter"",""1"",""1936""
","
","","","674","","","19","1280","568","e","elianto","#3366ff99"," "," ","1","+10","[1525]","1","2","","","1280","95","7","1","win","go","0","0"
"pit-trial","164","1078821","0.0-100.0","battery-v0.2","","""event"",""trial"",""time""
""fullscreenenter"",""1"",""1936""
","
","
","""event"",""trial"",""time""
""fullscreenenter"",""1"",""1936""
","
","","","1057","","","19","1280","568","k","elianto","#3366ff99"," "," ","1","0","[1908]","1","2","","","1280","96","8","1","win","go","1","0"
"pit-trial","165","1083676","0.0-101.0","battery-v0.2","","""event"",""trial"",""time""
""fullscreenenter"",""1"",""1936""
","
","
","""event"",""trial"",""time""
""fullscreenenter"",""1"",""1936""
","
","","","-1","","","19","1280","568","k","elianto","#3366ff99"," ","-1","0","0","[]","0","2","","","1280","97","8","1","win","go","0","0"
"pit-trial","166","1087212","0.0-102.0","battery-v0.2","","""event"",""trial"",""time""
""fullscreenenter"",""1"",""1936""
","
","
","""event"",""trial"",""time""
""fullscreenenter"",""1"",""1936""
","
","","","682","","","19","1280","568","e","elianto","#3366ff99"," "," ","1","+10","[1532]","1","2","","","1280","98","7","1","win","go","0","0"
"pit-trial","167","1092067","0.0-103.0","battery-v0.2","","""event"",""trial"",""time""
""fullscreenenter"",""1"",""1936""
","
","
","""event"",""trial"",""time""
""fullscreenenter"",""1"",""1936""
","
","","","-1","","","19","1280","568","w","elianto","#3366ff99","-1","-1","1","+10","[]","0","2","","","1280","99","6","2","win","no-go","0","0"
"pit-trial","168","1095766","0.0-104.0","battery-v0.2","","""event"",""trial"",""time""
""fullscreenenter"",""1"",""1936""
","
","
","""event"",""trial"",""time""
""fullscreenenter"",""1"",""1936""
","
","","","844","","","19","1280","568","p","elianto","#f73b6a7A"," "," ","1","0","[1693.0000000002328]","1","2","","","1280","100","4","3","lose","go","0","0"
"pit-trial","169","1099397","0.0-105.0","battery-v0.2","","""event"",""trial"",""time""
""fullscreenenter"",""1"",""1936""
","
","
","""event"",""trial"",""time""
""fullscreenenter"",""1"",""1936""
","
","","","776.9999999997672","","","19","1280","568","e","elianto","#3366ff99"," "," ","1","+10","[1628]","1","2","","","1280","101","7","1","win","go","0","0"
"pit-trial","170","1103046","0.0-106.0","battery-v0.2","","""event"",""trial"",""time""
""fullscreenenter"",""1"",""1936""
","
","
","""event"",""trial"",""time""
""fullscreenenter"",""1"",""1936""
","
","","","793","","","19","1280","568","k","elianto","#3366ff99"," "," ","1","+10","[1643]","1","2","","","1280","102","8","1","win","go","0","0"
"pit-trial","171","1107005","0.0-107.0","battery-v0.2","","""event"",""trial"",""time""
""fullscreenenter"",""1"",""1936""
","
","
","""event"",""trial"",""time""
""fullscreenenter"",""1"",""1936""
","
","","","1104.9999999997672","","","19","1280","568","d","elianto","#3366ff99","-1"," ","0","0","[1955]","1","2","","","1280","103","9","2","win","no-go","0","0"
"pit-trial","172","1111861","0.0-108.0","battery-v0.2","","""event"",""trial"",""time""
""fullscreenenter"",""1"",""1936""
","
","
","""event"",""trial"",""time""
""fullscreenenter"",""1"",""1936""
","
","","","-1","","","19","1280","568","w","elianto","#3366ff99","-1","-1","1","0","[]","0","2","","","1280","104","6","2","win","no-go","1","0"
"pit-trial","173","1115269","0.0-109.0","battery-v0.2","","""event"",""trial"",""time""
""fullscreenenter"",""1"",""1936""
","
","
","""event"",""trial"",""time""
""fullscreenenter"",""1"",""1936""
","
","","","554","","","19","1280","568","k","elianto","#3366ff99"," "," ","1","+10","[1404]","1","2","","","1280","105","8","1","win","go","0","0"
"pit-trial","174","1119038","0.0-110.0","battery-v0.2","","""event"",""trial"",""time""
""fullscreenenter"",""1"",""1936""
","
","
","""event"",""trial"",""time""
""fullscreenenter"",""1"",""1936""
","
","","","914","","","19","1280","568","e","elianto","#3366ff99"," "," ","1","+10","[1765]","1","2","","","1280","106","7","1","win","go","0","0"
"pit-trial","175","1123894","0.0-111.0","battery-v0.2","","""event"",""trial"",""time""
""fullscreenenter"",""1"",""1936""
","
","
","""event"",""trial"",""time""
""fullscreenenter"",""1"",""1936""
","
","","","-1","","","19","1280","568","w","elianto","#3366ff99","-1","-1","1","0","[]","0","2","","","1280","107","6","2","win","no-go","1","0"
"pit-trial","176","1128750","0.0-112.0","battery-v0.2","","""event"",""trial"",""time""
""fullscreenenter"",""1"",""1936""
","
","
","""event"",""trial"",""time""
""fullscreenenter"",""1"",""1936""
","
","","","-1","","","19","1280","568","d","elianto","#3366ff99","-1","-1","1","+10","[]","0","2","","","1280","108","9","2","win","no-go","0","0"
"pit-trial","177","1132718","0.0-113.0","battery-v0.2","","""event"",""trial"",""time""
""fullscreenenter"",""1"",""1936""
","
","
","""event"",""trial"",""time""
""fullscreenenter"",""1"",""1936""
","
","","","1113","","","19","1280","568","v","elianto","#f73b6a7A","-1"," ","0","-10","[1965]","1","2","","","1280","109","11","4","lose","no-go","0","0"
"pit-trial","178","1136414","0.0-114.0","battery-v0.2","","""event"",""trial"",""time""
""fullscreenenter"",""1"",""1936""
","
","
","""event"",""trial"",""time""
""fullscreenenter"",""1"",""1936""
","
","","","839.9999999997672","","","19","1280","568","j","elianto","#f73b6a7A"," "," ","1","0","[1691]","1","2","","","1280","110","10","3","lose","go","0","0"
"pit-trial","179","1140359","0.0-115.0","battery-v0.2","","""event"",""trial"",""time""
""fullscreenenter"",""1"",""1936""
","
","
","""event"",""trial"",""time""
""fullscreenenter"",""1"",""1936""
","
","","","1089","","","19","1280","568","k","elianto","#3366ff99"," "," ","1","+10","[1940]","1","2","","","1280","111","8","1","win","go","0","0"
"pit-trial","180","1145215","0.0-116.0","battery-v0.2","","""event"",""trial"",""time""
""fullscreenenter"",""1"",""1936""
","
","
","""event"",""trial"",""time""
""fullscreenenter"",""1"",""1936""
","
","","","-1","","","19","1280","568","d","elianto","#3366ff99","-1","-1","1","0","[]","0","2","","","1280","112","9","2","win","no-go","1","0"
"pit-trial","181","1150069","0.0-117.0","battery-v0.2","","""event"",""trial"",""time""
""fullscreenenter"",""1"",""1936""
","
","
","""event"",""trial"",""time""
""fullscreenenter"",""1"",""1936""
","
","","","-1","","","19","1280","568","d","elianto","#3366ff99","-1","-1","1","+10","[]","0","2","","","1280","113","9","2","win","no-go","0","0"
"pit-trial","182","1153583","0.0-118.0","battery-v0.2","","""event"",""trial"",""time""
""fullscreenenter"",""1"",""1936""
","
","
","""event"",""trial"",""time""
""fullscreenenter"",""1"",""1936""
","
","","","659","","","19","1280","568","k","elianto","#3366ff99"," "," ","1","+10","[1509]","1","2","","","1280","114","8","1","win","go","0","0"
"pit-trial","183","1158439","0.0-119.0","battery-v0.2","","""event"",""trial"",""time""
""fullscreenenter"",""1"",""1936""
","
","
","""event"",""trial"",""time""
""fullscreenenter"",""1"",""1936""
","
","","","-1","","","19","1280","568","v","elianto","#f73b6a7A","-1","-1","1","0","[]","0","2","","","1280","115","11","4","lose","no-go","0","0"
"pit-trial","184","1162487","0.0-120.0","battery-v0.2","","""event"",""trial"",""time""
""fullscreenenter"",""1"",""1936""
","
","
","""event"",""trial"",""time""
""fullscreenenter"",""1"",""1936""
","
","","","1194.0000000002328","","","19","1280","568","j","elianto","#f73b6a7A"," "," ","1","0","[2045.0000000002328]","1","2","","","1280","116","10","3","lose","go","0","0"
"pit-trial","185","1166079","0.0-121.0","battery-v0.2","","""event"",""trial"",""time""
""fullscreenenter"",""1"",""1936""
","
","
","""event"",""trial"",""time""
""fullscreenenter"",""1"",""1936""
","
","","","736","","","19","1280","568","j","elianto","#f73b6a7A"," "," ","1","0","[1587]","1","2","","","1280","117","10","3","lose","go","0","0"
"pit-trial","186","1170934","0.0-122.0","battery-v0.2","","""event"",""trial"",""time""
""fullscreenenter"",""1"",""1936""
","
","
","""event"",""trial"",""time""
""fullscreenenter"",""1"",""1936""
","
","","","-1","","","19","1280","568","v","elianto","#f73b6a7A","-1","-1","1","0","[]","0","2","","","1280","118","11","4","lose","no-go","0","0"
"pit-trial","187","1175792","0.0-123.0","battery-v0.2","","""event"",""trial"",""time""
""fullscreenenter"",""1"",""1936""
","
","
","""event"",""trial"",""time""
""fullscreenenter"",""1"",""1936""
","
","","","-1","","","19","1280","568","d","elianto","#3366ff99","-1","-1","1","0","[]","0","2","","","1280","119","9","2","win","no-go","1","0"
"pit-trial","188","1179352","0.0-124.0","battery-v0.2","","""event"",""trial"",""time""
""fullscreenenter"",""1"",""1936""
","
","
","""event"",""trial"",""time""
""fullscreenenter"",""1"",""1936""
","
","","","705","","","19","1280","568","k","elianto","#3366ff99"," "," ","1","+10","[1555.9999999997672]","1","2","","","1280","120","8","1","win","go","0","0"
"pit-trial","189","1182768","0.0-125.0","battery-v0.2","","""event"",""trial"",""time""
""fullscreenenter"",""1"",""1936""
","
","
","""event"",""trial"",""time""
""fullscreenenter"",""1"",""1936""
","
","","","561","","","19","1280","568","k","elianto","#3366ff99"," "," ","1","+10","[1412]","1","2","","","1280","121","8","1","win","go","0","0"
"pit-trial","190","1187623","0.0-126.0","battery-v0.2","","""event"",""trial"",""time""
""fullscreenenter"",""1"",""1936""
","
","
","""event"",""trial"",""time""
""fullscreenenter"",""1"",""1936""
","
","","","-1","","","19","1280","568","v","elianto","#f73b6a7A","-1","-1","1","0","[]","0","2","","","1280","122","11","4","lose","no-go","0","0"
"pit-trial","191","1191241","0.0-127.0","battery-v0.2","","""event"",""trial"",""time""
""fullscreenenter"",""1"",""1936""
","
","
","""event"",""trial"",""time""
""fullscreenenter"",""1"",""1936""
","
","","","762","","","19","1280","568","j","elianto","#f73b6a7A"," "," ","1","0","[1613]","1","2","","","1280","123","10","3","lose","go","0","0"
"pit-trial","192","1196096","0.0-128.0","battery-v0.2","","""event"",""trial"",""time""
""fullscreenenter"",""1"",""1936""
","
","
","""event"",""trial"",""time""
""fullscreenenter"",""1"",""1936""
","
","","","-1","","","19","1280","568","d","elianto","#3366ff99","-1","-1","1","+10","[]","0","2","","","1280","124","9","2","win","no-go","0","0"
"pit-trial","193","1199913","0.0-129.0","battery-v0.2","","""event"",""trial"",""time""
""fullscreenenter"",""1"",""1936""
","
","
","""event"",""trial"",""time""
""fullscreenenter"",""1"",""1936""
","
","","","961","","","19","1280","568","j","elianto","#f73b6a7A"," "," ","1","0","[1813]","1","2","","","1280","125","10","3","lose","go","0","0"
"pit-trial","194","1204768","0.0-130.0","battery-v0.2","","""event"",""trial"",""time""
""fullscreenenter"",""1"",""1936""
","
","
","""event"",""trial"",""time""
""fullscreenenter"",""1"",""1936""
","
","","","-1","","","19","1280","568","d","elianto","#3366ff99","-1","-1","1","+10","[]","0","2","","","1280","126","9","2","win","no-go","0","0"
"pit-trial","195","1209624","0.0-131.0","battery-v0.2","","""event"",""trial"",""time""
""fullscreenenter"",""1"",""1936""
","
","
","""event"",""trial"",""time""
""fullscreenenter"",""1"",""1936""
","
","","","-1","","","19","1280","568","v","elianto","#f73b6a7A","-1","-1","1","0","[]","0","2","","","1280","127","11","4","lose","no-go","0","0"
"pit-trial","196","1213329","0.0-132.0","battery-v0.2","","""event"",""trial"",""time""
""fullscreenenter"",""1"",""1936""
","
","
","""event"",""trial"",""time""
""fullscreenenter"",""1"",""1936""
","
","","","850","","","19","1280","568","k","elianto","#3366ff99"," "," ","1","+10","[1701]","1","2","","","1280","128","8","1","win","go","0","0"
"pit-trial","197","1218184","0.0-133.0","battery-v0.2","","""event"",""trial"",""time""
""fullscreenenter"",""1"",""1936""
","
","
","""event"",""trial"",""time""
""fullscreenenter"",""1"",""1936""
","
","","","-1","","","19","1280","568","d","elianto","#3366ff99","-1","-1","1","0","[]","0","2","","","1280","129","9","2","win","no-go","1","0"
"pit-trial","198","1223040","0.0-134.0","battery-v0.2","","""event"",""trial"",""time""
""fullscreenenter"",""1"",""1936""
","
","
","""event"",""trial"",""time""
""fullscreenenter"",""1"",""1936""
","
","","","-1","","","19","1280","568","v","elianto","#f73b6a7A","-1","-1","1","0","[]","0","2","","","1280","130","11","4","lose","no-go","0","0"
"pit-trial","199","1226553","0.0-135.0","battery-v0.2","","""event"",""trial"",""time""
""fullscreenenter"",""1"",""1936""
","
","
","""event"",""trial"",""time""
""fullscreenenter"",""1"",""1936""
","
","","","659","","","19","1280","568","k","elianto","#3366ff99"," "," ","1","+10","[1509]","1","2","","","1280","131","8","1","win","go","0","0"
"pit-trial","200","1230057","0.0-136.0","battery-v0.2","","""event"",""trial"",""time""
""fullscreenenter"",""1"",""1936""
","
","
","""event"",""trial"",""time""
""fullscreenenter"",""1"",""1936""
","
","","","648","","","19","1280","568","j","elianto","#f73b6a7A"," "," ","1","0","[1498.9999999997672]","1","2","","","1280","132","10","3","lose","go","0","0"
"pit-trial","201","1233578","0.0-137.0","battery-v0.2","","""event"",""trial"",""time""
""fullscreenenter"",""1"",""1936""
","
","
","""event"",""trial"",""time""
""fullscreenenter"",""1"",""1936""
","
","","","664","","","19","1280","568","k","elianto","#3366ff99"," "," ","1","+10","[1516.0000000002328]","1","2","","","1280","133","8","1","win","go","0","0"
"pit-trial","202","1238433","0.0-138.0","battery-v0.2","","""event"",""trial"",""time""
""fullscreenenter"",""1"",""1936""
","
","
","""event"",""trial"",""time""
""fullscreenenter"",""1"",""1936""
","
","","","-1","","","19","1280","568","v","elianto","#f73b6a7A","-1","-1","1","0","[]","0","2","","","1280","134","11","4","lose","no-go","0","0"
"pit-trial","203","1243288","0.0-139.0","battery-v0.2","","""event"",""trial"",""time""
""fullscreenenter"",""1"",""1936""
","
","
","""event"",""trial"",""time""
""fullscreenenter"",""1"",""1936""
","
","","","-1","","","19","1280","568","d","elianto","#3366ff99","-1","-1","1","+10","[]","0","2","","","1280","135","9","2","win","no-go","0","0"
"pit-trial","204","1246706","0.0-140.0","battery-v0.2","","""event"",""trial"",""time""
""fullscreenenter"",""1"",""1936""
","
","
","""event"",""trial"",""time""
""fullscreenenter"",""1"",""1936""
","
","","","563","","","19","1280","568","j","elianto","#f73b6a7A"," "," ","1","0","[1414]","1","2","","","1280","136","10","3","lose","go","0","0"
"pit-trial","205","1251561","0.0-141.0","battery-v0.2","","""event"",""trial"",""time""
""fullscreenenter"",""1"",""1936""
","
","
","""event"",""trial"",""time""
""fullscreenenter"",""1"",""1936""
","
","","","-1","","","19","1280","568","d","elianto","#3366ff99","-1","-1","1","+10","[]","0","2","","","1280","137","9","2","win","no-go","0","0"
"pit-trial","206","1255114","0.0-142.0","battery-v0.2","","""event"",""trial"",""time""
""fullscreenenter"",""1"",""1936""
","
","
","""event"",""trial"",""time""
""fullscreenenter"",""1"",""1936""
","
","","","697","","","19","1280","568","j","elianto","#f73b6a7A"," "," ","1","0","[1548]","1","2","","","1280","138","10","3","lose","go","0","0"
"pit-trial","207","1259970","0.0-143.0","battery-v0.2","","""event"",""trial"",""time""
""fullscreenenter"",""1"",""1936""
","
","
","""event"",""trial"",""time""
""fullscreenenter"",""1"",""1936""
","
","","","-1","","","19","1280","568","v","elianto","#f73b6a7A","-1","-1","1","0","[]","0","2","","","1280","139","11","4","lose","no-go","0","0"
"pit-trial","208","1264202","0.0-144.0","battery-v0.2","","""event"",""trial"",""time""
""fullscreenenter"",""1"",""1936""
","
","
","""event"",""trial"",""time""
""fullscreenenter"",""1"",""1936""
","
","","","1375","","","19","1280","568","k","elianto","#3366ff99"," "," ","1","+10","[2228]","1","2","","","1280","140","8","1","win","go","0","0"
"pit-instructions","209","1288038","0.0-145.0","battery-v0.2","","""event"",""trial"",""time""
""fullscreenenter"",""1"",""1936""
","
","
","""event"",""trial"",""time""
""fullscreenenter"",""1"",""1936""
","
","","[{""page_index"":0,""viewing_time"":8358},{""page_index"":1,""viewing_time"":15473}]","23831","","","","","","","","","","","","","","","","","","","","","","","","",""
"pit-trial","210","1291990","0.0-146.0","battery-v0.2","","""event"",""trial"",""time""
""fullscreenenter"",""1"",""1936""
","
","
","""event"",""trial"",""time""
""fullscreenenter"",""1"",""1936""
","
","","","1097","","","19","1280","568","f","elianto","#3366ff99"," "," ","1","+10","[1947]","1","3","","","1280","141","2","1","win","go","0","0"
"pit-trial","211","1295370","0.0-147.0","battery-v0.2","","""event"",""trial"",""time""
""fullscreenenter"",""1"",""1936""
","
","
","""event"",""trial"",""time""
""fullscreenenter"",""1"",""1936""
","
","","","526","","","19","1280","568","q","elianto","#3366ff99","-1"," ","0","0","[1376]","1","3","","","1280","142","0","2","win","no-go","0","0"
"pit-trial","212","1299020","0.0-148.0","battery-v0.2","","""event"",""trial"",""time""
""fullscreenenter"",""1"",""1936""
","
","
","""event"",""trial"",""time""
""fullscreenenter"",""1"",""1936""
","
","","","794","","","19","1280","568","x","elianto","#f73b6a7A"," "," ","1","0","[1646]","1","3","","","1280","143","3","3","lose","go","0","0"
"pit-trial","213","1302519","0.0-149.0","battery-v0.2","","""event"",""trial"",""time""
""fullscreenenter"",""1"",""1936""
","
","
","""event"",""trial"",""time""
""fullscreenenter"",""1"",""1936""
","
","","","644","","","19","1280","568","n","elianto","#3366ff99","-1"," ","0","0","[1495]","1","3","","","1280","144","1","2","win","no-go","0","0"
"pit-trial","214","1305986","0.0-150.0","battery-v0.2","","""event"",""trial"",""time""
""fullscreenenter"",""1"",""1936""
","
","
","""event"",""trial"",""time""
""fullscreenenter"",""1"",""1936""
","
","","","612","","","19","1280","568","q","elianto","#3366ff99","-1"," ","0","+10","[1464]","1","3","","","1280","145","0","2","win","no-go","1","0"
"pit-trial","215","1309619","0.0-151.0","battery-v0.2","","""event"",""trial"",""time""
""fullscreenenter"",""1"",""1936""
","
","
","""event"",""trial"",""time""
""fullscreenenter"",""1"",""1936""
","
","","","779","","","19","1280","568","x","elianto","#f73b6a7A"," "," ","1","0","[1629]","1","3","","","1280","146","3","3","lose","go","0","0"
"pit-trial","216","1314474","0.0-152.0","battery-v0.2","","""event"",""trial"",""time""
""fullscreenenter"",""1"",""1936""
","
","
","""event"",""trial"",""time""
""fullscreenenter"",""1"",""1936""
","
","","","-1","","","19","1280","568","n","elianto","#3366ff99","-1","-1","1","+10","[]","0","3","","","1280","147","1","2","win","no-go","0","0"
"pit-trial","217","1317884","0.0-153.0","battery-v0.2","","""event"",""trial"",""time""
""fullscreenenter"",""1"",""1936""
","
","
","""event"",""trial"",""time""
""fullscreenenter"",""1"",""1936""
","
","","","556","","","19","1280","568","f","elianto","#3366ff99"," "," ","1","+10","[1406]","1","3","","","1280","148","2","1","win","go","0","0"
"pit-trial","218","1321779","0.0-154.0","battery-v0.2","","""event"",""trial"",""time""
""fullscreenenter"",""1"",""1936""
","
","
","""event"",""trial"",""time""
""fullscreenenter"",""1"",""1936""
","
","","","1037","","","19","1280","568","x","elianto","#f73b6a7A"," "," ","1","0","[1890]","1","3","","","1280","149","3","3","lose","go","0","0"
"pit-trial","219","1326634","0.0-155.0","battery-v0.2","","""event"",""trial"",""time""
""fullscreenenter"",""1"",""1936""
","
","
","""event"",""trial"",""time""
""fullscreenenter"",""1"",""1936""
","
","","","-1","","","19","1280","568","n","elianto","#3366ff99","-1","-1","1","+10","[]","0","3","","","1280","150","1","2","win","no-go","0","0"
"pit-trial","220","1330070","0.0-156.0","battery-v0.2","","""event"",""trial"",""time""
""fullscreenenter"",""1"",""1936""
","
","
","""event"",""trial"",""time""
""fullscreenenter"",""1"",""1936""
","
","","","581.0000000002328","","","19","1280","568","f","elianto","#3366ff99"," "," ","1","+10","[1432]","1","3","","","1280","151","2","1","win","go","0","0"
"pit-trial","221","1333754","0.0-157.0","battery-v0.2","","""event"",""trial"",""time""
""fullscreenenter"",""1"",""1936""
","
","
","""event"",""trial"",""time""
""fullscreenenter"",""1"",""1936""
","
","","","829","","","19","1280","568","q","elianto","#3366ff99","-1"," ","0","0","[1679]","1","3","","","1280","152","0","2","win","no-go","0","0"
"pit-trial","222","1337370","0.0-158.0","battery-v0.2","","""event"",""trial"",""time""
""fullscreenenter"",""1"",""1936""
","
","
","""event"",""trial"",""time""
""fullscreenenter"",""1"",""1936""
","
","","","762","","","19","1280","568","x","elianto","#f73b6a7A"," "," ","1","0","[1612]","1","3","","","1280","153","3","3","lose","go","0","0"
"pit-trial","223","1340813","0.0-159.0","battery-v0.2","","""event"",""trial"",""time""
""fullscreenenter"",""1"",""1936""
","
","
","""event"",""trial"",""time""
""fullscreenenter"",""1"",""1936""
","
","","","587","","","19","1280","568","f","elianto","#3366ff99"," "," ","1","+10","[1438]","1","3","","","1280","154","2","1","win","go","0","0"
"pit-trial","224","1345668","0.0-160.0","battery-v0.2","","""event"",""trial"",""time""
""fullscreenenter"",""1"",""1936""
","
","
","""event"",""trial"",""time""
""fullscreenenter"",""1"",""1936""
","
","","","-1","","","19","1280","568","n","elianto","#3366ff99","-1","-1","1","+10","[]","0","3","","","1280","155","1","2","win","no-go","0","0"
"pit-trial","225","1349169","0.0-161.0","battery-v0.2","","""event"",""trial"",""time""
""fullscreenenter"",""1"",""1936""
","
","
","""event"",""trial"",""time""
""fullscreenenter"",""1"",""1936""
","
","","","645","","","19","1280","568","q","elianto","#3366ff99","-1"," ","0","0","[1497]","1","3","","","1280","156","0","2","win","no-go","0","0"
"pit-trial","226","1352607","0.0-162.0","battery-v0.2","","""event"",""trial"",""time""
""fullscreenenter"",""1"",""1936""
","
","
","""event"",""trial"",""time""
""fullscreenenter"",""1"",""1936""
","
","","","583","","","19","1280","568","q","elianto","#3366ff99","-1"," ","0","+10","[1433]","1","3","","","1280","157","0","2","win","no-go","1","0"
"pit-trial","227","1356191","0.0-163.0","battery-v0.2","","""event"",""trial"",""time""
""fullscreenenter"",""1"",""1936""
","
","
","""event"",""trial"",""time""
""fullscreenenter"",""1"",""1936""
","
","","","729","","","19","1280","568","x","elianto","#f73b6a7A"," "," ","1","0","[1579]","1","3","","","1280","158","3","3","lose","go","0","0"
"pit-trial","228","1359662","0.0-164.0","battery-v0.2","","""event"",""trial"",""time""
""fullscreenenter"",""1"",""1936""
","
","
","""event"",""trial"",""time""
""fullscreenenter"",""1"",""1936""
","
","","","615","","","19","1280","568","f","elianto","#3366ff99"," "," ","1","+10","[1465.9999999997672]","1","3","","","1280","159","2","1","win","go","0","0"
"pit-trial","229","1364517","0.0-165.0","battery-v0.2","","""event"",""trial"",""time""
""fullscreenenter"",""1"",""1936""
","
","
","""event"",""trial"",""time""
""fullscreenenter"",""1"",""1936""
","
","","","-1","","","19","1280","568","n","elianto","#3366ff99","-1","-1","1","0","[]","0","3","","","1280","160","1","2","win","no-go","1","0"
"pit-trial","230","1368023","0.0-166.0","battery-v0.2","","""event"",""trial"",""time""
""fullscreenenter"",""1"",""1936""
","
","
","""event"",""trial"",""time""
""fullscreenenter"",""1"",""1936""
","
","","","652.0000000002328","","","19","1280","568","f","elianto","#3366ff99"," "," ","1","+10","[1502.0000000002328]","1","3","","","1280","161","2","1","win","go","0","0"
"pit-trial","231","1371494","0.0-167.0","battery-v0.2","","""event"",""trial"",""time""
""fullscreenenter"",""1"",""1936""
","
","
","""event"",""trial"",""time""
""fullscreenenter"",""1"",""1936""
","
","","","615","","","19","1280","568","q","elianto","#3366ff99","-1"," ","0","0","[1467.0000000002328]","1","3","","","1280","162","0","2","win","no-go","0","0"
"pit-trial","232","1376349","0.0-168.0","battery-v0.2","","""event"",""trial"",""time""
""fullscreenenter"",""1"",""1936""
","
","
","""event"",""trial"",""time""
""fullscreenenter"",""1"",""1936""
","
","","","-1","","","19","1280","568","n","elianto","#3366ff99","-1","-1","1","+10","[]","0","3","","","1280","163","1","2","win","no-go","0","0"
"pit-trial","233","1379928","0.0-169.0","battery-v0.2","","""event"",""trial"",""time""
""fullscreenenter"",""1"",""1936""
","
","
","""event"",""trial"",""time""
""fullscreenenter"",""1"",""1936""
","
","","","724.0000000002328","","","19","1280","568","x","elianto","#f73b6a7A"," "," ","1","0","[1574.0000000002328]","1","3","","","1280","164","3","3","lose","go","0","0"
"pit-trial","234","1383490","0.0-170.0","battery-v0.2","","""event"",""trial"",""time""
""fullscreenenter"",""1"",""1936""
","
","
","""event"",""trial"",""time""
""fullscreenenter"",""1"",""1936""
","
","","","707","","","19","1280","568","q","elianto","#3366ff99","-1"," ","0","0","[1557]","1","3","","","1280","165","0","2","win","no-go","0","0"
"pit-trial","235","1388345","0.0-171.0","battery-v0.2","","""event"",""trial"",""time""
""fullscreenenter"",""1"",""1936""
","
","
","""event"",""trial"",""time""
""fullscreenenter"",""1"",""1936""
","
","","","-1","","","19","1280","568","n","elianto","#3366ff99","-1","-1","1","+10","[]","0","3","","","1280","166","1","2","win","no-go","0","0"
"pit-trial","236","1391841","0.0-172.0","battery-v0.2","","""event"",""trial"",""time""
""fullscreenenter"",""1"",""1936""
","
","
","""event"",""trial"",""time""
""fullscreenenter"",""1"",""1936""
","
","","","638.0000000002328","","","19","1280","568","f","elianto","#3366ff99"," "," ","1","+10","[1491.0000000002328]","1","3","","","1280","167","2","1","win","go","0","0"
"pit-trial","237","1395329","0.0-173.0","battery-v0.2","","""event"",""trial"",""time""
""fullscreenenter"",""1"",""1936""
","
","
","""event"",""trial"",""time""
""fullscreenenter"",""1"",""1936""
","
","","","633","","","19","1280","568","x","elianto","#f73b6a7A"," "," ","1","-10","[1484]","1","3","","","1280","168","3","3","lose","go","1","0"
"pit-trial","238","1398961","0.0-174.0","battery-v0.2","","""event"",""trial"",""time""
""fullscreenenter"",""1"",""1936""
","
","
","""event"",""trial"",""time""
""fullscreenenter"",""1"",""1936""
","
","","","776","","","19","1280","568","x","elianto","#f73b6a7A"," "," ","1","0","[1628]","1","3","","","1280","169","3","3","lose","go","0","0"
"pit-trial","239","1403816","0.0-175.0","battery-v0.2","","""event"",""trial"",""time""
""fullscreenenter"",""1"",""1936""
","
","
","""event"",""trial"",""time""
""fullscreenenter"",""1"",""1936""
","
","","","-1","","","19","1280","568","n","elianto","#3366ff99","-1","-1","1","+10","[]","0","3","","","1280","170","1","2","win","no-go","0","0"
"pit-trial","240","1407213","0.0-176.0","battery-v0.2","","""event"",""trial"",""time""
""fullscreenenter"",""1"",""1936""
","
","
","""event"",""trial"",""time""
""fullscreenenter"",""1"",""1936""
","
","","","541","","","19","1280","568","f","elianto","#3366ff99"," "," ","1","+10","[1392]","1","3","","","1280","171","2","1","win","go","0","0"
"pit-trial","241","1412068","0.0-177.0","battery-v0.2","","""event"",""trial"",""time""
""fullscreenenter"",""1"",""1936""
","
","
","""event"",""trial"",""time""
""fullscreenenter"",""1"",""1936""
","
","","","-1","","","19","1280","568","q","elianto","#3366ff99","-1","-1","1","+10","[]","0","3","","","1280","172","0","2","win","no-go","0","0"
"pit-trial","242","1416221","0.0-178.0","battery-v0.2","","""event"",""trial"",""time""
""fullscreenenter"",""1"",""1936""
","
","
","""event"",""trial"",""time""
""fullscreenenter"",""1"",""1936""
","
","","","1299","","","19","1280","568","b","elianto","#f73b6a7A"," "," ","1","0","[2149.999999999767]","1","3","","","1280","173","5","3","lose","go","0","0"
"pit-trial","243","1419950","0.0-179.0","battery-v0.2","","""event"",""trial"",""time""
""fullscreenenter"",""1"",""1936""
","
","
","""event"",""trial"",""time""
""fullscreenenter"",""1"",""1936""
","
","","","875","","","19","1280","568","t","elianto","#f73b6a7A","-1"," ","0","-10","[1725]","1","3","","","1280","174","4","4","lose","no-go","0","0"
"pit-trial","244","1424805","0.0-180.0","battery-v0.2","","""event"",""trial"",""time""
""fullscreenenter"",""1"",""1936""
","
","
","""event"",""trial"",""time""
""fullscreenenter"",""1"",""1936""
","
","","","-1","","","19","1280","568","q","elianto","#3366ff99","-1","-1","1","+10","[]","0","3","","","1280","175","0","2","win","no-go","0","0"
"pit-trial","245","1428440","0.0-181.0","battery-v0.2","","""event"",""trial"",""time""
""fullscreenenter"",""1"",""1936""
","
","
","""event"",""trial"",""time""
""fullscreenenter"",""1"",""1936""
","
","","","781","","","19","1280","568","f","elianto","#3366ff99"," "," ","1","+10","[1631]","1","3","","","1280","176","2","1","win","go","0","0"
"pit-trial","246","1432159","0.0-182.0","battery-v0.2","","""event"",""trial"",""time""
""fullscreenenter"",""1"",""1936""
","
","
","""event"",""trial"",""time""
""fullscreenenter"",""1"",""1936""
","
","","","865.0000000002328","","","19","1280","568","t","elianto","#f73b6a7A","-1"," ","0","-10","[1716.0000000002328]","1","3","","","1280","177","4","4","lose","no-go","0","0"
"pit-trial","247","1437014","0.0-183.0","battery-v0.2","","""event"",""trial"",""time""
""fullscreenenter"",""1"",""1936""
","
","
","""event"",""trial"",""time""
""fullscreenenter"",""1"",""1936""
","
","","","-1","","","19","1280","568","q","elianto","#3366ff99","-1","-1","1","+10","[]","0","3","","","1280","178","0","2","win","no-go","0","0"
"pit-trial","248","1440634","0.0-184.0","battery-v0.2","","""event"",""trial"",""time""
""fullscreenenter"",""1"",""1936""
","
","
","""event"",""trial"",""time""
""fullscreenenter"",""1"",""1936""
","
","","","764","","","19","1280","568","f","elianto","#3366ff99"," "," ","1","+10","[1615]","1","3","","","1280","179","2","1","win","go","0","0"
"pit-trial","249","1444720","0.0-185.0","battery-v0.2","","""event"",""trial"",""time""
""fullscreenenter"",""1"",""1936""
","
","
","""event"",""trial"",""time""
""fullscreenenter"",""1"",""1936""
","
","","","1233","","","19","1280","568","b","elianto","#f73b6a7A"," "," ","1","0","[2083]","1","3","","","1280","180","5","3","lose","go","0","0"
"pit-trial","250","1448360","0.0-186.0","battery-v0.2","","""event"",""trial"",""time""
""fullscreenenter"",""1"",""1936""
","
","
","""event"",""trial"",""time""
""fullscreenenter"",""1"",""1936""
","
","","","785","","","19","1280","568","f","elianto","#3366ff99"," "," ","1","+10","[1636]","1","3","","","1280","181","2","1","win","go","0","0"
"pit-trial","251","1452449","0.0-187.0","battery-v0.2","","""event"",""trial"",""time""
""fullscreenenter"",""1"",""1936""
","
","
","""event"",""trial"",""time""
""fullscreenenter"",""1"",""1936""
","
","","","1234.0000000002328","","","19","1280","568","c","elianto","#3366ff99","-1"," ","0","0","[2084.000000000233]","1","3","","","1280","182","6","2","win","no-go","0","0"
"pit-trial","252","1457305","0.0-188.0","battery-v0.2","","""event"",""trial"",""time""
""fullscreenenter"",""1"",""1936""
","
","
","""event"",""trial"",""time""
""fullscreenenter"",""1"",""1936""
","
","","","-1","","","19","1280","568","t","elianto","#f73b6a7A","-1","-1","1","0","[]","0","3","","","1280","183","4","4","lose","no-go","0","0"
"pit-trial","253","1460906","0.0-189.0","battery-v0.2","","""event"",""trial"",""time""
""fullscreenenter"",""1"",""1936""
","
","
","""event"",""trial"",""time""
""fullscreenenter"",""1"",""1936""
","
","","","747","","","19","1280","568","b","elianto","#f73b6a7A"," "," ","1","-10","[1597]","1","3","","","1280","184","5","3","lose","go","1","0"
"pit-trial","254","1465761","0.0-190.0","battery-v0.2","","""event"",""trial"",""time""
""fullscreenenter"",""1"",""1936""
","
","
","""event"",""trial"",""time""
""fullscreenenter"",""1"",""1936""
","
","","","-1","","","19","1280","568","t","elianto","#f73b6a7A","-1","-1","1","0","[]","0","3","","","1280","185","4","4","lose","no-go","0","0"
"pit-trial","255","1469218","0.0-191.0","battery-v0.2","","""event"",""trial"",""time""
""fullscreenenter"",""1"",""1936""
","
","
","""event"",""trial"",""time""
""fullscreenenter"",""1"",""1936""
","
","","","601.0000000002328","","","19","1280","568","b","elianto","#f73b6a7A"," "," ","1","-10","[1453.0000000002328]","1","3","","","1280","186","5","3","lose","go","1","0"
"pit-trial","256","1472666","0.0-192.0","battery-v0.2","","""event"",""trial"",""time""
""fullscreenenter"",""1"",""1936""
","
","
","""event"",""trial"",""time""
""fullscreenenter"",""1"",""1936""
","
","","","593","","","19","1280","568","f","elianto","#3366ff99"," "," ","1","+10","[1444]","1","3","","","1280","187","2","1","win","go","0","0"
"pit-trial","257","1477521","0.0-193.0","battery-v0.2","","""event"",""trial"",""time""
""fullscreenenter"",""1"",""1936""
","
","
","""event"",""trial"",""time""
""fullscreenenter"",""1"",""1936""
","
","","","-1","","","19","1280","568","c","elianto","#3366ff99","-1","-1","1","+10","[]","0","3","","","1280","188","6","2","win","no-go","0","0"
"pit-trial","258","1482376","0.0-194.0","battery-v0.2","","""event"",""trial"",""time""
""fullscreenenter"",""1"",""1936""
","
","
","""event"",""trial"",""time""
""fullscreenenter"",""1"",""1936""
","
","","","-1","","","19","1280","568","b","elianto","#f73b6a7A"," ","-1","0","-10","[]","0","3","","","1280","189","5","3","lose","go","0","0"
"pit-trial","259","1486263","0.0-195.0","battery-v0.2","","""event"",""trial"",""time""
""fullscreenenter"",""1"",""1936""
","
","
","""event"",""trial"",""time""
""fullscreenenter"",""1"",""1936""
","
","","","1033","","","19","1280","568","z","elianto","#f73b6a7A","-1"," ","0","-10","[1884]","1","3","","","1280","190","7","4","lose","no-go","0","0"
"pit-trial","260","1491118","0.0-196.0","battery-v0.2","","""event"",""trial"",""time""
""fullscreenenter"",""1"",""1936""
","
","
","""event"",""trial"",""time""
""fullscreenenter"",""1"",""1936""
","
","","","-1","","","19","1280","568","t","elianto","#f73b6a7A","-1","-1","1","0","[]","0","3","","","1280","191","4","4","lose","no-go","0","0"
"pit-trial","261","1495973","0.0-197.0","battery-v0.2","","""event"",""trial"",""time""
""fullscreenenter"",""1"",""1936""
","
","
","""event"",""trial"",""time""
""fullscreenenter"",""1"",""1936""
","
","","","-1","","","19","1280","568","c","elianto","#3366ff99","-1","-1","1","+10","[]","0","3","","","1280","192","6","2","win","no-go","0","0"
"pit-trial","262","1500829","0.0-198.0","battery-v0.2","","""event"",""trial"",""time""
""fullscreenenter"",""1"",""1936""
","
","
","""event"",""trial"",""time""
""fullscreenenter"",""1"",""1936""
","
","","","-1","","","19","1280","568","t","elianto","#f73b6a7A","-1","-1","1","0","[]","0","3","","","1280","193","4","4","lose","no-go","0","0"
"pit-trial","263","1504786","0.0-199.0","battery-v0.2","","""event"",""trial"",""time""
""fullscreenenter"",""1"",""1936""
","
","
","""event"",""trial"",""time""
""fullscreenenter"",""1"",""1936""
","
","","","1101","","","19","1280","568","b","elianto","#f73b6a7A"," "," ","1","0","[1952]","1","3","","","1280","194","5","3","lose","go","0","0"
"pit-trial","264","1509641","0.0-200.0","battery-v0.2","","""event"",""trial"",""time""
""fullscreenenter"",""1"",""1936""
","
","
","""event"",""trial"",""time""
""fullscreenenter"",""1"",""1936""
","
","","","-1","","","19","1280","568","z","elianto","#f73b6a7A","-1","-1","1","0","[]","0","3","","","1280","195","7","4","lose","no-go","0","0"
"pit-trial","265","1514497","0.0-201.0","battery-v0.2","","""event"",""trial"",""time""
""fullscreenenter"",""1"",""1936""
","
","
","""event"",""trial"",""time""
""fullscreenenter"",""1"",""1936""
","
","","","-1","","","19","1280","568","c","elianto","#3366ff99","-1","-1","1","+10","[]","0","3","","","1280","196","6","2","win","no-go","0","0"
"pit-trial","266","1519353","0.0-202.0","battery-v0.2","","""event"",""trial"",""time""
""fullscreenenter"",""1"",""1936""
","
","
","""event"",""trial"",""time""
""fullscreenenter"",""1"",""1936""
","
","","","-1","","","19","1280","568","z","elianto","#f73b6a7A","-1","-1","1","0","[]","0","3","","","1280","197","7","4","lose","no-go","0","0"
"pit-trial","267","1524208","0.0-203.0","battery-v0.2","","""event"",""trial"",""time""
""fullscreenenter"",""1"",""1936""
","
","
","""event"",""trial"",""time""
""fullscreenenter"",""1"",""1936""
","
","","","-1","","","19","1280","568","t","elianto","#f73b6a7A","-1","-1","1","0","[]","0","3","","","1280","198","4","4","lose","no-go","0","0"
"pit-trial","268","1527822","0.0-204.0","battery-v0.2","","""event"",""trial"",""time""
""fullscreenenter"",""1"",""1936""
","
","
","""event"",""trial"",""time""
""fullscreenenter"",""1"",""1936""
","
","","","759","","","19","1280","568","b","elianto","#f73b6a7A"," "," ","1","0","[1610]","1","3","","","1280","199","5","3","lose","go","0","0"
"pit-trial","269","1532676","0.0-205.0","battery-v0.2","","""event"",""trial"",""time""
""fullscreenenter"",""1"",""1936""
","
","
","""event"",""trial"",""time""
""fullscreenenter"",""1"",""1936""
","
","","","-1","","","19","1280","568","c","elianto","#3366ff99","-1","-1","1","0","[]","0","3","","","1280","200","6","2","win","no-go","1","0"
"pit-trial","270","1537532","0.0-206.0","battery-v0.2","","""event"",""trial"",""time""
""fullscreenenter"",""1"",""1936""
","
","
","""event"",""trial"",""time""
""fullscreenenter"",""1"",""1936""
","
","","","-1","","","19","1280","568","z","elianto","#f73b6a7A","-1","-1","1","0","[]","0","3","","","1280","201","7","4","lose","no-go","0","0"
"pit-trial","271","1541138","0.0-207.0","battery-v0.2","","""event"",""trial"",""time""
""fullscreenenter"",""1"",""1936""
","
","
","""event"",""trial"",""time""
""fullscreenenter"",""1"",""1936""
","
","","","750","","","19","1280","568","c","elianto","#3366ff99","-1"," ","0","0","[1601]","1","3","","","1280","202","6","2","win","no-go","0","0"
"pit-trial","272","1545490","0.0-208.0","battery-v0.2","","""event"",""trial"",""time""
""fullscreenenter"",""1"",""1936""
","
","
","""event"",""trial"",""time""
""fullscreenenter"",""1"",""1936""
","
","","","1497.0000000002328","","","19","1280","568","b","elianto","#f73b6a7A"," "," ","1","0","[2348.000000000233]","1","3","","","1280","203","5","3","lose","go","0","0"
"pit-trial","273","1550345","0.0-209.0","battery-v0.2","","""event"",""trial"",""time""
""fullscreenenter"",""1"",""1936""
","
","
