"trial_type","trial_index","time_elapsed","internal_node_id","task_version","success","view_history","rt","rune","rune_set","hex","correct","choice","accuracy","outcome","keys","total_keys","block","practice","subject","participantId","value","responses","num_errors"
"pavlovia","0","21","0.0-0.0","battery-v0.2","","","","","","","","","","","","","","","","","","",""
"fullscreen","1","2041","0.0-1.0","battery-v0.2","true","","","","","","","","","","","","","","","","","",""
"pit-instructions","2","4663","0.0-2.0-0.0","battery-v0.2","","[{""page_index"":0,""viewing_time"":915.1999999992549},{""page_index"":1,""viewing_time"":162.09999999776483},{""page_index"":2,""viewing_time"":161.40000000223517},{""page_index"":3,""viewing_time"":156.69999999925494},{""page_index"":4,""viewing_time"":141.80000000074506},{""page_index"":5,""viewing_time"":152},{""page_index"":6,""viewing_time"":144.19999999925494},{""page_index"":7,""viewing_time"":146.19999999925494},{""page_index"":8,""viewing_time"":131.80000000074506},{""page_index"":9,""viewing_time"":160.89999999850988},{""page_index"":10,""viewing_time"":161.80000000074506},{""page_index"":11,""viewing_time"":181.5}]","2616.39999999851","","","","","","","","","","","","","","","",""
"pit-trial","3","7636","0.0-2.0-1.0-0.0","battery-v0.2","","","112.10000000149012","&#9784;","elianto","#FFFFF080","32","32","1","&#10004","964.6000000014901","1","0","0","4ee95e0e8737a0304baac70a&order=1&STUDY_ID=61caf85b4892b889f6411591","999","","",""
"pit-trial","4","11219","0.0-2.0-1.1-0.1","battery-v0.2","","","722.5","&#9784;","elianto","#FFFFF080","32","32","1","&#10004","1573.300000000745,2140.699999999255","2","0","0","4ee95e0e8737a0304baac70a&order=1&STUDY_ID=61caf85b4892b889f6411591","999","","",""
"pit-trial","5","14369","0.0-2.0-1.2-0.2","battery-v0.2","","","290.8999999985099","&#9784;","elianto","#FFFFF080","32","32","1","&#10004","1141.4000000022352","1","0","0","4ee95e0e8737a0304baac70a&order=1&STUDY_ID=61caf85b4892b889f6411591","999","","",""
"pit-trial","6","18186","0.0-2.0-1.3-0.3","battery-v0.2","","","957.1999999992549","&#9784;","elianto","#FFFFF080","32","32","1","&#10004","1807.699999999255","1","0","0","4ee95e0e8737a0304baac70a&order=1&STUDY_ID=61caf85b4892b889f6411591","999","","",""
"pit-trial","7","21279","0.0-2.0-1.4-0.4","battery-v0.2","","","237.89999999850988","&#9784;","elianto","#FFFFF080","32","32","1","&#10004","1088","1","0","0","4ee95e0e8737a0304baac70a&order=1&STUDY_ID=61caf85b4892b889f6411591","999","","",""
"pit-instructions","8","23040","0.0-2.0-2.0","battery-v0.2","","[{""page_index"":0,""viewing_time"":1228},{""page_index"":1,""viewing_time"":187.89999999850988},{""page_index"":2,""viewing_time"":171.60000000149012},{""page_index"":3,""viewing_time"":167.80000000074506}]","1755.8999999985099","","","","","","","","","","","","","","","",""
"pit-trial","9","27901","0.0-2.0-3.0-0.0","battery-v0.2","","","-1","&#9854;","elianto","#FFFFF080","-1","-1","1","&#10004","","0","0","1","4ee95e0e8737a0304baac70a&order=1&STUDY_ID=61caf85b4892b889f6411591","999","","",""
"pit-trial","10","32759","0.0-2.0-3.1-0.1","battery-v0.2","","","-1","&#9854;","elianto","#FFFFF080","-1","-1","1","&#10004","","0","0","1","4ee95e0e8737a0304baac70a&order=1&STUDY_ID=61caf85b4892b889f6411591","999","","",""
"pit-trial","11","37621","0.0-2.0-3.2-0.2","battery-v0.2","","","-1","&#9854;","elianto","#FFFFF080","-1","-1","1","&#10004","","0","0","1","4ee95e0e8737a0304baac70a&order=1&STUDY_ID=61caf85b4892b889f6411591","999","","",""
"pit-trial","12","42478","0.0-2.0-3.3-0.3","battery-v0.2","","","-1","&#9854;","elianto","#FFFFF080","-1","-1","1","&#10004","","0","0","1","4ee95e0e8737a0304baac70a&order=1&STUDY_ID=61caf85b4892b889f6411591","999","","",""
"pit-trial","13","47337","0.0-2.0-3.4-0.4","battery-v0.2","","","-1","&#9854;","elianto","#FFFFF080","-1","-1","1","&#10004","","0","0","1","4ee95e0e8737a0304baac70a&order=1&STUDY_ID=61caf85b4892b889f6411591","999","","",""
"pit-instructions","14","50963","0.0-2.0-4.0","battery-v0.2","","[{""page_index"":0,""viewing_time"":1649.9000000022352},{""page_index"":1,""viewing_time"":162.5},{""page_index"":2,""viewing_time"":273.3999999985099},{""page_index"":3,""viewing_time"":171.80000000074506},{""page_index"":4,""viewing_time"":472},{""page_index"":5,""viewing_time"":139.89999999850988},{""page_index"":6,""viewing_time"":172.70000000298023},{""page_index"":7,""viewing_time"":154.89999999850988},{""page_index"":8,""viewing_time"":139.69999999925494},{""page_index"":9,""viewing_time"":140.5},{""page_index"":10,""viewing_time"":143.40000000223517}]","3621.300000000745","","","","","","","","","","","","","","","",""
"pit-trial","15","53819","0.0-2.0-5.0-0.0","battery-v0.2","","","2.099999997764826","&#9776;","elianto","#3366ff99","32","32","1","+10","852.1999999992549","1","0","1","4ee95e0e8737a0304baac70a&order=1&STUDY_ID=61caf85b4892b889f6411591","999","","",""
"pit-trial","16","56835","0.0-2.0-5.0-1.0","battery-v0.2","","","156.40000000223517","&#9776;","elianto","#3366ff99","32","32","1","+10","1008.1999999992549","1","0","1","4ee95e0e8737a0304baac70a&order=1&STUDY_ID=61caf85b4892b889f6411591","999","","",""
"pit-trial","17","59913","0.0-2.0-5.0-2.0","battery-v0.2","","","220.10000000149012","&#9776;","elianto","#3366ff99","32","32","1","+10","1071.3999999985099","1","0","1","4ee95e0e8737a0304baac70a&order=1&STUDY_ID=61caf85b4892b889f6411591","999","","",""
"pit-trial","18","64077","0.0-2.0-5.0-3.0","battery-v0.2","","","1306.3999999985099","&#9776;","elianto","#3366ff99","32","32","1","0","837.8000000007451,2158","2","0","1","4ee95e0e8737a0304baac70a&order=1&STUDY_ID=61caf85b4892b889f6411591","999","","",""
"pit-trial","19","67139","0.0-2.0-5.0-4.0","battery-v0.2","","","208.5","&#9776;","elianto","#3366ff99","32","32","1","+10","1059.699999999255","1","0","1","4ee95e0e8737a0304baac70a&order=1&STUDY_ID=61caf85b4892b889f6411591","999","","",""
"call-function","20","67142","0.0-2.0-6.0","battery-v0.2","","","","","","","","","","","","","","","","","","",""
"pit-instructions","21","92732","0.0-2.0-7.0","battery-v0.2","","[{""page_index"":0,""viewing_time"":24178.5},{""page_index"":1,""viewing_time"":572.1999999992549},{""page_index"":2,""viewing_time"":428.69999999925494},{""page_index"":3,""viewing_time"":410}]","25590","","","","","","","","","","","","","","","",""
"pit-trial","22","97595","0.0-2.0-8.0-0.0","battery-v0.2","","","-1","&#9761;","elianto","#3366ff99","-1","-1","1","+10","","0","0","2","4ee95e0e8737a0304baac70a&order=1&STUDY_ID=61caf85b4892b889f6411591","999","","",""
"pit-trial","23","102455","0.0-2.0-8.0-1.0","battery-v0.2","","","-1","&#9761;","elianto","#3366ff99","-1","-1","1","+10","","0","0","2","4ee95e0e8737a0304baac70a&order=1&STUDY_ID=61caf85b4892b889f6411591","999","","",""
"pit-trial","24","107315","0.0-2.0-8.0-2.0","battery-v0.2","","","-1","&#9761;","elianto","#3366ff99","-1","-1","1","+10","","0","0","2","4ee95e0e8737a0304baac70a&order=1&STUDY_ID=61caf85b4892b889f6411591","999","","",""
"pit-trial","25","112176","0.0-2.0-8.0-3.0","battery-v0.2","","","-1","&#9761;","elianto","#3366ff99","-1","-1","1","0","","0","0","2","4ee95e0e8737a0304baac70a&order=1&STUDY_ID=61caf85b4892b889f6411591","999","","",""
"pit-trial","26","117038","0.0-2.0-8.0-4.0","battery-v0.2","","","-1","&#9761;","elianto","#3366ff99","-1","-1","1","+10","","0","0","2","4ee95e0e8737a0304baac70a&order=1&STUDY_ID=61caf85b4892b889f6411591","999","","",""
"call-function","27","117041","0.0-2.0-9.0","battery-v0.2","","","","","","","","","","","","","","","","","","",""
"pit-instructions","28","119799","0.0-2.0-10.0","battery-v0.2","","[{""page_index"":0,""viewing_time"":1281.6000000014901},{""page_index"":1,""viewing_time"":1475}]","2757.300000000745","","","","","","","","","","","","","","","",""
"pit-trial","29","124658","0.0-2.0-11.0-0.0","battery-v0.2","","","-1","&#9826;","elianto","#f73b6a7A","-1","-1","1","0","","0","0","3","4ee95e0e8737a0304baac70a&order=1&STUDY_ID=61caf85b4892b889f6411591","999","","",""
"pit-trial","30","129518","0.0-2.0-11.0-1.0","battery-v0.2","","","-1","&#9826;","elianto","#f73b6a7A","-1","-1","1","0","","0","0","3","4ee95e0e8737a0304baac70a&order=1&STUDY_ID=61caf85b4892b889f6411591","999","","",""
"pit-trial","31","134378","0.0-2.0-11.0-2.0","battery-v0.2","","","-1","&#9826;","elianto","#f73b6a7A","-1","-1","1","0","","0","0","3","4ee95e0e8737a0304baac70a&order=1&STUDY_ID=61caf85b4892b889f6411591","999","","",""
"pit-trial","32","139238","0.0-2.0-11.0-3.0","battery-v0.2","","","-1","&#9826;","elianto","#f73b6a7A","-1","-1","1","-10","","0","0","3","4ee95e0e8737a0304baac70a&order=1&STUDY_ID=61caf85b4892b889f6411591","999","","",""
"pit-trial","33","144098","0.0-2.0-11.0-4.0","battery-v0.2","","","-1","&#9826;","elianto","#f73b6a7A","-1","-1","1","0","","0","0","3","4ee95e0e8737a0304baac70a&order=1&STUDY_ID=61caf85b4892b889f6411591","999","","",""
"call-function","34","144101","0.0-2.0-12.0","battery-v0.2","","","","","","","","","","","","","","","","","","",""
"pit-instructions","35","159287","0.0-2.0-13.0","battery-v0.2","","[{""page_index"":0,""viewing_time"":9352.300000000745},{""page_index"":1,""viewing_time"":5833.199999999255}]","15186.10000000149","","","","","","","","","","","","","","","",""
"pit-trial","36","164147","0.0-2.0-14.0-0.0","battery-v0.2","","","-1","&#9789;","elianto","#f73b6a7A","32","-1","0","-10","","0","0","4","4ee95e0e8737a0304baac70a&order=1&STUDY_ID=61caf85b4892b889f6411591","999","","",""
"pit-trial","37","169003","0.0-2.0-14.0-1.0","battery-v0.2","","","-1","&#9789;","elianto","#f73b6a7A","32","-1","0","-10","3888.5","1","0","4","4ee95e0e8737a0304baac70a&order=1&STUDY_ID=61caf85b4892b889f6411591","999","","",""
"pit-trial","38","172154","0.0-2.0-14.0-2.0","battery-v0.2","","","291.8999999985099","&#9789;","elianto","#f73b6a7A","32","32","1","0","1143.6000000014901","1","0","4","4ee95e0e8737a0304baac70a&order=1&STUDY_ID=61caf85b4892b889f6411591","999","","",""
"pit-trial","39","175247","0.0-2.0-14.0-3.0","battery-v0.2","","","232","&#9789;","elianto","#f73b6a7A","32","32","1","-10","1084.9000000022352","1","0","4","4ee95e0e8737a0304baac70a&order=1&STUDY_ID=61caf85b4892b889f6411591","999","","",""
"pit-trial","40","178269","0.0-2.0-14.0-4.0","battery-v0.2","","","167.70000000298023","&#9789;","elianto","#f73b6a7A","32","32","1","0","1018.3000000007451","1","0","4","4ee95e0e8737a0304baac70a&order=1&STUDY_ID=61caf85b4892b889f6411591","999","","",""
"pit-trial","41","181293","0.0-2.0-14.1-0.1","battery-v0.2","","","166.90000000223517","&#9789;","elianto","#f73b6a7A","32","32","1","0","1019.7000000029802","1","0","4","4ee95e0e8737a0304baac70a&order=1&STUDY_ID=61caf85b4892b889f6411591","999","","",""
"pit-trial","42","184375","0.0-2.0-14.1-1.1","battery-v0.2","","","223.19999999925494","&#9789;","elianto","#f73b6a7A","32","32","1","0","1073.1000000014901","1","0","4","4ee95e0e8737a0304baac70a&order=1&STUDY_ID=61caf85b4892b889f6411591","999","","",""
"pit-trial","43","187458","0.0-2.0-14.1-2.1","battery-v0.2","","","225.39999999850988","&#9789;","elianto","#f73b6a7A","32","32","1","0","1076.800000000745","1","0","4","4ee95e0e8737a0304baac70a&order=1&STUDY_ID=61caf85b4892b889f6411591","999","","",""
"pit-trial","44","190477","0.0-2.0-14.1-3.1","battery-v0.2","","","158.19999999925494","&#9789;","elianto","#f73b6a7A","32","32","1","-10","1010.1999999992549","1","0","4","4ee95e0e8737a0304baac70a&order=1&STUDY_ID=61caf85b4892b889f6411591","999","","",""
"pit-trial","45","193552","0.0-2.0-14.1-4.1","battery-v0.2","","","216.69999999925494","&#9789;","elianto","#f73b6a7A","32","32","1","0","1068.199999999255","1","0","4","4ee95e0e8737a0304baac70a&order=1&STUDY_ID=61caf85b4892b889f6411591","999","","",""
"call-function","46","193555","0.0-2.0-15.0","battery-v0.2","","","","","","","","","","","","","","","","","","",""
"pit-instructions","47","204097","0.0-2.0-16.0","battery-v0.2","","[{""page_index"":0,""viewing_time"":6554.10000000149},{""page_index"":1,""viewing_time"":2071.099999997765},{""page_index"":2,""viewing_time"":665.5},{""page_index"":3,""viewing_time"":635.1000000014901},{""page_index"":4,""viewing_time"":614.6000000014901}]","10541","","","","","","","","","","","","","","","",""
"pit-comprehension","48","206483","0.0-2.0-17.0-0.0","battery-v0.2","","","2381.60000000149","","","","","","","","","","","","","","","SPACE","0"
"pit-instructions","49","207630","0.0-2.0-17.0-1.0","battery-v0.2","","[{""page_index"":0,""viewing_time"":1123.1000000014901}]","1123.8999999985099","","","","","","","","","","","","","","","",""
"pit-comprehension","50","211849","0.0-2.0-18.0-0.0","battery-v0.2","","","4214.199999999255","","","","","","","","","","","","","","","10","0"
"pit-instructions","51","212768","0.0-2.0-18.0-1.0","battery-v0.2","","[{""page_index"":0,""viewing_time"":899.4000000022352}]","900.2000000029802","","","","","","","","","","","","","","","",""
"pit-comprehension","52","216169","0.0-2.0-19.0-0.0","battery-v0.2","","","3397.300000000745","","","","","","","","","","","","","","","0","0"
"pit-instructions","53","217019","0.0-2.0-19.0-1.0","battery-v0.2","","[{""page_index"":0,""viewing_time"":834}]","835.4000000022352","","","","","","","","","","","","","","","",""
"pit-comprehension","54","228291","0.0-2.0-20.0-0.0","battery-v0.2","","","11268.10000000149","","","","","","","","","","","","","","","False","1"
"pit-instructions","55","428901","0.0-2.0-20.0-1.0","battery-v0.2","","[{""page_index"":0,""viewing_time"":200589.90000000224}]","200590.70000000298","","","","","","","","","","","","","","","",""
"pit-instructions","56","429974","0.0-2.0-20.0-2.0-0.0","battery-v0.2","","[{""page_index"":0,""viewing_time"":1069.699999999255}]","1070.199999999255","","","","","","","","","","","","","","","",""
"pit-comprehension","57","437683","0.0-2.0-20.1-0.1","battery-v0.2","","","7705.300000000745","","","","","","","","","","","","","","","True","0"
"pit-instructions","58","438614","0.0-2.0-20.1-1.1","battery-v0.2","","[{""page_index"":0,""viewing_time"":911.6000000014901}]","912.1999999992549","","","","","","","","","","","","","","","",""
"pit-comprehension","59","444837","0.0-2.0-21.0-0.0","battery-v0.2","","","6219.89999999851","","","","","","","","","","","","","","","True","0"
"pit-instructions","60","445539","0.0-2.0-21.0-1.0","battery-v0.2","","[{""page_index"":0,""viewing_time"":681.3000000007451}]","681.9000000022352","","","","","","","","","","","","","","","",""
"pit-comprehension","61","450329","0.0-2.0-22.0-0.0","battery-v0.2","","","4785.400000002235","","","","","","","","","","","","","","","True","0"
"pit-instructions","62","451291","0.0-2.0-22.0-1.0","battery-v0.2","","[{""page_index"":0,""viewing_time"":942.6999999992549}]","943.1999999992549","","","","","","","","","","","","","","","",""
