"trial_type","trial_index","time_elapsed","internal_node_id","task_version","success","view_history","rt","rune","rune_set","hex","correct","choice","accuracy","outcome","keys","total_keys","sub","block","trial","stimulus","robot","valence","action","sham"
"pavlovia","0","7","0.0-0.0","battery-v0.2","","","","","","","","","","","","","","","","","","","",""
"fullscreen","1","2043","0.0-1.0","battery-v0.2","true","","","","","","","","","","","","","","","","","","",""
"pit-instructions","2","20410","0.0-2.0","battery-v0.2","","[{""page_index"":0,""viewing_time"":3551.100000023842},{""page_index"":1,""viewing_time"":7149.899999976158},{""page_index"":2,""viewing_time"":7662.800000011921}]","18364.5","","","","","","","","","","","","","","","","",""
"pit-trial","3","25276","0.0-3.0","battery-v0.2","","","-1","&#9728;","elianto","#f73b6a7A","-1","-1","1","-10","[]","0","3&age=8&participant_ID=5&order=1","1","1","0","4","lose","no-go","1"
"pit-trial","4","30135","0.0-4.0","battery-v0.2","","","-1","&#9733;","elianto","#3366ff99","-1","-1","1","+10","[]","0","3&age=8&participant_ID=5&order=1","1","2","2","2","win","no-go","0"
"pit-trial","5","34994","0.0-5.0","battery-v0.2","","","-1","&#9730;","elianto","#3366ff99"," ","-1","0","0","[]","0","3&age=8&participant_ID=5&order=1","1","3","1","1","win","go","0"
"pit-trial","6","39852","0.0-6.0","battery-v0.2","","","-1","&#9752;","elianto","#f73b6a7A"," ","-1","0","-10","[]","0","3&age=8&participant_ID=5&order=1","1","4","3","3","lose","go","0"
"pit-trial","7","44712","0.0-7.0","battery-v0.2","","","-1","&#9733;","elianto","#3366ff99","-1","-1","1","+10","[]","0","3&age=8&participant_ID=5&order=1","1","5","2","2","win","no-go","0"
"pit-trial","8","49571","0.0-8.0","battery-v0.2","","","-1","&#9728;","elianto","#f73b6a7A","-1","-1","1","0","[]","0","3&age=8&participant_ID=5&order=1","1","6","0","4","lose","no-go","0"
"pit-trial","9","54429","0.0-9.0","battery-v0.2","","","-1","&#9730;","elianto","#3366ff99"," ","-1","0","0","[]","0","3&age=8&participant_ID=5&order=1","1","7","1","1","win","go","0"
"pit-trial","10","59287","0.0-10.0","battery-v0.2","","","-1","&#9752;","elianto","#f73b6a7A"," ","-1","0","-10","[]","0","3&age=8&participant_ID=5&order=1","1","8","3","3","lose","go","0"
"pit-trial","11","64147","0.0-11.0","battery-v0.2","","","-1","&#9728;","elianto","#f73b6a7A","-1","-1","1","0","[]","0","3&age=8&participant_ID=5&order=1","1","9","0","4","lose","no-go","0"
"pit-trial","12","69005","0.0-12.0","battery-v0.2","","","-1","&#9752;","elianto","#f73b6a7A"," ","-1","0","-10","[]","0","3&age=8&participant_ID=5&order=1","1","10","3","3","lose","go","0"
"pit-trial","13","73864","0.0-13.0","battery-v0.2","","","-1","&#9733;","elianto","#3366ff99","-1","-1","1","+10","[]","0","3&age=8&participant_ID=5&order=1","1","11","2","2","win","no-go","0"
"pit-trial","14","78728","0.0-14.0","battery-v0.2","","","-1","&#9730;","elianto","#3366ff99"," ","-1","0","0","[]","0","3&age=8&participant_ID=5&order=1","1","12","1","1","win","go","0"
"pit-trial","15","83592","0.0-15.0","battery-v0.2","","","-1","&#9752;","elianto","#f73b6a7A"," ","-1","0","0","[]","0","3&age=8&participant_ID=5&order=1","1","13","3","3","lose","go","1"
"pit-trial","16","88456","0.0-16.0","battery-v0.2","","","-1","&#9728;","elianto","#f73b6a7A","-1","-1","1","0","[]","0","3&age=8&participant_ID=5&order=1","1","14","0","4","lose","no-go","0"
"pit-trial","17","93319","0.0-17.0","battery-v0.2","","","-1","&#9730;","elianto","#3366ff99"," ","-1","0","0","[]","0","3&age=8&participant_ID=5&order=1","1","15","1","1","win","go","0"
"pit-trial","18","98176","0.0-18.0","battery-v0.2","","","-1","&#9733;","elianto","#3366ff99","-1","-1","1","+10","[]","0","3&age=8&participant_ID=5&order=1","1","16","2","2","win","no-go","0"
"pit-trial","19","103037","0.0-19.0","battery-v0.2","","","-1","&#9728;","elianto","#f73b6a7A","-1","-1","1","0","[]","0","3&age=8&participant_ID=5&order=1","1","17","0","4","lose","no-go","0"
"pit-trial","20","107901","0.0-20.0","battery-v0.2","","","-1","&#9733;","elianto","#3366ff99","-1","-1","1","+10","[]","0","3&age=8&participant_ID=5&order=1","1","18","2","2","win","no-go","0"
"pit-trial","21","112759","0.0-21.0","battery-v0.2","","","-1","&#9730;","elianto","#3366ff99"," ","-1","0","+10","[]","0","3&age=8&participant_ID=5&order=1","1","19","1","1","win","go","1"
"pit-trial","22","117618","0.0-22.0","battery-v0.2","","","-1","&#9752;","elianto","#f73b6a7A"," ","-1","0","0","[]","0","3&age=8&participant_ID=5&order=1","1","20","3","3","lose","go","1"
"pit-instructions","23","149959","0.0-23.0","battery-v0.2","","[{""page_index"":0,""viewing_time"":24762.90000000596},{""page_index"":1,""viewing_time"":7575}]","32338.69999998808","","","","","","","","","","","","","","","","",""
"pit-trial","24","154825","0.0-24.0","battery-v0.2","","","-1","v","elianto","#3366ff99","-1","-1","1","+10","[]","0","3&age=8&participant_ID=5&order=1","2","21","0","2","win","no-go","0"
"pit-trial","25","159689","0.0-25.0","battery-v0.2","","","-1","j","elianto","#f73b6a7A"," ","-1","0","-10","[]","0","3&age=8&participant_ID=5&order=1","2","22","1","3","lose","go","0"
"pit-trial","26","164548","0.0-26.0","battery-v0.2","","","-1","k","elianto","#3366ff99"," ","-1","0","0","[]","0","3&age=8&participant_ID=5&order=1","2","23","3","1","win","go","0"
"pit-trial","27","169408","0.0-27.0","battery-v0.2","","","-1","d","elianto","#f73b6a7A","-1","-1","1","0","[]","0","3&age=8&participant_ID=5&order=1","2","24","2","4","lose","no-go","0"
"pit-trial","28","174271","0.0-28.0","battery-v0.2","","","-1","j","elianto","#f73b6a7A"," ","-1","0","-10","[]","0","3&age=8&participant_ID=5&order=1","2","25","1","3","lose","go","0"
"pit-trial","29","179132","0.0-29.0","battery-v0.2","","","-1","d","elianto","#f73b6a7A","-1","-1","1","-10","[]","0","3&age=8&participant_ID=5&order=1","2","26","2","4","lose","no-go","1"
"pit-trial","30","183995","0.0-30.0","battery-v0.2","","","-1","k","elianto","#3366ff99"," ","-1","0","0","[]","0","3&age=8&participant_ID=5&order=1","2","27","3","1","win","go","0"
"pit-trial","31","188856","0.0-31.0","battery-v0.2","","","-1","v","elianto","#3366ff99","-1","-1","1","+10","[]","0","3&age=8&participant_ID=5&order=1","2","28","0","2","win","no-go","0"
"pit-trial","32","192064","0.0-32.0","battery-v0.2","","","350.59999999403954","k","elianto","#3366ff99"," "," ","1","+10","[111.19999998807907,1200.7999999821186]","2","3&age=8&participant_ID=5&order=1","2","29","3","1","win","go","0"
"pit-trial","33","196923","0.0-33.0","battery-v0.2","","","-1","v","elianto","#3366ff99","-1","-1","1","+10","[]","0","3&age=8&participant_ID=5&order=1","2","30","0","2","win","no-go","0"
"pit-trial","34","201787","0.0-34.0","battery-v0.2","","","-1","j","elianto","#f73b6a7A"," ","-1","0","0","[]","0","3&age=8&participant_ID=5&order=1","2","31","1","3","lose","go","1"
"pit-trial","35","206645","0.0-35.0","battery-v0.2","","","-1","d","elianto","#f73b6a7A","-1","-1","1","0","[]","0","3&age=8&participant_ID=5&order=1","2","32","2","4","lose","no-go","0"
"pit-trial","36","211503","0.0-36.0","battery-v0.2","","","-1","k","elianto","#3366ff99"," ","-1","0","0","[]","0","3&age=8&participant_ID=5&order=1","2","33","3","1","win","go","0"
"pit-trial","37","216363","0.0-37.0","battery-v0.2","","","-1","d","elianto","#f73b6a7A","-1","-1","1","-10","[]","0","3&age=8&participant_ID=5&order=1","2","34","2","4","lose","no-go","1"
"pit-trial","38","221222","0.0-38.0","battery-v0.2","","","-1","v","elianto","#3366ff99","-1","-1","1","0","[]","0","3&age=8&participant_ID=5&order=1","2","35","0","2","win","no-go","1"
"pit-trial","39","226086","0.0-39.0","battery-v0.2","","","-1","j","elianto","#f73b6a7A"," ","-1","0","-10","[]","0","3&age=8&participant_ID=5&order=1","2","36","1","3","lose","go","0"
"pit-trial","40","230949","0.0-40.0","battery-v0.2","","","-1","k","elianto","#3366ff99"," ","-1","0","+10","[]","0","3&age=8&participant_ID=5&order=1","2","37","3","1","win","go","1"
"pit-trial","41","235809","0.0-41.0","battery-v0.2","","","-1","v","elianto","#3366ff99","-1","-1","1","+10","[]","0","3&age=8&participant_ID=5&order=1","2","38","0","2","win","no-go","0"
"pit-trial","42","240667","0.0-42.0","battery-v0.2","","","-1","d","elianto","#f73b6a7A","-1","-1","1","0","[]","0","3&age=8&participant_ID=5&order=1","2","39","2","4","lose","no-go","0"
"pit-trial","43","245531","0.0-43.0","battery-v0.2","","","-1","j","elianto","#f73b6a7A"," ","-1","0","-10","[]","0","3&age=8&participant_ID=5&order=1","2","40","1","3","lose","go","0"
"pit-trial","44","250395","0.0-44.0","battery-v0.2","","","-1","k","elianto","#3366ff99"," ","-1","0","0","[]","0","3&age=8&participant_ID=5&order=1","2","41","3","1","win","go","0"
"pit-trial","45","255259","0.0-45.0","battery-v0.2","","","-1","j","elianto","#f73b6a7A"," ","-1","0","-10","[]","0","3&age=8&participant_ID=5&order=1","2","42","1","3","lose","go","0"
"pit-trial","46","260123","0.0-46.0","battery-v0.2","","","-1","v","elianto","#3366ff99","-1","-1","1","0","[]","0","3&age=8&participant_ID=5&order=1","2","43","0","2","win","no-go","1"
"pit-trial","47","264987","0.0-47.0","battery-v0.2","","","-1","d","elianto","#f73b6a7A","-1","-1","1","-10","[]","0","3&age=8&participant_ID=5&order=1","2","44","2","4","lose","no-go","1"
"pit-trial","48","269851","0.0-48.0","battery-v0.2","","","-1","j","elianto","#f73b6a7A"," ","-1","0","-10","[]","0","3&age=8&participant_ID=5&order=1","2","45","1","3","lose","go","0"
"pit-trial","49","274710","0.0-49.0","battery-v0.2","","","-1","v","elianto","#3366ff99","-1","-1","1","+10","[]","0","3&age=8&participant_ID=5&order=1","2","46","0","2","win","no-go","0"
"pit-trial","50","280275","0.0-50.0","battery-v0.2","","","-1","k","elianto","#3366ff99"," ","-1","0","0","[]","0","3&age=8&participant_ID=5&order=1","2","47","3","1","win","go","0"
"pit-trial","51","285248","0.0-51.0","battery-v0.2","","","-1","d","elianto","#f73b6a7A","-1","-1","1","0","[]","0","3&age=8&participant_ID=5&order=1","2","48","2","4","lose","no-go","0"
"pit-trial","52","291659","0.0-52.0","battery-v0.2","","","-1","v","elianto","#3366ff99","-1","-1","1","0","[]","0","3&age=8&participant_ID=5&order=1","2","49","0","2","win","no-go","1"
"pit-trial","53","298290","0.0-53.0","battery-v0.2","","","-1","j","elianto","#f73b6a7A"," ","-1","0","-10","[]","0","3&age=8&participant_ID=5&order=1","2","50","1","3","lose","go","0"
"pit-trial","54","304170","0.0-54.0","battery-v0.2","","","-1","k","elianto","#3366ff99"," ","-1","0","0","[]","0","3&age=8&participant_ID=5&order=1","2","51","3","1","win","go","0"
"pit-trial","55","310554","0.0-55.0","battery-v0.2","","","-1","d","elianto","#f73b6a7A","-1","-1","1","0","[]","0","3&age=8&participant_ID=5&order=1","2","52","2","4","lose","no-go","0"
"pit-trial","56","317691","0.0-56.0","battery-v0.2","","","-1","j","elianto","#f73b6a7A"," ","-1","0","-10","[]","0","3&age=8&participant_ID=5&order=1","2","53","1","3","lose","go","0"
"pit-trial","57","324682","0.0-57.0","battery-v0.2","","","-1","w","elianto","#f73b6a7A","-1","-1","1","0","[]","0","3&age=8&participant_ID=5&order=1","2","54","5","4","lose","no-go","0"
"pit-trial","58","331598","0.0-58.0","battery-v0.2","","","-1","d","elianto","#f73b6a7A","-1","-1","1","0","[]","0","3&age=8&participant_ID=5&order=1","2","55","2","4","lose","no-go","0"
"pit-trial","59","338204","0.0-59.0","battery-v0.2","","","-1","e","elianto","#f73b6a7A"," ","-1","0","-10","[]","0","3&age=8&participant_ID=5&order=1","2","56","4","3","lose","go","0"
"pit-trial","60","344796","0.0-60.0","battery-v0.2","","","-1","j","elianto","#f73b6a7A"," ","-1","0","-10","[]","0","3&age=8&participant_ID=5&order=1","2","57","1","3","lose","go","0"
"pit-trial","61","351328","0.0-61.0","battery-v0.2","","","-1","w","elianto","#f73b6a7A","-1","-1","1","0","[]","0","3&age=8&participant_ID=5&order=1","2","58","5","4","lose","no-go","0"
"pit-trial","62","358394","0.0-62.0","battery-v0.2","","","-1","d","elianto","#f73b6a7A","-1","-1","1","0","[]","0","3&age=8&participant_ID=5&order=1","2","59","2","4","lose","no-go","0"
"pit-trial","63","365171","0.0-63.0","battery-v0.2","","","-1","e","elianto","#f73b6a7A"," ","-1","0","0","[]","0","3&age=8&participant_ID=5&order=1","2","60","4","3","lose","go","1"
"pit-trial","64","370211","0.0-64.0","battery-v0.2","","","-1","d","elianto","#f73b6a7A","-1","-1","1","0","[]","0","3&age=8&participant_ID=5&order=1","2","61","2","4","lose","no-go","0"
"pit-trial","65","376667","0.0-65.0","battery-v0.2","","","-1","w","elianto","#f73b6a7A","-1","-1","1","0","[]","0","3&age=8&participant_ID=5&order=1","2","62","5","4","lose","no-go","0"
"pit-trial","66","383927","0.0-66.0","battery-v0.2","","","-1","e","elianto","#f73b6a7A"," ","-1","0","0","[]","0","3&age=8&participant_ID=5&order=1","2","63","4","3","lose","go","1"
"pit-trial","67","391162","0.0-67.0","battery-v0.2","","","-1","s","elianto","#3366ff99","-1","-1","1","+10","[]","0","3&age=8&participant_ID=5&order=1","2","64","6","2","win","no-go","0"
"pit-trial","68","397441","0.0-68.0","battery-v0.2","","","-1","e","elianto","#f73b6a7A"," ","-1","0","-10","[]","0","3&age=8&participant_ID=5&order=1","2","65","4","3","lose","go","0"
"pit-trial","69","405013","0.0-69.0","battery-v0.2","","","-1","s","elianto","#3366ff99","-1","-1","1","+10","[]","0","3&age=8&participant_ID=5&order=1","2","66","6","2","win","no-go","0"
"pit-trial","70","412033","0.0-70.0","battery-v0.2","","","-1","w","elianto","#f73b6a7A","-1","-1","1","0","[]","0","3&age=8&participant_ID=5&order=1","2","67","5","4","lose","no-go","0"
"pit-trial","71","418438","0.0-71.0","battery-v0.2","","","-1","d","elianto","#f73b6a7A","-1","-1","1","0","[]","0","3&age=8&participant_ID=5&order=1","2","68","2","4","lose","no-go","0"
"pit-trial","72","425889","0.0-72.0","battery-v0.2","","","-1","e","elianto","#f73b6a7A"," ","-1","0","-10","[]","0","3&age=8&participant_ID=5&order=1","2","69","4","3","lose","go","0"
"pit-trial","73","432907","0.0-73.0","battery-v0.2","","","-1","p","elianto","#3366ff99"," ","-1","0","+10","[]","0","3&age=8&participant_ID=5&order=1","2","70","7","1","win","go","1"
"pit-trial","74","440113","0.0-74.0","battery-v0.2","","","-1","s","elianto","#3366ff99","-1","-1","1","+10","[]","0","3&age=8&participant_ID=5&order=1","2","71","6","2","win","no-go","0"
"pit-trial","75","447070","0.0-75.0","battery-v0.2","","","-1","w","elianto","#f73b6a7A","-1","-1","1","0","[]","0","3&age=8&participant_ID=5&order=1","2","72","5","4","lose","no-go","0"
"pit-trial","76","454098","0.0-76.0","battery-v0.2","","","-1","p","elianto","#3366ff99"," ","-1","0","0","[]","0","3&age=8&participant_ID=5&order=1","2","73","7","1","win","go","0"
"pit-trial","77","460899","0.0-77.0","battery-v0.2","","","-1","w","elianto","#f73b6a7A","-1","-1","1","0","[]","0","3&age=8&participant_ID=5&order=1","2","74","5","4","lose","no-go","0"
"pit-trial","78","467206","0.0-78.0","battery-v0.2","","","-1","e","elianto","#f73b6a7A"," ","-1","0","-10","[]","0","3&age=8&participant_ID=5&order=1","2","75","4","3","lose","go","0"
"pit-trial","79","473894","0.0-79.0","battery-v0.2","","","-1","s","elianto","#3366ff99","-1","-1","1","+10","[]","0","3&age=8&participant_ID=5&order=1","2","76","6","2","win","no-go","0"
"pit-trial","80","481072","0.0-80.0","battery-v0.2","","","-1","e","elianto","#f73b6a7A"," ","-1","0","0","[]","0","3&age=8&participant_ID=5&order=1","2","77","4","3","lose","go","1"
"pit-trial","81","487558","0.0-81.0","battery-v0.2","","","-1","w","elianto","#f73b6a7A","-1","-1","1","-10","[]","0","3&age=8&participant_ID=5&order=1","2","78","5","4","lose","no-go","1"
"pit-trial","82","494982","0.0-82.0","battery-v0.2","","","-1","s","elianto","#3366ff99","-1","-1","1","+10","[]","0","3&age=8&participant_ID=5&order=1","2","79","6","2","win","no-go","0"
"pit-trial","83","501606","0.0-83.0","battery-v0.2","","","-1","p","elianto","#3366ff99"," ","-1","0","0","[]","0","3&age=8&participant_ID=5&order=1","2","80","7","1","win","go","0"
"pit-trial","84","508897","0.0-84.0","battery-v0.2","","","-1","s","elianto","#3366ff99","-1","-1","1","+10","[]","0","3&age=8&participant_ID=5&order=1","2","81","6","2","win","no-go","0"
"pit-trial","85","515200","0.0-85.0","battery-v0.2","","","-1","p","elianto","#3366ff99"," ","-1","0","0","[]","0","3&age=8&participant_ID=5&order=1","2","82","7","1","win","go","0"
"pit-trial","86","520177","0.0-86.0","battery-v0.2","","","-1","e","elianto","#f73b6a7A"," ","-1","0","-10","[]","0","3&age=8&participant_ID=5&order=1","2","83","4","3","lose","go","0"
"pit-trial","87","526504","0.0-87.0","battery-v0.2","","","-1","w","elianto","#f73b6a7A","-1","-1","1","0","[]","0","3&age=8&participant_ID=5&order=1","2","84","5","4","lose","no-go","0"
"pit-trial","88","533171","0.0-88.0","battery-v0.2","","","-1","e","elianto","#f73b6a7A"," ","-1","0","-10","[]","0","3&age=8&participant_ID=5&order=1","2","85","4","3","lose","go","0"
"pit-trial","89","539172","0.0-89.0","battery-v0.2","","","-1","p","elianto","#3366ff99"," ","-1","0","+10","[]","0","3&age=8&participant_ID=5&order=1","2","86","7","1","win","go","1"
"pit-trial","90","545398","0.0-90.0","battery-v0.2","","","-1","s","elianto","#3366ff99","-1","-1","1","+10","[]","0","3&age=8&participant_ID=5&order=1","2","87","6","2","win","no-go","0"
"pit-trial","91","552229","0.0-91.0","battery-v0.2","","","-1","w","elianto","#f73b6a7A","-1","-1","1","0","[]","0","3&age=8&participant_ID=5&order=1","2","88","5","4","lose","no-go","0"
"pit-trial","92","558945","0.0-92.0","battery-v0.2","","","-1","w","elianto","#f73b6a7A","-1","-1","1","0","[]","0","3&age=8&participant_ID=5&order=1","2","89","5","4","lose","no-go","0"
"pit-trial","93","566136","0.0-93.0","battery-v0.2","","","-1","p","elianto","#3366ff99"," ","-1","0","0","[]","0","3&age=8&participant_ID=5&order=1","2","90","7","1","win","go","0"
"pit-trial","94","572848","0.0-94.0","battery-v0.2","","","-1","s","elianto","#3366ff99","-1","-1","1","0","[]","0","3&age=8&participant_ID=5&order=1","2","91","6","2","win","no-go","1"
"pit-trial","95","579194","0.0-95.0","battery-v0.2","","","-1","e","elianto","#f73b6a7A"," ","-1","0","-10","[]","0","3&age=8&participant_ID=5&order=1","2","92","4","3","lose","go","0"
"pit-trial","96","585958","0.0-96.0","battery-v0.2","","","-1","s","elianto","#3366ff99","-1","-1","1","+10","[]","0","3&age=8&participant_ID=5&order=1","2","93","6","2","win","no-go","0"
"pit-trial","97","593062","0.0-97.0","battery-v0.2","","","-1","p","elianto","#3366ff99"," ","-1","0","0","[]","0","3&age=8&participant_ID=5&order=1","2","94","7","1","win","go","0"
"pit-trial","98","599958","0.0-98.0","battery-v0.2","","","-1","e","elianto","#f73b6a7A"," ","-1","0","-10","[]","0","3&age=8&participant_ID=5&order=1","2","95","4","3","lose","go","0"
"pit-trial","99","607011","0.0-99.0","battery-v0.2","","","-1","g","elianto","#3366ff99"," ","-1","0","+10","[]","0","3&age=8&participant_ID=5&order=1","2","96","8","1","win","go","1"
"pit-trial","100","614145","0.0-100.0","battery-v0.2","","","-1","e","elianto","#f73b6a7A"," ","-1","0","-10","[]","0","3&age=8&participant_ID=5&order=1","2","97","4","3","lose","go","0"
"pit-trial","101","620170","0.0-101.0","battery-v0.2","","","-1","s","elianto","#3366ff99","-1","-1","1","+10","[]","0","3&age=8&participant_ID=5&order=1","2","98","6","2","win","no-go","0"
"pit-trial","102","626247","0.0-102.0","battery-v0.2","","","-1","p","elianto","#3366ff99"," ","-1","0","0","[]","0","3&age=8&participant_ID=5&order=1","2","99","7","1","win","go","0"
"pit-trial","103","632337","0.0-103.0","battery-v0.2","","","-1","g","elianto","#3366ff99"," ","-1","0","+10","[]","0","3&age=8&participant_ID=5&order=1","2","100","8","1","win","go","1"
"pit-trial","104","639505","0.0-104.0","battery-v0.2","","","-1","g","elianto","#3366ff99"," ","-1","0","0","[]","0","3&age=8&participant_ID=5&order=1","2","101","8","1","win","go","0"
"pit-trial","105","646424","0.0-105.0","battery-v0.2","","","-1","p","elianto","#3366ff99"," ","-1","0","0","[]","0","3&age=8&participant_ID=5&order=1","2","102","7","1","win","go","0"
"pit-trial","106","653230","0.0-106.0","battery-v0.2","","","-1","s","elianto","#3366ff99","-1","-1","1","+10","[]","0","3&age=8&participant_ID=5&order=1","2","103","6","2","win","no-go","0"
"pit-trial","107","659705","0.0-107.0","battery-v0.2","","","-1","a","elianto","#3366ff99","-1","-1","1","+10","[]","0","3&age=8&participant_ID=5&order=1","2","104","9","2","win","no-go","0"
"pit-trial","108","666510","0.0-108.0","battery-v0.2","","","-1","s","elianto","#3366ff99","-1","-1","1","0","[]","0","3&age=8&participant_ID=5&order=1","2","105","6","2","win","no-go","1"
"pit-trial","109","673111","0.0-109.0","battery-v0.2","","","-1","p","elianto","#3366ff99"," ","-1","0","+10","[]","0","3&age=8&participant_ID=5&order=1","2","106","7","1","win","go","1"
"pit-trial","110","679347","0.0-110.0","battery-v0.2","","","-1","a","elianto","#3366ff99","-1","-1","1","0","[]","0","3&age=8&participant_ID=5&order=1","2","107","9","2","win","no-go","1"
"pit-trial","111","686110","0.0-111.0","battery-v0.2","","","-1","g","elianto","#3366ff99"," ","-1","0","+10","[]","0","3&age=8&participant_ID=5&order=1","2","108","8","1","win","go","1"
"pit-trial","112","690970","0.0-112.0","battery-v0.2","","","-1","l","elianto","#f73b6a7A"," ","-1","0","-10","[]","0","3&age=8&participant_ID=5&order=1","2","109","10","3","lose","go","0"
"pit-trial","113","695829","0.0-113.0","battery-v0.2","","","-1","a","elianto","#3366ff99","-1","-1","1","+10","[]","0","3&age=8&participant_ID=5&order=1","2","110","9","2","win","no-go","0"
"pit-trial","114","701130","0.0-114.0","battery-v0.2","","","-1","g","elianto","#3366ff99"," ","-1","0","0","[]","0","3&age=8&participant_ID=5&order=1","2","111","8","1","win","go","0"
"pit-trial","115","707785","0.0-115.0","battery-v0.2","","","-1","u","elianto","#f73b6a7A","-1","-1","1","0","[]","0","3&age=8&participant_ID=5&order=1","2","112","11","4","lose","no-go","0"
"pit-trial","116","712644","0.0-116.0","battery-v0.2","","","-1","g","elianto","#3366ff99"," ","-1","0","0","[]","0","3&age=8&participant_ID=5&order=1","2","113","8","1","win","go","0"
"pit-trial","117","717508","0.0-117.0","battery-v0.2","","","-1","u","elianto","#f73b6a7A","-1","-1","1","0","[]","0","3&age=8&participant_ID=5&order=1","2","114","11","4","lose","no-go","0"
"pit-trial","118","722371","0.0-118.0","battery-v0.2","","","-1","a","elianto","#3366ff99","-1","-1","1","+10","[]","0","3&age=8&participant_ID=5&order=1","2","115","9","2","win","no-go","0"
"pit-trial","119","727230","0.0-119.0","battery-v0.2","","","-1","l","elianto","#f73b6a7A"," ","-1","0","-10","[]","0","3&age=8&participant_ID=5&order=1","2","116","10","3","lose","go","0"
"pit-trial","120","732085","0.0-120.0","battery-v0.2","","","-1","a","elianto","#3366ff99","-1","-1","1","+10","[]","0","3&age=8&participant_ID=5&order=1","2","117","9","2","win","no-go","0"
"pit-trial","121","736943","0.0-121.0","battery-v0.2","","","-1","u","elianto","#f73b6a7A","-1","-1","1","0","[]","0","3&age=8&participant_ID=5&order=1","2","118","11","4","lose","no-go","0"
"pit-trial","122","741801","0.0-122.0","battery-v0.2","","","-1","l","elianto","#f73b6a7A"," ","-1","0","-10","[]","0","3&age=8&participant_ID=5&order=1","2","119","10","3","lose","go","0"
"pit-trial","123","746660","0.0-123.0","battery-v0.2","","","-1","g","elianto","#3366ff99"," ","-1","0","0","[]","0","3&age=8&participant_ID=5&order=1","2","120","8","1","win","go","0"
"pit-trial","124","751519","0.0-124.0","battery-v0.2","","","-1","g","elianto","#3366ff99"," ","-1","0","0","[]","0","3&age=8&participant_ID=5&order=1","2","121","8","1","win","go","0"
"pit-trial","125","756382","0.0-125.0","battery-v0.2","","","-1","u","elianto","#f73b6a7A","-1","-1","1","0","[]","0","3&age=8&participant_ID=5&order=1","2","122","11","4","lose","no-go","0"
"pit-trial","126","761242","0.0-126.0","battery-v0.2","","","-1","a","elianto","#3366ff99","-1","-1","1","+10","[]","0","3&age=8&participant_ID=5&order=1","2","123","9","2","win","no-go","0"
"pit-trial","127","766105","0.0-127.0","battery-v0.2","","","-1","l","elianto","#f73b6a7A"," ","-1","0","-10","[]","0","3&age=8&participant_ID=5&order=1","2","124","10","3","lose","go","0"
"pit-trial","128","770964","0.0-128.0","battery-v0.2","","","-1","u","elianto","#f73b6a7A","-1","-1","1","0","[]","0","3&age=8&participant_ID=5&order=1","2","125","11","4","lose","no-go","0"
"pit-trial","129","775829","0.0-129.0","battery-v0.2","","","-1","g","elianto","#3366ff99"," ","-1","0","+10","[]","0","3&age=8&participant_ID=5&order=1","2","126","8","1","win","go","1"
"pit-trial","130","780692","0.0-130.0","battery-v0.2","","","-1","a","elianto","#3366ff99","-1","-1","1","+10","[]","0","3&age=8&participant_ID=5&order=1","2","127","9","2","win","no-go","0"
"pit-trial","131","785556","0.0-131.0","battery-v0.2","","","-1","l","elianto","#f73b6a7A"," ","-1","0","-10","[]","0","3&age=8&participant_ID=5&order=1","2","128","10","3","lose","go","0"
"pit-trial","132","790420","0.0-132.0","battery-v0.2","","","-1","l","elianto","#f73b6a7A"," ","-1","0","-10","[]","0","3&age=8&participant_ID=5&order=1","2","129","10","3","lose","go","0"
"pit-trial","133","795284","0.0-133.0","battery-v0.2","","","-1","u","elianto","#f73b6a7A","-1","-1","1","-10","[]","0","3&age=8&participant_ID=5&order=1","2","130","11","4","lose","no-go","1"
"pit-trial","134","800147","0.0-134.0","battery-v0.2","","","-1","a","elianto","#3366ff99","-1","-1","1","+10","[]","0","3&age=8&participant_ID=5&order=1","2","131","9","2","win","no-go","0"
"pit-trial","135","805006","0.0-135.0","battery-v0.2","","","-1","g","elianto","#3366ff99"," ","-1","0","0","[]","0","3&age=8&participant_ID=5&order=1","2","132","8","1","win","go","0"
"pit-trial","136","809865","0.0-136.0","battery-v0.2","","","-1","l","elianto","#f73b6a7A"," ","-1","0","-10","[]","0","3&age=8&participant_ID=5&order=1","2","133","10","3","lose","go","0"
"pit-trial","137","814729","0.0-137.0","battery-v0.2","","","-1","g","elianto","#3366ff99"," ","-1","0","0","[]","0","3&age=8&participant_ID=5&order=1","2","134","8","1","win","go","0"
"pit-trial","138","819582","0.0-138.0","battery-v0.2","","","-1","u","elianto","#f73b6a7A","-1","-1","1","0","[]","0","3&age=8&participant_ID=5&order=1","2","135","11","4","lose","no-go","0"
"pit-trial","139","824441","0.0-139.0","battery-v0.2","","","-1","a","elianto","#3366ff99","-1","-1","1","0","[]","0","3&age=8&participant_ID=5&order=1","2","136","9","2","win","no-go","1"
"pit-trial","140","829305","0.0-140.0","battery-v0.2","","","-1","g","elianto","#3366ff99"," ","-1","0","0","[]","0","3&age=8&participant_ID=5&order=1","2","137","8","1","win","go","0"
"pit-trial","141","834167","0.0-141.0","battery-v0.2","","","-1","a","elianto","#3366ff99","-1","-1","1","+10","[]","0","3&age=8&participant_ID=5&order=1","2","138","9","2","win","no-go","0"
"pit-trial","142","839028","0.0-142.0","battery-v0.2","","","-1","u","elianto","#f73b6a7A","-1","-1","1","0","[]","0","3&age=8&participant_ID=5&order=1","2","139","11","4","lose","no-go","0"
"pit-trial","143","843887","0.0-143.0","battery-v0.2","","","-1","l","elianto","#f73b6a7A"," ","-1","0","-10","[]","0","3&age=8&participant_ID=5&order=1","2","140","10","3","lose","go","0"
"pit-instructions","144","861826","0.0-144.0","battery-v0.2","","[{""page_index"":0,""viewing_time"":9682.700000017881},{""page_index"":1,""viewing_time"":8252.299999982119}]","17935.5","","","","","","","","","","","","","","","","",""
"pit-trial","145","866688","0.0-145.0","battery-v0.2","","","-1","h","elianto","#f73b6a7A"," ","-1","0","-10","[]","0","3&age=8&participant_ID=5&order=1","3","141","3","3","lose","go","0"
"pit-trial","146","871545","0.0-146.0","battery-v0.2","","","-1","m","elianto","#3366ff99","-1","-1","1","+10","[]","0","3&age=8&participant_ID=5&order=1","3","142","0","2","win","no-go","0"
"pit-trial","147","876403","0.0-147.0","battery-v0.2","","","-1","y","elianto","#3366ff99"," ","-1","0","0","[]","0","3&age=8&participant_ID=5&order=1","3","143","2","1","win","go","0"
"pit-trial","148","881267","0.0-148.0","battery-v0.2","","","-1","r","elianto","#3366ff99","-1","-1","1","+10","[]","0","3&age=8&participant_ID=5&order=1","3","144","1","2","win","no-go","0"
"pit-trial","149","886253","0.0-149.0","battery-v0.2","","","-1","m","elianto","#3366ff99","-1","-1","1","+10","[]","0","3&age=8&participant_ID=5&order=1","3","145","0","2","win","no-go","0"
"pit-trial","150","891430","0.0-150.0","battery-v0.2","","","-1","r","elianto","#3366ff99","-1","-1","1","+10","[]","0","3&age=8&participant_ID=5&order=1","3","146","1","2","win","no-go","0"
"pit-trial","151","898355","0.0-151.0","battery-v0.2","","","-1","y","elianto","#3366ff99"," ","-1","0","0","[]","0","3&age=8&participant_ID=5&order=1","3","147","2","1","win","go","0"
"pit-trial","152","905109","0.0-152.0","battery-v0.2","","","-1","h","elianto","#f73b6a7A"," ","-1","0","0","[]","0","3&age=8&participant_ID=5&order=1","3","148","3","3","lose","go","1"
"pit-trial","153","911110","0.0-153.0","battery-v0.2","","","-1","y","elianto","#3366ff99"," ","-1","0","0","[]","0","3&age=8&participant_ID=5&order=1","3","149","2","1","win","go","0"
"pit-trial","154","917057","0.0-154.0","battery-v0.2","","","-1","h","elianto","#f73b6a7A"," ","-1","0","-10","[]","0","3&age=8&participant_ID=5&order=1","3","150","3","3","lose","go","0"
"pit-trial","155","922139","0.0-155.0","battery-v0.2","","","-1","m","elianto","#3366ff99","-1","-1","1","+10","[]","0","3&age=8&participant_ID=5&order=1","3","151","0","2","win","no-go","0"
"pit-trial","156","928132","0.0-156.0","battery-v0.2","","","-1","r","elianto","#3366ff99","-1","-1","1","+10","[]","0","3&age=8&participant_ID=5&order=1","3","152","1","2","win","no-go","0"
"pit-trial","157","934393","0.0-157.0","battery-v0.2","","","-1","m","elianto","#3366ff99","-1","-1","1","+10","[]","0","3&age=8&participant_ID=5&order=1","3","153","0","2","win","no-go","0"
"pit-trial","158","941189","0.0-158.0","battery-v0.2","","","-1","y","elianto","#3366ff99"," ","-1","0","0","[]","0","3&age=8&participant_ID=5&order=1","3","154","2","1","win","go","0"
"pit-trial","159","947273","0.0-159.0","battery-v0.2","","","-1","r","elianto","#3366ff99","-1","-1","1","+10","[]","0","3&age=8&participant_ID=5&order=1","3","155","1","2","win","no-go","0"
"pit-trial","160","954112","0.0-160.0","battery-v0.2","","","-1","h","elianto","#f73b6a7A"," ","-1","0","-10","[]","0","3&age=8&participant_ID=5&order=1","3","156","3","3","lose","go","0"
"pit-trial","161","960880","0.0-161.0","battery-v0.2","","","-1","m","elianto","#3366ff99","-1","-1","1","+10","[]","0","3&age=8&participant_ID=5&order=1","3","157","0","2","win","no-go","0"
"pit-trial","162","967734","0.0-162.0","battery-v0.2","","","-1","r","elianto","#3366ff99","-1","-1","1","+10","[]","0","3&age=8&participant_ID=5&order=1","3","158","1","2","win","no-go","0"
"pit-trial","163","974108","0.0-163.0","battery-v0.2","","","-1","y","elianto","#3366ff99"," ","-1","0","0","[]","0","3&age=8&participant_ID=5&order=1","3","159","2","1","win","go","0"
"pit-trial","164","980902","0.0-164.0","battery-v0.2","","","-1","h","elianto","#f73b6a7A"," ","-1","0","-10","[]","0","3&age=8&participant_ID=5&order=1","3","160","3","3","lose","go","0"
"pit-trial","165","987957","0.0-165.0","battery-v0.2","","","-1","y","elianto","#3366ff99"," ","-1","0","0","[]","0","3&age=8&participant_ID=5&order=1","3","161","2","1","win","go","0"
"pit-trial","166","994507","0.0-166.0","battery-v0.2","","","-1","r","elianto","#3366ff99","-1","-1","1","+10","[]","0","3&age=8&participant_ID=5&order=1","3","162","1","2","win","no-go","0"
"pit-trial","167","1001883","0.0-167.0","battery-v0.2","","","-1","h","elianto","#f73b6a7A"," ","-1","0","0","[]","0","3&age=8&participant_ID=5&order=1","3","163","3","3","lose","go","1"
"pit-trial","168","1009069","0.0-168.0","battery-v0.2","","","-1","m","elianto","#3366ff99","-1","-1","1","0","[]","0","3&age=8&participant_ID=5&order=1","3","164","0","2","win","no-go","1"
"pit-trial","169","1015795","0.0-169.0","battery-v0.2","","","-1","y","elianto","#3366ff99"," ","-1","0","0","[]","0","3&age=8&participant_ID=5&order=1","3","165","2","1","win","go","0"
"pit-trial","170","1022187","0.0-170.0","battery-v0.2","","","-1","r","elianto","#3366ff99","-1","-1","1","0","[]","0","3&age=8&participant_ID=5&order=1","3","166","1","2","win","no-go","1"
"pit-trial","171","1028869","0.0-171.0","battery-v0.2","","","-1","h","elianto","#f73b6a7A"," ","-1","0","0","[]","0","3&age=8&participant_ID=5&order=1","3","167","3","3","lose","go","1"
"pit-trial","172","1036101","0.0-172.0","battery-v0.2","","","-1","m","elianto","#3366ff99","-1","-1","1","+10","[]","0","3&age=8&participant_ID=5&order=1","3","168","0","2","win","no-go","0"
"pit-trial","173","1042558","0.0-173.0","battery-v0.2","","","-1","r","elianto","#3366ff99","-1","-1","1","+10","[]","0","3&age=8&participant_ID=5&order=1","3","169","1","2","win","no-go","0"
"pit-trial","174","1049689","0.0-174.0","battery-v0.2","","","-1","y","elianto","#3366ff99"," ","-1","0","+10","[]","0","3&age=8&participant_ID=5&order=1","3","170","2","1","win","go","1"
"pit-trial","175","1056698","0.0-175.0","battery-v0.2","","","-1","m","elianto","#3366ff99","-1","-1","1","+10","[]","0","3&age=8&participant_ID=5&order=1","3","171","0","2","win","no-go","0"
"pit-trial","176","1063973","0.0-176.0","battery-v0.2","","","-1","h","elianto","#f73b6a7A"," ","-1","0","0","[]","0","3&age=8&participant_ID=5&order=1","3","172","3","3","lose","go","1"
"pit-trial","177","1070108","0.0-177.0","battery-v0.2","","","-1","z","elianto","#f73b6a7A","-1","-1","1","0","[]","0","3&age=8&participant_ID=5&order=1","3","173","4","4","lose","no-go","0"
"pit-trial","178","1075110","0.0-178.0","battery-v0.2","","","-1","m","elianto","#3366ff99","-1","-1","1","+10","[]","0","3&age=8&participant_ID=5&order=1","3","174","0","2","win","no-go","0"
"pit-trial","179","1081322","0.0-179.0","battery-v0.2","","","-1","c","elianto","#f73b6a7A"," ","-1","0","-10","[]","0","3&age=8&participant_ID=5&order=1","3","175","5","3","lose","go","0"
"pit-trial","180","1088110","0.0-180.0","battery-v0.2","","","-1","y","elianto","#3366ff99"," ","-1","0","0","[]","0","3&age=8&participant_ID=5&order=1","3","176","2","1","win","go","0"
"pit-trial","181","1094108","0.0-181.0","battery-v0.2","","","-1","m","elianto","#3366ff99","-1","-1","1","0","[]","0","3&age=8&participant_ID=5&order=1","3","177","0","2","win","no-go","1"
"pit-trial","182","1100480","0.0-182.0","battery-v0.2","","","-1","c","elianto","#f73b6a7A"," ","-1","0","-10","[]","0","3&age=8&participant_ID=5&order=1","3","178","5","3","lose","go","0"
"pit-trial","183","1107397","0.0-183.0","battery-v0.2","","","-1","z","elianto","#f73b6a7A","-1","-1","1","0","[]","0","3&age=8&participant_ID=5&order=1","3","179","4","4","lose","no-go","0"
"pit-trial","184","1114278","0.0-184.0","battery-v0.2","","","-1","y","elianto","#3366ff99"," ","-1","0","0","[]","0","3&age=8&participant_ID=5&order=1","3","180","2","1","win","go","0"
"pit-trial","185","1121936","0.0-185.0","battery-v0.2","","","-1","y","elianto","#3366ff99"," ","-1","0","0","[]","0","3&age=8&participant_ID=5&order=1","3","181","2","1","win","go","0"
"pit-trial","186","1128344","0.0-186.0","battery-v0.2","","","-1","z","elianto","#f73b6a7A","-1","-1","1","0","[]","0","3&age=8&participant_ID=5&order=1","3","182","4","4","lose","no-go","0"
"pit-trial","187","1135194","0.0-187.0","battery-v0.2","","","-1","b","elianto","#3366ff99","-1","-1","1","+10","[]","0","3&age=8&participant_ID=5&order=1","3","183","6","2","win","no-go","0"
"pit-trial","188","1141920","0.0-188.0","battery-v0.2","","","-1","c","elianto","#f73b6a7A"," ","-1","0","-10","[]","0","3&age=8&participant_ID=5&order=1","3","184","5","3","lose","go","0"
"pit-trial","189","1149023","0.0-189.0","battery-v0.2","","","-1","z","elianto","#f73b6a7A","-1","-1","1","0","[]","0","3&age=8&participant_ID=5&order=1","3","185","4","4","lose","no-go","0"
"pit-trial","190","1155108","0.0-190.0","battery-v0.2","","","-1","y","elianto","#3366ff99"," ","-1","0","0","[]","0","3&age=8&participant_ID=5&order=1","3","186","2","1","win","go","0"
"pit-trial","191","1161110","0.0-191.0","battery-v0.2","","","-1","c","elianto","#f73b6a7A"," ","-1","0","-10","[]","0","3&age=8&participant_ID=5&order=1","3","187","5","3","lose","go","0"
"pit-trial","192","1167706","0.0-192.0","battery-v0.2","","","-1","b","elianto","#3366ff99","-1","-1","1","+10","[]","0","3&age=8&participant_ID=5&order=1","3","188","6","2","win","no-go","0"
"pit-trial","193","1174132","0.0-193.0","battery-v0.2","","","-1","c","elianto","#f73b6a7A"," ","-1","0","-10","[]","0","3&age=8&participant_ID=5&order=1","3","189","5","3","lose","go","0"
"pit-trial","194","1180853","0.0-194.0","battery-v0.2","","","-1","b","elianto","#3366ff99","-1","-1","1","+10","[]","0","3&age=8&participant_ID=5&order=1","3","190","6","2","win","no-go","0"
"pit-trial","195","1188079","0.0-195.0","battery-v0.2","","","-1","t","elianto","#f73b6a7A","-1","-1","1","0","[]","0","3&age=8&participant_ID=5&order=1","3","191","7","4","lose","no-go","0"
"pit-trial","196","1194775","0.0-196.0","battery-v0.2","","","-1","z","elianto","#f73b6a7A","-1","-1","1","0","[]","0","3&age=8&participant_ID=5&order=1","3","192","4","4","lose","no-go","0"
"pit-trial","197","1201109","0.0-197.0","battery-v0.2","","","-1","z","elianto","#f73b6a7A","-1","-1","1","-10","[]","0","3&age=8&participant_ID=5&order=1","3","193","4","4","lose","no-go","1"
"pit-trial","198","1207777","0.0-198.0","battery-v0.2","","","-1","b","elianto","#3366ff99","-1","-1","1","+10","[]","0","3&age=8&participant_ID=5&order=1","3","194","6","2","win","no-go","0"
"pit-trial","199","1213280","0.0-199.0","battery-v0.2","","","-1","c","elianto","#f73b6a7A"," ","-1","0","-10","[]","0","3&age=8&participant_ID=5&order=1","3","195","5","3","lose","go","0"
"pit-trial","200","1220325","0.0-200.0","battery-v0.2","","","-1","t","elianto","#f73b6a7A","-1","-1","1","-10","[]","0","3&age=8&participant_ID=5&order=1","3","196","7","4","lose","no-go","1"
"pit-trial","201","1227813","0.0-201.0","battery-v0.2","","","-1","t","elianto","#f73b6a7A","-1","-1","1","0","[]","0","3&age=8&participant_ID=5&order=1","3","197","7","4","lose","no-go","0"
"pit-trial","202","1234181","0.0-202.0","battery-v0.2","","","-1","b","elianto","#3366ff99","-1","-1","1","0","[]","0","3&age=8&participant_ID=5&order=1","3","198","6","2","win","no-go","1"
"pit-trial","203","1240107","0.0-203.0","battery-v0.2","","","-1","c","elianto","#f73b6a7A"," ","-1","0","-10","[]","0","3&age=8&participant_ID=5&order=1","3","199","5","3","lose","go","0"
"pit-trial","204","1246110","0.0-204.0","battery-v0.2","","","-1","z","elianto","#f73b6a7A","-1","-1","1","0","[]","0","3&age=8&participant_ID=5&order=1","3","200","4","4","lose","no-go","0"
"pit-trial","205","1252107","0.0-205.0","battery-v0.2","","","-1","c","elianto","#f73b6a7A"," ","-1","0","0","[]","0","3&age=8&participant_ID=5&order=1","3","201","5","3","lose","go","1"
"pit-trial","206","1258379","0.0-206.0","battery-v0.2","","","-1","t","elianto","#f73b6a7A","-1","-1","1","0","[]","0","3&age=8&participant_ID=5&order=1","3","202","7","4","lose","no-go","0"
"pit-trial","207","1265147","0.0-207.0","battery-v0.2","","","-1","b","elianto","#3366ff99","-1","-1","1","+10","[]","0","3&age=8&participant_ID=5&order=1","3","203","6","2","win","no-go","0"
"pit-trial","208","1271205","0.0-208.0","battery-v0.2","","","-1","z","elianto","#f73b6a7A","-1","-1","1","0","[]","0","3&age=8&participant_ID=5&order=1","3","204","4","4","lose","no-go","0"
"pit-trial","209","1278074","0.0-209.0","battery-v0.2","","","-1","t","elianto","#f73b6a7A","-1","-1","1","-10","[]","0","3&age=8&participant_ID=5&order=1","3","205","7","4","lose","no-go","1"
"pit-trial","210","1284451","0.0-210.0","battery-v0.2","","","-1","c","elianto","#f73b6a7A"," ","-1","0","0","[]","0","3&age=8&participant_ID=5&order=1","3","206","5","3","lose","go","1"
"pit-trial","211","1291329","0.0-211.0","battery-v0.2","","","-1","b","elianto","#3366ff99","-1","-1","1","+10","[]","0","3&age=8&participant_ID=5&order=1","3","207","6","2","win","no-go","0"
"pit-trial","212","1296187","0.0-212.0","battery-v0.2","","","-1","z","elianto","#f73b6a7A","-1","-1","1","0","[]","0","3&age=8&participant_ID=5&order=1","3","208","4","4","lose","no-go","0"
"pit-trial","213","1302181","0.0-213.0","battery-v0.2","","","-1","t","elianto","#f73b6a7A","-1","-1","1","0","[]","0","3&age=8&participant_ID=5&order=1","3","209","7","4","lose","no-go","0"
"pit-trial","214","1308111","0.0-214.0","battery-v0.2","","","-1","b","elianto","#3366ff99","-1","-1","1","0","[]","0","3&age=8&participant_ID=5&order=1","3","210","6","2","win","no-go","1"
"pit-trial","215","1314108","0.0-215.0","battery-v0.2","","","-1","c","elianto","#f73b6a7A"," ","-1","0","-10","[]","0","3&age=8&participant_ID=5&order=1","3","211","5","3","lose","go","0"
"pit-trial","216","1320500","0.0-216.0","battery-v0.2","","","-1","z","elianto","#f73b6a7A","-1","-1","1","0","[]","0","3&age=8&participant_ID=5&order=1","3","212","4","4","lose","no-go","0"
"pit-trial","217","1327829","0.0-217.0","battery-v0.2","","","-1","t","elianto","#f73b6a7A","-1","-1","1","-10","[]","0","3&age=8&participant_ID=5&order=1","3","213","7","4","lose","no-go","1"
"pit-trial","218","1334901","0.0-218.0","battery-v0.2","","","-1","x","elianto","#f73b6a7A","-1","-1","1","0","[]","0","3&age=8&participant_ID=5&order=1","3","214","8","4","lose","no-go","0"
"pit-trial","219","1341108","0.0-219.0","battery-v0.2","","","-1","c","elianto","#f73b6a7A"," ","-1","0","-10","[]","0","3&age=8&participant_ID=5&order=1","3","215","5","3","lose","go","0"
"pit-trial","220","1346229","0.0-220.0","battery-v0.2","","","-1","b","elianto","#3366ff99","-1","-1","1","+10","[]","0","3&age=8&participant_ID=5&order=1","3","216","6","2","win","no-go","0"
"pit-trial","221","1352115","0.0-221.0","battery-v0.2","","","-1","x","elianto","#f73b6a7A","-1","-1","1","0","[]","0","3&age=8&participant_ID=5&order=1","3","217","8","4","lose","no-go","0"
"pit-trial","222","1358112","0.0-222.0","battery-v0.2","","","-1","t","elianto","#f73b6a7A","-1","-1","1","0","[]","0","3&age=8&participant_ID=5&order=1","3","218","7","4","lose","no-go","0"
"pit-trial","223","1364543","0.0-223.0","battery-v0.2","","","-1","c","elianto","#f73b6a7A"," ","-1","0","-10","[]","0","3&age=8&participant_ID=5&order=1","3","219","5","3","lose","go","0"
"pit-trial","224","1371252","0.0-224.0","battery-v0.2","","","-1","b","elianto","#3366ff99","-1","-1","1","0","[]","0","3&age=8&participant_ID=5&order=1","3","220","6","2","win","no-go","1"
"pit-trial","225","1377112","0.0-225.0","battery-v0.2","","","-1","n","elianto","#f73b6a7A"," ","-1","0","-10","[]","0","3&age=8&participant_ID=5&order=1","3","221","10","3","lose","go","0"
"pit-trial","226","1383680","0.0-226.0","battery-v0.2","","","-1","b","elianto","#3366ff99","-1","-1","1","0","[]","0","3&age=8&participant_ID=5&order=1","3","222","6","2","win","no-go","1"
"pit-trial","227","1390107","0.0-227.0","battery-v0.2","","","-1","f","elianto","#3366ff99"," ","-1","0","+10","[]","0","3&age=8&participant_ID=5&order=1","3","223","9","1","win","go","1"
"pit-trial","228","1396108","0.0-228.0","battery-v0.2","","","-1","x","elianto","#f73b6a7A","-1","-1","1","0","[]","0","3&age=8&participant_ID=5&order=1","3","224","8","4","lose","no-go","0"
"pit-trial","229","1402383","0.0-229.0","battery-v0.2","","","-1","n","elianto","#f73b6a7A"," ","-1","0","-10","[]","0","3&age=8&participant_ID=5&order=1","3","225","10","3","lose","go","0"
"pit-trial","230","1409156","0.0-230.0","battery-v0.2","","","-1","f","elianto","#3366ff99"," ","-1","0","+10","[]","0","3&age=8&participant_ID=5&order=1","3","226","9","1","win","go","1"
"pit-trial","231","1415208","0.0-231.0","battery-v0.2","","","-1","b","elianto","#3366ff99","-1","-1","1","+10","[]","0","3&age=8&participant_ID=5&order=1","3","227","6","2","win","no-go","0"
"pit-trial","232","1421146","0.0-232.0","battery-v0.2","","","-1","x","elianto","#f73b6a7A","-1","-1","1","0","[]","0","3&age=8&participant_ID=5&order=1","3","228","8","4","lose","no-go","0"
"pit-trial","233","1427107","0.0-233.0","battery-v0.2","","","-1","n","elianto","#f73b6a7A"," ","-1","0","-10","[]","0","3&age=8&participant_ID=5&order=1","3","229","10","3","lose","go","0"
"pit-trial","234","1433407","0.0-234.0","battery-v0.2","","","-1","f","elianto","#3366ff99"," ","-1","0","0","[]","0","3&age=8&participant_ID=5&order=1","3","230","9","1","win","go","0"
"pit-trial","235","1440729","0.0-235.0","battery-v0.2","","","-1","x","elianto","#f73b6a7A","-1","-1","1","0","[]","0","3&age=8&participant_ID=5&order=1","3","231","8","4","lose","no-go","0"
"pit-trial","236","1447107","0.0-236.0","battery-v0.2","","","-1","q","elianto","#3366ff99"," ","-1","0","0","[]","0","3&age=8&participant_ID=5&order=1","3","232","11","1","win","go","0"
"pit-trial","237","1453551","0.0-237.0","battery-v0.2","","","-1","n","elianto","#f73b6a7A"," ","-1","0","-10","[]","0","3&age=8&participant_ID=5&order=1","3","233","10","3","lose","go","0"
"pit-trial","238","1460159","0.0-238.0","battery-v0.2","","","-1","x","elianto","#f73b6a7A","-1","-1","1","0","[]","0","3&age=8&participant_ID=5&order=1","3","234","8","4","lose","no-go","0"
"pit-trial","239","1466730","0.0-239.0","battery-v0.2","","","-1","f","elianto","#3366ff99"," ","-1","0","0","[]","0","3&age=8&participant_ID=5&order=1","3","235","9","1","win","go","0"
"pit-trial","240","1474074","0.0-240.0","battery-v0.2","","","-1","q","elianto","#3366ff99"," ","-1","0","0","[]","0","3&age=8&participant_ID=5&order=1","3","236","11","1","win","go","0"
"pit-trial","241","1480107","0.0-241.0","battery-v0.2","","","-1","n","elianto","#f73b6a7A"," ","-1","0","-10","[]","0","3&age=8&participant_ID=5&order=1","3","237","10","3","lose","go","0"
"pit-trial","242","1486383","0.0-242.0","battery-v0.2","","","-1","q","elianto","#3366ff99"," ","-1","0","+10","[]","0","3&age=8&participant_ID=5&order=1","3","238","11","1","win","go","1"
"pit-trial","243","1493407","0.0-243.0","battery-v0.2","","","-1","x","elianto","#f73b6a7A","-1","-1","1","-10","[]","0","3&age=8&participant_ID=5&order=1","3","239","8","4","lose","no-go","1"
"pit-trial","244","1500474","0.0-244.0","battery-v0.2","","","-1","f","elianto","#3366ff99"," ","-1","0","0","[]","0","3&age=8&participant_ID=5&order=1","3","240","9","1","win","go","0"
"pit-trial","245","1507297","0.0-245.0","battery-v0.2","","","-1","x","elianto","#f73b6a7A","-1","-1","1","-10","[]","0","3&age=8&participant_ID=5&order=1","3","241","8","4","lose","no-go","1"
"pit-trial","246","1514243","0.0-246.0","battery-v0.2","","","-1","q","elianto","#3366ff99"," ","-1","0","0","[]","0","3&age=8&participant_ID=5&order=1","3","242","11","1","win","go","0"
"pit-trial","247","1520410","0.0-247.0","battery-v0.2","","","-1","n","elianto","#f73b6a7A"," ","-1","0","-10","[]","0","3&age=8&participant_ID=5&order=1","3","243","10","3","lose","go","0"
"pit-trial","248","1527110","0.0-248.0","battery-v0.2","","","-1","f","elianto","#3366ff99"," ","-1","0","0","[]","0","3&age=8&participant_ID=5&order=1","3","244","9","1","win","go","0"
"pit-trial","249","1533332","0.0-249.0","battery-v0.2","","","-1","q","elianto","#3366ff99"," ","-1","0","0","[]","0","3&age=8&participant_ID=5&order=1","3","245","11","1","win","go","0"
"pit-trial","250","1540111","0.0-250.0","battery-v0.2","","","-1","f","elianto","#3366ff99"," ","-1","0","0","[]","0","3&age=8&participant_ID=5&order=1","3","246","9","1","win","go","0"
"pit-trial","251","1546261","0.0-251.0","battery-v0.2","","","-1","x","elianto","#f73b6a7A","-1","-1","1","0","[]","0","3&age=8&participant_ID=5&order=1","3","247","8","4","lose","no-go","0"
"pit-trial","252","1553425","0.0-252.0","battery-v0.2","","","-1","n","elianto","#f73b6a7A"," ","-1","0","-10","[]","0","3&age=8&participant_ID=5&order=1","3","248","10","3","lose","go","0"
"pit-trial","253","1560644","0.0-253.0","battery-v0.2","","","-1","q","elianto","#3366ff99"," ","-1","0","0","[]","0","3&age=8&participant_ID=5&order=1","3","249","11","1","win","go","0"
"pit-trial","254","1567951","0.0-254.0","battery-v0.2","","","-1","x","elianto","#f73b6a7A","-1","-1","1","-10","[]","0","3&age=8&participant_ID=5&order=1","3","250","8","4","lose","no-go","1"
"pit-trial","255","1574974","0.0-255.0","battery-v0.2","","","-1","f","elianto","#3366ff99"," ","-1","0","+10","[]","0","3&age=8&participant_ID=5&order=1","3","251","9","1","win","go","1"
"pit-trial","256","1581111","0.0-256.0","battery-v0.2","","","-1","n","elianto","#f73b6a7A"," ","-1","0","-10","[]","0","3&age=8&participant_ID=5&order=1","3","252","10","3","lose","go","0"
"pit-trial","257","1587657","0.0-257.0","battery-v0.2","","","-1","f","elianto","#3366ff99"," ","-1","0","+10","[]","0","3&age=8&participant_ID=5&order=1","3","253","9","1","win","go","1"
"pit-trial","258","1594873","0.0-258.0","battery-v0.2","","","-1","x","elianto","#f73b6a7A","-1","-1","1","0","[]","0","3&age=8&participant_ID=5&order=1","3","254","8","4","lose","no-go","0"
"pit-trial","259","1601108","0.0-259.0","battery-v0.2","","","-1","n","elianto","#f73b6a7A"," ","-1","0","-10","[]","0","3&age=8&participant_ID=5&order=1","3","255","10","3","lose","go","0"
"pit-trial","260","1607492","0.0-260.0","battery-v0.2","","","-1","q","elianto","#3366ff99"," ","-1","0","0","[]","0","3&age=8&participant_ID=5&order=1","3","256","11","1","win","go","0"
"pit-trial","261","1613113","0.0-261.0","battery-v0.2","","","-1","f","elianto","#3366ff99"," ","-1","0","0","[]","0","3&age=8&participant_ID=5&order=1","3","257","9","1","win","go","0"
"pit-trial","262","1619108","0.0-262.0","battery-v0.2","","","-1","q","elianto","#3366ff99"," ","-1","0","0","[]","0","3&age=8&participant_ID=5&order=1","3","258","11","1","win","go","0"
"pit-trial","263","1625273","0.0-263.0","battery-v0.2","","","-1","x","elianto","#f73b6a7A","-1","-1","1","0","[]","0","3&age=8&participant_ID=5&order=1","3","259","8","4","lose","no-go","0"
"pit-trial","264","1632318","0.0-264.0","battery-v0.2","","","-1","n","elianto","#f73b6a7A"," ","-1","0","-10","[]","0","3&age=8&participant_ID=5&order=1","3","260","10","3","lose","go","0"
"pit-instructions","265","1645134","0.0-265.0","battery-v0.2","","[{""page_index"":0,""viewing_time"":12812.600000023842}]","12813.40000000596","","","","","","","","","","","","","","","","",""
