"trial_type","trial_index","time_elapsed","internal_node_id","task_version","subject_id","interactions","blur_events","focus_events","fullscreenenter_events","fullscreenexit_events","success","view_history","rt","responses","num_errors","age","subject","participantId","rune","rune_set","hex","correct","choice","accuracy","outcome","keys","total_keys","block","practice","value","sub","trial","stimulus","robot","valence","action","sham","browser_interactions"
"pavlovia","0","42","0.0-0.0","battery-v0.2","","""event"",""trial"",""time""
""fullscreenenter"",""1"",""15490""
","
","
","""event"",""trial"",""time""
""fullscreenenter"",""1"",""15490""
","
","","","","","","","","","","","","","","","","","","","","","","","","","","","",""
"fullscreen","1","16177","0.0-1.0","battery-v0.2","","""event"",""trial"",""time""
""fullscreenenter"",""1"",""15490""
","
","
","""event"",""trial"",""time""
""fullscreenenter"",""1"",""15490""
","
","true","","","","","","","","","","","","","","","","","","","","","","","","","","",""
"pit-instructions","2","25303","0.0-2.0-0.0","battery-v0.2","","""event"",""trial"",""time""
""fullscreenenter"",""1"",""15490""
","
","
","""event"",""trial"",""time""
""fullscreenenter"",""1"",""15490""
","
","","[{""page_index"":0,""viewing_time"":9120.89999999106}]","9121.79999999702","","","","","","","","","","","","","","","","","","","","","","","","",""
"pit-comprehension","3","34597","0.0-2.0-1.0-0.0","battery-v0.2","","""event"",""trial"",""time""
""fullscreenenter"",""1"",""15490""
","
","
","""event"",""trial"",""time""
""fullscreenenter"",""1"",""15490""
","
","","","9288.70000000298","[""shark""]","0","14","1330","189","","","","","","","","","","","","","","","","","","","",""
"pit-instructions","4","56864","0.0-2.0-1.0-1.0","battery-v0.2","","""event"",""trial"",""time""
""fullscreenenter"",""1"",""15490""
","
","
","""event"",""trial"",""time""
""fullscreenenter"",""1"",""15490""
","
","","[{""page_index"":0,""viewing_time"":18443.90000000596}]","18444.40000000596","","","","","","","","","","","","","","","","","","","","","","","","",""
"pit-comprehension","5","61289","0.0-2.0-2.0-0.0","battery-v0.2","","""event"",""trial"",""time""
""fullscreenenter"",""1"",""15490""
","
","
","""event"",""trial"",""time""
""fullscreenenter"",""1"",""15490""
","
","","","4417.29999999702","[""tiger""]","0","14","1330","189","","","","","","","","","","","","","","","","","","","",""
"pit-instructions","6","63158","0.0-2.0-2.0-1.0","battery-v0.2","","""event"",""trial"",""time""
""fullscreenenter"",""1"",""15490""
","
","
","""event"",""trial"",""time""
""fullscreenenter"",""1"",""15490""
","
","","[{""page_index"":0,""viewing_time"":1861.8999999910593}]","1862.3999999910593","","","","","","","","","","","","","","","","","","","","","","","","",""
"pit-instructions","7","168935","0.0-2.0-3.0","battery-v0.2","","""event"",""trial"",""time""
""fullscreenenter"",""1"",""15490""
","
","
","""event"",""trial"",""time""
""fullscreenenter"",""1"",""15490""
","
","","[{""page_index"":0,""viewing_time"":19935},{""page_index"":1,""viewing_time"":5838.5999999940395},{""page_index"":2,""viewing_time"":7196.9000000059605},{""page_index"":3,""viewing_time"":5597.399999991059},{""page_index"":4,""viewing_time"":6085.300000011921},{""page_index"":5,""viewing_time"":5304.0999999940395},{""page_index"":6,""viewing_time"":5266.29999999702},{""page_index"":7,""viewing_time"":6151},{""page_index"":8,""viewing_time"":6316.4000000059605},{""page_index"":9,""viewing_time"":14152.70000000298},{""page_index"":10,""viewing_time"":7296},{""page_index"":11,""viewing_time"":5556.79999999702},{""page_index"":12,""viewing_time"":7011.0999999940395},{""page_index"":13,""viewing_time"":4063.6000000089407}]","105771.79999999702","","","","","","","","","","","","","","","","","","","","","","","","",""
"pit-trial","8","172423","0.0-2.0-4.0-0.0","battery-v0.2","","""event"",""trial"",""time""
""fullscreenenter"",""1"",""15490""
","
","
","""event"",""trial"",""time""
""fullscreenenter"",""1"",""15490""
","
","","","612.6000000089407","","","14","1330","189","&#9784;","elianto","#FFFFF080"," "," ","1","&#10004","[52.5,1476.300000011921]","2","0","0","","","","","","","","",""
"pit-trial","9","176814","0.0-2.0-4.1-0.1","battery-v0.2","","""event"",""trial"",""time""
""fullscreenenter"",""1"",""15490""
","
","
","""event"",""trial"",""time""
""fullscreenenter"",""1"",""15490""
","
","","","1518.9000000059605","","","14","1330","189","&#9784;","elianto","#FFFFF080"," "," ","1","&#10004","[48.29999999701977,2373.9000000059605]","2","0","0","","","","","","","","",""
"pit-trial","10","181677","0.0-2.0-4.2-0.2","battery-v0.2","","""event"",""trial"",""time""
""fullscreenenter"",""1"",""15490""
","
","
","""event"",""trial"",""time""
""fullscreenenter"",""1"",""15490""
","
","","","-1","","","14","1330","189","&#9784;","elianto","#FFFFF080"," ","-1","0","&#10060","[3498.5]","1","0","0","","","","","","","","",""
"pit-trial","11","186537","0.0-2.0-4.3-0.3","battery-v0.2","","""event"",""trial"",""time""
""fullscreenenter"",""1"",""15490""
","
","
","""event"",""trial"",""time""
""fullscreenenter"",""1"",""15490""
","
","","","-1","","","14","1330","189","&#9784;","elianto","#FFFFF080"," ","-1","0","&#10060","[]","0","0","0","","","","","","","","",""
"pit-trial","12","190913","0.0-2.0-4.4-0.4","battery-v0.2","","""event"",""trial"",""time""
""fullscreenenter"",""1"",""15490""
","
","
","""event"",""trial"",""time""
""fullscreenenter"",""1"",""15490""
","
","","","1506.0999999940395","","","14","1330","189","&#9784;","elianto","#FFFFF080"," "," ","1","&#10004","[2360.8999999910593,2648.199999988079]","2","0","0","","","","","","","","",""
"pit-trial","13","195301","0.0-2.0-4.5-0.5","battery-v0.2","","""event"",""trial"",""time""
""fullscreenenter"",""1"",""15490""
","
","
","""event"",""trial"",""time""
""fullscreenenter"",""1"",""15490""
","
","","","1533.2999999970198","","","14","1330","189","&#9784;","elianto","#FFFFF080"," "," ","1","&#10004","[2384.1000000089407]","1","0","0","","","","","","","","",""
"pit-trial","14","198689","0.0-2.0-4.6-0.6","battery-v0.2","","""event"",""trial"",""time""
""fullscreenenter"",""1"",""15490""
","
","
","""event"",""trial"",""time""
""fullscreenenter"",""1"",""15490""
","
","","","522.9000000059605","","","14","1330","189","&#9784;","elianto","#FFFFF080"," "," ","1","&#10004","[1379.9000000059605]","1","0","0","","","","","","","","",""
"pit-instructions","15","212887","0.0-2.0-4.6-1.6-0.6","battery-v0.2","","""event"",""trial"",""time""
""fullscreenenter"",""1"",""15490""
","
","
","""event"",""trial"",""time""
""fullscreenenter"",""1"",""15490""
","
","","[{""page_index"":0,""viewing_time"":5933.5},{""page_index"":1,""viewing_time"":8261.5}]","14195.70000000298","","","","","","","","","","","","","","","","","","","","","","","","",""
"pit-instructions","16","237610","0.0-2.0-5.0","battery-v0.2","","""event"",""trial"",""time""
""fullscreenenter"",""1"",""15490""
","
","
","""event"",""trial"",""time""
""fullscreenenter"",""1"",""15490""
","
","","[{""page_index"":0,""viewing_time"":4941.5},{""page_index"":1,""viewing_time"":7996},{""page_index"":2,""viewing_time"":5336.699999988079},{""page_index"":3,""viewing_time"":6445.4000000059605}]","24720","","","","","","","","","","","","","","","","","","","","","","","","",""
"pit-trial","17","242506","0.0-2.0-6.0-0.0","battery-v0.2","","""event"",""trial"",""time""
""fullscreenenter"",""1"",""15490""
","
","
","""event"",""trial"",""time""
""fullscreenenter"",""1"",""15490""
","
","","","-1","","","14","1330","189","&#9854;","elianto","#FFFFF080","-1","-1","1","&#10004","[]","0","0","1","","","","","","","","",""
"pit-trial","18","247379","0.0-2.0-6.1-0.1","battery-v0.2","","""event"",""trial"",""time""
""fullscreenenter"",""1"",""15490""
","
","
","""event"",""trial"",""time""
""fullscreenenter"",""1"",""15490""
","
","","","-1","","","14","1330","189","&#9854;","elianto","#FFFFF080","-1","-1","1","&#10004","[]","0","0","1","","","","","","","","",""
"pit-trial","19","252253","0.0-2.0-6.2-0.2","battery-v0.2","","""event"",""trial"",""time""
""fullscreenenter"",""1"",""15490""
","
","
","""event"",""trial"",""time""
""fullscreenenter"",""1"",""15490""
","
","","","-1","","","14","1330","189","&#9854;","elianto","#FFFFF080","-1","-1","1","&#10004","[]","0","0","1","","","","","","","","",""
"pit-trial","20","257126","0.0-2.0-6.3-0.3","battery-v0.2","","""event"",""trial"",""time""
""fullscreenenter"",""1"",""15490""
","
","
","""event"",""trial"",""time""
""fullscreenenter"",""1"",""15490""
","
","","","-1","","","14","1330","189","&#9854;","elianto","#FFFFF080","-1","-1","1","&#10004","[]","0","0","1","","","","","","","","",""
"pit-trial","21","261997","0.0-2.0-6.4-0.4","battery-v0.2","","""event"",""trial"",""time""
""fullscreenenter"",""1"",""15490""
","
","
","""event"",""trial"",""time""
""fullscreenenter"",""1"",""15490""
","
","","","-1","","","14","1330","189","&#9854;","elianto","#FFFFF080","-1","-1","1","&#10004","[]","0","0","1","","","","","","","","",""
"pit-instructions","22","375959","0.0-2.0-7.0","battery-v0.2","","""event"",""trial"",""time""
""fullscreenenter"",""1"",""15490""
","
","
","""event"",""trial"",""time""
""fullscreenenter"",""1"",""15490""
","
","","[{""page_index"":0,""viewing_time"":5874.29999999702},{""page_index"":1,""viewing_time"":7404.600000008941},{""page_index"":2,""viewing_time"":5507.5},{""page_index"":3,""viewing_time"":6211.5999999940395},{""page_index"":4,""viewing_time"":5042.600000008941},{""page_index"":5,""viewing_time"":5544.5999999940395},{""page_index"":6,""viewing_time"":4399.20000000298},{""page_index"":7,""viewing_time"":7394.70000000298},{""page_index"":8,""viewing_time"":7710},{""page_index"":9,""viewing_time"":6106.399999991059},{""page_index"":10,""viewing_time"":7087},{""page_index"":11,""viewing_time"":6091.600000008941},{""page_index"":12,""viewing_time"":6374.29999999702},{""page_index"":13,""viewing_time"":6136.0999999940395},{""page_index"":14,""viewing_time"":7770.100000008941},{""page_index"":15,""viewing_time"":6642.899999991059},{""page_index"":16,""viewing_time"":6554.79999999702},{""page_index"":17,""viewing_time"":6104.9000000059605}]","113957.70000000298","","","","","","","","","","","","","","","","","","","","","","","","",""
"pit-trial","23","380555","0.0-2.0-8.0-0.0","battery-v0.2","","""event"",""trial"",""time""
""fullscreenenter"",""1"",""15490""
","
","
","""event"",""trial"",""time""
""fullscreenenter"",""1"",""15490""
","
","","","1736.7999999970198","","","14","1330","189","&#9776;","elianto","#3366ff99"," "," ","1","+10","[2587.7999999970198]","1","0","1","","","","","","","","",""
"pit-trial","24","383938","0.0-2.0-8.0-1.0","battery-v0.2","","""event"",""trial"",""time""
""fullscreenenter"",""1"",""15490""
","
","
","""event"",""trial"",""time""
""fullscreenenter"",""1"",""15490""
","
","","","520.7000000029802","","","14","1330","189","&#9776;","elianto","#3366ff99"," "," ","1","+10","[1373.2000000029802]","1","0","1","","","","","","","","",""
"pit-trial","25","387129","0.0-2.0-8.0-2.0","battery-v0.2","","""event"",""trial"",""time""
""fullscreenenter"",""1"",""15490""
","
","
","""event"",""trial"",""time""
""fullscreenenter"",""1"",""15490""
","
","","","332.09999999403954","","","14","1330","189","&#9776;","elianto","#3366ff99"," "," ","1","+10","[1182.6000000089407]","1","0","1","","","","","","","","",""
"pit-trial","26","390269","0.0-2.0-8.0-3.0","battery-v0.2","","""event"",""trial"",""time""
""fullscreenenter"",""1"",""15490""
","
","
","""event"",""trial"",""time""
""fullscreenenter"",""1"",""15490""
","
","","","267.19999998807907","","","14","1330","189","&#9776;","elianto","#3366ff99"," "," ","1","0","[1123.5]","1","0","1","","","","","","","","",""
"pit-trial","27","393399","0.0-2.0-8.0-4.0","battery-v0.2","","""event"",""trial"",""time""
""fullscreenenter"",""1"",""15490""
","
","
","""event"",""trial"",""time""
""fullscreenenter"",""1"",""15490""
","
","","","261.3999999910593","","","14","1330","189","&#9776;","elianto","#3366ff99"," "," ","1","+10","[1114.7000000029802]","1","0","1","","","","","","","","",""
"call-function","28","393401","0.0-2.0-9.0","battery-v0.2","","""event"",""trial"",""time""
""fullscreenenter"",""1"",""15490""
","
","
","""event"",""trial"",""time""
""fullscreenenter"",""1"",""15490""
","
","","","","","","","","","","","","","","","","","","","","","","","","","","","",""
"pit-instructions","29","432138","0.0-2.0-10.0","battery-v0.2","","""event"",""trial"",""time""
""fullscreenenter"",""1"",""15490""
","
","
","""event"",""trial"",""time""
""fullscreenenter"",""1"",""15490""
","
","","[{""page_index"":0,""viewing_time"":6359.5999999940395},{""page_index"":1,""viewing_time"":6231.5},{""page_index"":2,""viewing_time"":9039.90000000596},{""page_index"":3,""viewing_time"":9787.89999999106},{""page_index"":4,""viewing_time"":7317.20000000298}]","38736.5","","","","","","","","","","","","","","","","","","","","","","","","",""
"pit-trial","30","436364","0.0-2.0-11.0-0.0","battery-v0.2","","""event"",""trial"",""time""
""fullscreenenter"",""1"",""15490""
","
","
","""event"",""trial"",""time""
""fullscreenenter"",""1"",""15490""
","
","","","1358.7000000029802","","","14","1330","189","&#9761;","elianto","#3366ff99","-1"," ","0","0","[2221]","1","0","2","","","","","","","","",""
"pit-trial","31","439660","0.0-2.0-11.0-1.0","battery-v0.2","","""event"",""trial"",""time""
""fullscreenenter"",""1"",""15490""
","
","
","""event"",""trial"",""time""
""fullscreenenter"",""1"",""15490""
","
","","","427.19999998807907","","","14","1330","189","&#9761;","elianto","#3366ff99","-1"," ","0","0","[1286]","1","0","2","","","","","","","","",""
"pit-trial","32","442821","0.0-2.0-11.0-2.0","battery-v0.2","","""event"",""trial"",""time""
""fullscreenenter"",""1"",""15490""
","
","
","""event"",""trial"",""time""
""fullscreenenter"",""1"",""15490""
","
","","","301.79999999701977","","","14","1330","189","&#9761;","elianto","#3366ff99","-1"," ","0","0","[1153.5]","1","0","2","","","","","","","","",""
"pit-trial","33","447701","0.0-2.0-11.0-3.0","battery-v0.2","","""event"",""trial"",""time""
""fullscreenenter"",""1"",""15490""
","
","
","""event"",""trial"",""time""
""fullscreenenter"",""1"",""15490""
","
","","","-1","","","14","1330","189","&#9761;","elianto","#3366ff99","-1","-1","1","0","[]","0","0","2","","","","","","","","",""
"pit-trial","34","452569","0.0-2.0-11.0-4.0","battery-v0.2","","""event"",""trial"",""time""
""fullscreenenter"",""1"",""15490""
","
","
","""event"",""trial"",""time""
""fullscreenenter"",""1"",""15490""
","
","","","-1","","","14","1330","189","&#9761;","elianto","#3366ff99","-1","-1","1","+10","[]","0","0","2","","","","","","","","",""
"pit-trial","35","457438","0.0-2.0-11.1-0.1","battery-v0.2","","""event"",""trial"",""time""
""fullscreenenter"",""1"",""15490""
","
","
","""event"",""trial"",""time""
""fullscreenenter"",""1"",""15490""
","
","","","-1","","","14","1330","189","&#9761;","elianto","#3366ff99","-1","-1","1","+10","[]","0","0","2","","","","","","","","",""
"pit-trial","36","462309","0.0-2.0-11.1-1.1","battery-v0.2","","""event"",""trial"",""time""
""fullscreenenter"",""1"",""15490""
","
","
","""event"",""trial"",""time""
""fullscreenenter"",""1"",""15490""
","
","","","-1","","","14","1330","189","&#9761;","elianto","#3366ff99","-1","-1","1","+10","[]","0","0","2","","","","","","","","",""
"pit-trial","37","467163","0.0-2.0-11.1-2.1","battery-v0.2","","""event"",""trial"",""time""
""fullscreenenter"",""1"",""15490""
","
","
","""event"",""trial"",""time""
""fullscreenenter"",""1"",""15490""
","
","","","-1","","","14","1330","189","&#9761;","elianto","#3366ff99","-1","-1","1","+10","[]","0","0","2","","","","","","","","",""
"pit-trial","38","472018","0.0-2.0-11.1-3.1","battery-v0.2","","""event"",""trial"",""time""
""fullscreenenter"",""1"",""15490""
","
","
","""event"",""trial"",""time""
""fullscreenenter"",""1"",""15490""
","
","","","-1","","","14","1330","189","&#9761;","elianto","#3366ff99","-1","-1","1","0","[]","0","0","2","","","","","","","","",""
"pit-trial","39","476872","0.0-2.0-11.1-4.1","battery-v0.2","","""event"",""trial"",""time""
""fullscreenenter"",""1"",""15490""
","
","
","""event"",""trial"",""time""
""fullscreenenter"",""1"",""15490""
","
","","","-1","","","14","1330","189","&#9761;","elianto","#3366ff99","-1","-1","1","+10","[]","0","0","2","","","","","","","","",""
"call-function","40","476874","0.0-2.0-12.0","battery-v0.2","","""event"",""trial"",""time""
""fullscreenenter"",""1"",""15490""
","
","
","""event"",""trial"",""time""
""fullscreenenter"",""1"",""15490""
","
","","","","","","","","","","","","","","","","","","","","","","","","","","","",""
"pit-instructions","41","506654","0.0-2.0-13.0","battery-v0.2","","""event"",""trial"",""time""
""fullscreenenter"",""1"",""15490""
","
","
","""event"",""trial"",""time""
""fullscreenenter"",""1"",""15490""
","
","","[{""page_index"":0,""viewing_time"":5286.399999991059},{""page_index"":1,""viewing_time"":6196},{""page_index"":2,""viewing_time"":3281.9000000059605},{""page_index"":3,""viewing_time"":10560.70000000298},{""page_index"":4,""viewing_time"":4455}]","29780.39999999106","","","","","","","","","","","","","","","","","","","","","","","","",""
"pit-trial","42","511525","0.0-2.0-14.0-0.0","battery-v0.2","","""event"",""trial"",""time""
""fullscreenenter"",""1"",""15490""
","
","
","""event"",""trial"",""time""
""fullscreenenter"",""1"",""15490""
","
","","","-1","","","14","1330","189","&#9826;","elianto","#f73b6a7A","-1","-1","1","0","[]","0","0","3","","","","","","","","",""
"pit-trial","43","516388","0.0-2.0-14.0-1.0","battery-v0.2","","""event"",""trial"",""time""
""fullscreenenter"",""1"",""15490""
","
","
","""event"",""trial"",""time""
""fullscreenenter"",""1"",""15490""
","
","","","-1","","","14","1330","189","&#9826;","elianto","#f73b6a7A","-1","-1","1","0","[]","0","0","3","","","","","","","","",""
"pit-trial","44","521260","0.0-2.0-14.0-2.0","battery-v0.2","","""event"",""trial"",""time""
""fullscreenenter"",""1"",""15490""
","
","
","""event"",""trial"",""time""
""fullscreenenter"",""1"",""15490""
","
","","","-1","","","14","1330","189","&#9826;","elianto","#f73b6a7A","-1","-1","1","0","[]","0","0","3","","","","","","","","",""
"pit-trial","45","526148","0.0-2.0-14.0-3.0","battery-v0.2","","""event"",""trial"",""time""
""fullscreenenter"",""1"",""15490""
","
","
","""event"",""trial"",""time""
""fullscreenenter"",""1"",""15490""
","
","","","-1","","","14","1330","189","&#9826;","elianto","#f73b6a7A","-1","-1","1","-10","[]","0","0","3","","","","","","","","",""
"pit-trial","46","531008","0.0-2.0-14.0-4.0","battery-v0.2","","""event"",""trial"",""time""
""fullscreenenter"",""1"",""15490""
","
","
","""event"",""trial"",""time""
""fullscreenenter"",""1"",""15490""
","
","","","-1","","","14","1330","189","&#9826;","elianto","#f73b6a7A","-1","-1","1","0","[]","0","0","3","","","","","","","","",""
"call-function","47","531011","0.0-2.0-15.0","battery-v0.2","","""event"",""trial"",""time""
""fullscreenenter"",""1"",""15490""
","
","
","""event"",""trial"",""time""
""fullscreenenter"",""1"",""15490""
","
","","","","","","","","","","","","","","","","","","","","","","","","","","","",""
"pit-instructions","48","554561","0.0-2.0-16.0","battery-v0.2","","""event"",""trial"",""time""
""fullscreenenter"",""1"",""15490""
","
","
","""event"",""trial"",""time""
""fullscreenenter"",""1"",""15490""
","
","","[{""page_index"":0,""viewing_time"":6829.29999999702},{""page_index"":1,""viewing_time"":8221.5},{""page_index"":2,""viewing_time"":4485.4000000059605},{""page_index"":3,""viewing_time"":4013.199999988079}]","23549.89999999106","","","","","","","","","","","","","","","","","","","","","","","","",""
"pit-trial","49","559102","0.0-2.0-17.0-0.0","battery-v0.2","","""event"",""trial"",""time""
""fullscreenenter"",""1"",""15490""
","
","
","""event"",""trial"",""time""
""fullscreenenter"",""1"",""15490""
","
","","","1684.5999999940395","","","14","1330","189","&#9789;","elianto","#f73b6a7A"," "," ","1","0","[2536]","1","0","4","","","","","","","","",""
"pit-trial","50","562229","0.0-2.0-17.0-1.0","battery-v0.2","","""event"",""trial"",""time""
""fullscreenenter"",""1"",""15490""
","
","
","""event"",""trial"",""time""
""fullscreenenter"",""1"",""15490""
","
","","","258.20000000298023","","","14","1330","189","&#9789;","elianto","#f73b6a7A"," "," ","1","0","[1111.4000000059605]","1","0","4","","","","","","","","",""
"pit-trial","51","565298","0.0-2.0-17.0-2.0","battery-v0.2","","""event"",""trial"",""time""
""fullscreenenter"",""1"",""15490""
","
","
","""event"",""trial"",""time""
""fullscreenenter"",""1"",""15490""
","
","","","196.79999999701977","","","14","1330","189","&#9789;","elianto","#f73b6a7A"," "," ","1","0","[1053.5999999940395]","1","0","4","","","","","","","","",""
"pit-trial","52","568455","0.0-2.0-17.0-3.0","battery-v0.2","","""event"",""trial"",""time""
""fullscreenenter"",""1"",""15490""
","
","
","""event"",""trial"",""time""
""fullscreenenter"",""1"",""15490""
","
","","","298","","","14","1330","189","&#9789;","elianto","#f73b6a7A"," "," ","1","-10","[1149.1000000089407]","1","0","4","","","","","","","","",""
"pit-trial","53","571408","0.0-2.0-17.0-4.0","battery-v0.2","","""event"",""trial"",""time""
""fullscreenenter"",""1"",""15490""
","
","
","""event"",""trial"",""time""
""fullscreenenter"",""1"",""15490""
","
","","","86.5","","","14","1330","189","&#9789;","elianto","#f73b6a7A"," "," ","1","0","[944.2000000029802]","1","0","4","","","","","","","","",""
"call-function","54","571410","0.0-2.0-18.0","battery-v0.2","","""event"",""trial"",""time""
""fullscreenenter"",""1"",""15490""
","
","
","""event"",""trial"",""time""
""fullscreenenter"",""1"",""15490""
","
","","","","","","","","","","","","","","","","","","","","","","","","","","","",""
"pit-instructions","55","627684","0.0-2.0-19.0","battery-v0.2","","""event"",""trial"",""time""
""fullscreenenter"",""1"",""15490""
","
","
","""event"",""trial"",""time""
""fullscreenenter"",""1"",""15490""
","
","","[{""page_index"":0,""viewing_time"":7217.70000000298},{""page_index"":1,""viewing_time"":4431.9000000059605},{""page_index"":2,""viewing_time"":8339.59999999404},{""page_index"":3,""viewing_time"":7890.4000000059605},{""page_index"":4,""viewing_time"":6123.70000000298},{""page_index"":5,""viewing_time"":8226.59999999404},{""page_index"":6,""viewing_time"":4671.79999999702},{""page_index"":7,""viewing_time"":5957.600000008941},{""page_index"":8,""viewing_time"":3413.2999999970198}]","56273.30000001192","","","","","","","","","","","","","","","","","","","","","","","","",""
"pit-comprehension","56","633277","0.0-2.0-20.0-0.0","battery-v0.2","","""event"",""trial"",""time""
""fullscreenenter"",""1"",""15490""
","
","
","""event"",""trial"",""time""
""fullscreenenter"",""1"",""15490""
","
","","","5584.899999991059","[""SPACE""]","0","14","1330","189","","","","","","","","","","","","","","","","","","","",""
"pit-instructions","57","639242","0.0-2.0-20.0-1.0","battery-v0.2","","""event"",""trial"",""time""
""fullscreenenter"",""1"",""15490""
","
","
","""event"",""trial"",""time""
""fullscreenenter"",""1"",""15490""
","
","","[{""page_index"":0,""viewing_time"":5579.399999991059}]","5580","","","","","","","","","","","","","","","","","","","","","","","","",""
"pit-comprehension","58","646105","0.0-2.0-21.0-0.0","battery-v0.2","","""event"",""trial"",""time""
""fullscreenenter"",""1"",""15490""
","
","
","""event"",""trial"",""time""
""fullscreenenter"",""1"",""15490""
","
","","","6857.899999991059","[""10""]","0","14","1330","189","","","","","","","","","","","","","","","","","","","",""
"pit-instructions","59","648515","0.0-2.0-21.0-1.0","battery-v0.2","","""event"",""trial"",""time""
""fullscreenenter"",""1"",""15490""
","
","
","""event"",""trial"",""time""
""fullscreenenter"",""1"",""15490""
","
","","[{""page_index"":0,""viewing_time"":2377}]","2377.2999999970198","","","","","","","","","","","","","","","","","","","","","","","","",""
"pit-comprehension","60","656397","0.0-2.0-22.0-0.0","battery-v0.2","","""event"",""trial"",""time""
""fullscreenenter"",""1"",""15490""
","
","
","""event"",""trial"",""time""
""fullscreenenter"",""1"",""15490""
","
","","","7875.5","[""0""]","0","14","1330","189","","","","","","","","","","","","","","","","","","","",""
"pit-instructions","61","661139","0.0-2.0-22.0-1.0","battery-v0.2","","""event"",""trial"",""time""
""fullscreenenter"",""1"",""15490""
","
","
","""event"",""trial"",""time""
""fullscreenenter"",""1"",""15490""
","
","","[{""page_index"":0,""viewing_time"":4709.70000000298}]","4710.0999999940395","","","","","","","","","","","","","","","","","","","","","","","","",""
"pit-comprehension","62","671909","0.0-2.0-23.0-0.0","battery-v0.2","","""event"",""trial"",""time""
""fullscreenenter"",""1"",""15490""
","
","
","""event"",""trial"",""time""
""fullscreenenter"",""1"",""15490""
","
","","","10628.60000000894","[""True""]","0","14","1330","189","","","","","","","","","","","","","","","","","","","",""
"pit-instructions","63","675360","0.0-2.0-23.0-1.0","battery-v0.2","","""event"",""trial"",""time""
""fullscreenenter"",""1"",""15490""
","
","
","""event"",""trial"",""time""
""fullscreenenter"",""1"",""15490""
","
","","[{""page_index"":0,""viewing_time"":3413.5999999940395}]","3414.5","","","","","","","","","","","","","","","","","","","","","","","","",""
"pit-comprehension","64","690102","0.0-2.0-24.0-0.0","battery-v0.2","","""event"",""trial"",""time""
""fullscreenenter"",""1"",""15490""
","
","
","""event"",""trial"",""time""
""fullscreenenter"",""1"",""15490""
","
","","","14739.09999999404","[""True""]","0","14","1330","189","","","","","","","","","","","","","","","","","","","",""
"pit-instructions","65","700571","0.0-2.0-24.0-1.0","battery-v0.2","","""event"",""trial"",""time""
""fullscreenenter"",""1"",""15490""
","
","
","""event"",""trial"",""time""
""fullscreenenter"",""1"",""15490""
","
","","[{""page_index"":0,""viewing_time"":10433}]","10433.20000000298","","","","","","","","","","","","","","","","","","","","","","","","",""
"pit-comprehension","66","707898","0.0-2.0-25.0-0.0","battery-v0.2","","""event"",""trial"",""time""
""fullscreenenter"",""1"",""15490""
","
","
","""event"",""trial"",""time""
""fullscreenenter"",""1"",""15490""
","
","","","7322.5","[""True""]","0","14","1330","189","","","","","","","","","","","","","","","","","","","",""
"pit-instructions","67","710688","0.0-2.0-25.0-1.0","battery-v0.2","","""event"",""trial"",""time""
""fullscreenenter"",""1"",""15490""
","
","
","""event"",""trial"",""time""
""fullscreenenter"",""1"",""15490""
","
","","[{""page_index"":0,""viewing_time"":2752.2000000029802}]","2752.6000000089407","","","","","","","","","","","","","","","","","","","","","","","","",""
"pit-comprehension","68","716052","0.0-2.0-26.0-0.0","battery-v0.2","","""event"",""trial"",""time""
""fullscreenenter"",""1"",""15490""
","
","
","""event"",""trial"",""time""
""fullscreenenter"",""1"",""15490""
","
","","","5361.29999999702","[""False""]","0","14","1330","189","","","","","","","","","","","","","","","","","","","",""
"pit-instructions","69","723601","0.0-2.0-26.0-1.0","battery-v0.2","","""event"",""trial"",""time""
""fullscreenenter"",""1"",""15490""
","
","
","""event"",""trial"",""time""
""fullscreenenter"",""1"",""15490""
","
","","[{""page_index"":0,""viewing_time"":7510.5999999940395}]","7510.899999991059","","","","","","","","","","","","","","","","","","","","","","","","",""
"pit-instructions","70","739848","0.0-3.0","battery-v0.2","","""event"",""trial"",""time""
""fullscreenenter"",""1"",""15490""
","
","
","""event"",""trial"",""time""
""fullscreenenter"",""1"",""15490""
","
","","[{""page_index"":0,""viewing_time"":4008.800000011921},{""page_index"":1,""viewing_time"":5686.29999999702},{""page_index"":2,""viewing_time"":6548.29999999702}]","16243.800000011921","","","","","","","","","","","","","","","","","","","","","","","","",""
"pit-trial","71","744717","0.0-4.0","battery-v0.2","","""event"",""trial"",""time""
""fullscreenenter"",""1"",""15490""
","
","
","""event"",""trial"",""time""
""fullscreenenter"",""1"",""15490""
","
","","","-1","","","14","1330","189","&#9733;","elianto","#3366ff99","-1","-1","1","0","[]","0","1","","","1330","1","2","2","win","no-go","1","[]"
"pit-trial","72","749582","0.0-5.0","battery-v0.2","","""event"",""trial"",""time""
""fullscreenenter"",""1"",""15490""
","
","
","""event"",""trial"",""time""
""fullscreenenter"",""1"",""15490""
","
","","","-1","","","14","1330","189","&#9728;","elianto","#f73b6a7A","-1","-1","1","0","[]","0","1","","","1330","2","0","4","lose","no-go","0","0"
"pit-trial","73","754446","0.0-6.0","battery-v0.2","","""event"",""trial"",""time""
""fullscreenenter"",""1"",""15490""
","
","
","""event"",""trial"",""time""
""fullscreenenter"",""1"",""15490""
","
","","","-1","","","14","1330","189","&#9730;","elianto","#3366ff99"," ","-1","0","0","[]","0","1","","","1330","3","1","1","win","go","0","0"
"pit-trial","74","759306","0.0-7.0","battery-v0.2","","""event"",""trial"",""time""
""fullscreenenter"",""1"",""15490""
","
","
","""event"",""trial"",""time""
""fullscreenenter"",""1"",""15490""
","
","","","-1","","","14","1330","189","&#9752;","elianto","#f73b6a7A"," ","-1","0","-10","[]","0","1","","","1330","4","3","3","lose","go","0","0"
"pit-trial","75","764177","0.0-8.0","battery-v0.2","","""event"",""trial"",""time""
""fullscreenenter"",""1"",""15490""
","
","
","""event"",""trial"",""time""
""fullscreenenter"",""1"",""15490""
","
","","","-1","","","14","1330","189","&#9730;","elianto","#3366ff99"," ","-1","0","+10","[3189.2000000029802]","1","1","","","1330","5","1","1","win","go","1","0"
"pit-trial","76","768031","0.0-9.0","battery-v0.2","","""event"",""trial"",""time""
""fullscreenenter"",""1"",""15490""
","
","
","""event"",""trial"",""time""
""fullscreenenter"",""1"",""15490""
","
","","","984.5999999940395","","","14","1330","189","&#9728;","elianto","#f73b6a7A","-1"," ","0","-10","[1836.7000000029802]","1","1","","","1330","6","0","4","lose","no-go","0","0"
"pit-trial","77","771446","0.0-10.0","battery-v0.2","","""event"",""trial"",""time""
""fullscreenenter"",""1"",""15490""
","
","
","""event"",""trial"",""time""
""fullscreenenter"",""1"",""15490""
","
","","","561.8000000119209","","","14","1330","189","&#9733;","elianto","#3366ff99","-1"," ","0","0","[1413.1000000089407]","1","1","","","1330","7","2","2","win","no-go","0","0"
"pit-trial","78","774895","0.0-11.0","battery-v0.2","","""event"",""trial"",""time""
""fullscreenenter"",""1"",""15490""
","
","
","""event"",""trial"",""time""
""fullscreenenter"",""1"",""15490""
","
","","","595.2000000029802","","","14","1330","189","&#9752;","elianto","#f73b6a7A"," "," ","1","0","[672.9000000059605,1446.0999999940395,3312.4000000059605]","3","1","","","1330","8","3","3","lose","go","0","0"
"pit-trial","79","778416","0.0-12.0","battery-v0.2","","""event"",""trial"",""time""
""fullscreenenter"",""1"",""15490""
","
","
","""event"",""trial"",""time""
""fullscreenenter"",""1"",""15490""
","
","","","667.3000000119209","","","14","1330","189","&#9752;","elianto","#f73b6a7A"," "," ","1","-10","[1519]","1","1","","","1330","9","3","3","lose","go","1","0"
"pit-trial","80","781837","0.0-13.0","battery-v0.2","","""event"",""trial"",""time""
""fullscreenenter"",""1"",""15490""
","
","
","""event"",""trial"",""time""
""fullscreenenter"",""1"",""15490""
","
","","","567.2000000029802","","","14","1330","189","&#9730;","elianto","#3366ff99"," "," ","1","+10","[1418.4000000059605]","1","1","","","1330","10","1","1","win","go","0","0"
"pit-trial","81","785821","0.0-14.0","battery-v0.2","","""event"",""trial"",""time""
""fullscreenenter"",""1"",""15490""
","
","
","""event"",""trial"",""time""
""fullscreenenter"",""1"",""15490""
","
","","","1129.5999999940395","","","14","1330","189","&#9733;","elianto","#3366ff99","-1"," ","0","+10","[51.3999999910593,1980.3999999910593]","2","1","","","1330","11","2","2","win","no-go","1","0"
"pit-trial","82","789654","0.0-15.0","battery-v0.2","","""event"",""trial"",""time""
""fullscreenenter"",""1"",""15490""
","
","
","""event"",""trial"",""time""
""fullscreenenter"",""1"",""15490""
","
","","","980.3999999910593","","","14","1330","189","&#9728;","elianto","#f73b6a7A","-1"," ","0","-10","[44.8999999910593,1830.8999999910593]","2","1","","","1330","12","0","4","lose","no-go","0","0"
"pit-trial","83","794507","0.0-16.0","battery-v0.2","","""event"",""trial"",""time""
""fullscreenenter"",""1"",""15490""
","
","
","""event"",""trial"",""time""
""fullscreenenter"",""1"",""15490""
","
","","","-1","","","14","1330","189","&#9728;","elianto","#f73b6a7A","-1","-1","1","0","[]","0","1","","","1330","13","0","4","lose","no-go","0","0"
"pit-trial","84","799360","0.0-17.0","battery-v0.2","","""event"",""trial"",""time""
""fullscreenenter"",""1"",""15490""
","
","
","""event"",""trial"",""time""
""fullscreenenter"",""1"",""15490""
","
","","","-1","","","14","1330","189","&#9752;","elianto","#f73b6a7A"," ","-1","0","-10","[]","0","1","","","1330","14","3","3","lose","go","0","0"
"pit-trial","85","802951","0.0-18.0","battery-v0.2","","""event"",""trial"",""time""
""fullscreenenter"",""1"",""15490""
","
","
","""event"",""trial"",""time""
""fullscreenenter"",""1"",""15490""
","
","","","736.9000000059605","","","14","1330","189","&#9730;","elianto","#3366ff99"," "," ","1","+10","[1588]","1","1","","","1330","15","1","1","win","go","0","0"
"pit-trial","86","806539","0.0-19.0","battery-v0.2","","""event"",""trial"",""time""
""fullscreenenter"",""1"",""15490""
","
","
","""event"",""trial"",""time""
""fullscreenenter"",""1"",""15490""
","
","","","729.4000000059605","","","14","1330","189","&#9733;","elianto","#3366ff99","-1"," ","0","+10","[1584.7999999970198]","1","1","","","1330","16","2","2","win","no-go","1","0"
"pit-trial","87","809967","0.0-20.0","battery-v0.2","","""event"",""trial"",""time""
""fullscreenenter"",""1"",""15490""
","
","
","""event"",""trial"",""time""
""fullscreenenter"",""1"",""15490""
","
","","","574.0999999940395","","","14","1330","189","&#9752;","elianto","#f73b6a7A"," "," ","1","0","[1424.7999999970198]","1","1","","","1330","17","3","3","lose","go","0","0"
"pit-trial","88","813634","0.0-21.0","battery-v0.2","","""event"",""trial"",""time""
""fullscreenenter"",""1"",""15490""
","
","
","""event"",""trial"",""time""
""fullscreenenter"",""1"",""15490""
","
","","","814","","","14","1330","189","&#9730;","elianto","#3366ff99"," "," ","1","+10","[1665.1000000089407]","1","1","","","1330","18","1","1","win","go","0","0"
"pit-trial","89","818487","0.0-22.0","battery-v0.2","","""event"",""trial"",""time""
""fullscreenenter"",""1"",""15490""
","
","
","""event"",""trial"",""time""
""fullscreenenter"",""1"",""15490""
","
","","","-1","","","14","1330","189","&#9728;","elianto","#f73b6a7A","-1","-1","1","0","[]","0","1","","","1330","19","0","4","lose","no-go","0","0"
"pit-trial","90","821952","0.0-23.0","battery-v0.2","","""event"",""trial"",""time""
""fullscreenenter"",""1"",""15490""
","
","
","""event"",""trial"",""time""
""fullscreenenter"",""1"",""15490""
","
","","","610.6000000089407","","","14","1330","189","&#9733;","elianto","#3366ff99","-1"," ","0","0","[1462.1000000089407]","1","1","","","1330","20","2","2","win","no-go","0","0"
"pit-instructions","91","833980","0.0-24.0","battery-v0.2","","""event"",""trial"",""time""
""fullscreenenter"",""1"",""15490""
","
","
","""event"",""trial"",""time""
""fullscreenenter"",""1"",""15490""
","
","","[{""page_index"":0,""viewing_time"":5414.29999999702},{""page_index"":1,""viewing_time"":6612}]","12026.79999999702","","","","","","","","","","","","","","","","","","","","","","","","",""
"pit-trial","92","838852","0.0-25.0","battery-v0.2","","""event"",""trial"",""time""
""fullscreenenter"",""1"",""15490""
","
","
","""event"",""trial"",""time""
""fullscreenenter"",""1"",""15490""
","
","","","-1","","","14","1330","189","x","elianto","#f73b6a7A"," ","-1","0","-10","[]","0","2","","","1330","21","3","3","lose","go","0","0"
"pit-trial","93","843718","0.0-26.0","battery-v0.2","","""event"",""trial"",""time""
""fullscreenenter"",""1"",""15490""
","
","
","""event"",""trial"",""time""
""fullscreenenter"",""1"",""15490""
","
","","","-1","","","14","1330","189","n","elianto","#3366ff99","-1","-1","1","+10","[]","0","2","","","1330","22","1","2","win","no-go","0","0"
"pit-trial","94","848573","0.0-27.0","battery-v0.2","","""event"",""trial"",""time""
""fullscreenenter"",""1"",""15490""
","
","
","""event"",""trial"",""time""
""fullscreenenter"",""1"",""15490""
","
","","","-1","","","14","1330","189","q","elianto","#3366ff99","-1","-1","1","0","[]","0","2","","","1330","23","0","2","win","no-go","1","0"
"pit-trial","95","853438","0.0-28.0","battery-v0.2","","""event"",""trial"",""time""
""fullscreenenter"",""1"",""15490""
","
","
","""event"",""trial"",""time""
""fullscreenenter"",""1"",""15490""
","
","","","-1","","","14","1330","189","f","elianto","#3366ff99"," ","-1","0","+10","[]","0","2","","","1330","24","2","1","win","go","1","0"
"pit-trial","96","858305","0.0-29.0","battery-v0.2","","""event"",""trial"",""time""
""fullscreenenter"",""1"",""15490""
","
","
","""event"",""trial"",""time""
""fullscreenenter"",""1"",""15490""
","
","","","-1","","","14","1330","189","n","elianto","#3366ff99","-1","-1","1","0","[]","0","2","","","1330","25","1","2","win","no-go","1","0"
"pit-trial","97","863176","0.0-30.0","battery-v0.2","","""event"",""trial"",""time""
""fullscreenenter"",""1"",""15490""
","
","
","""event"",""trial"",""time""
""fullscreenenter"",""1"",""15490""
","
","","","-1","","","14","1330","189","f","elianto","#3366ff99"," ","-1","0","0","[]","0","2","","","1330","26","2","1","win","go","0","0"
"pit-trial","98","866783","0.0-31.0","battery-v0.2","","""event"",""trial"",""time""
""fullscreenenter"",""1"",""15490""
","
","
","""event"",""trial"",""time""
""fullscreenenter"",""1"",""15490""
","
","","","744.2999999970198","","","14","1330","189","x","elianto","#f73b6a7A"," "," ","1","0","[1603.4000000059605]","1","2","","","1330","27","3","3","lose","go","0","0"
"pit-trial","99","870490","0.0-32.0","battery-v0.2","","""event"",""trial"",""time""
""fullscreenenter"",""1"",""15490""
","
","
","""event"",""trial"",""time""
""fullscreenenter"",""1"",""15490""
","
","","","854.7000000029802","","","14","1330","189","q","elianto","#3366ff99","-1"," ","0","0","[1705.1000000089407]","1","2","","","1330","28","0","2","win","no-go","0","0"
"pit-trial","100","874015","0.0-33.0","battery-v0.2","","""event"",""trial"",""time""
""fullscreenenter"",""1"",""15490""
","
","
","""event"",""trial"",""time""
""fullscreenenter"",""1"",""15490""
","
","","","671.5999999940395","","","14","1330","189","n","elianto","#3366ff99","-1"," ","0","+10","[1522.7999999970198]","1","2","","","1330","29","1","2","win","no-go","1","0"
"pit-trial","101","877520","0.0-34.0","battery-v0.2","","""event"",""trial"",""time""
""fullscreenenter"",""1"",""15490""
","
","
","""event"",""trial"",""time""
""fullscreenenter"",""1"",""15490""
","
","","","652.7999999970198","","","14","1330","189","x","elianto","#f73b6a7A"," "," ","1","0","[1503.2999999970198]","1","2","","","1330","30","3","3","lose","go","0","0"
"pit-trial","102","880880","0.0-35.0","battery-v0.2","","""event"",""trial"",""time""
""fullscreenenter"",""1"",""15490""
","
","
","""event"",""trial"",""time""
""fullscreenenter"",""1"",""15490""
","
","","","506","","","14","1330","189","q","elianto","#3366ff99","-1"," ","0","0","[1357.9000000059605]","1","2","","","1330","31","0","2","win","no-go","0","0"
"pit-trial","103","885733","0.0-36.0","battery-v0.2","","""event"",""trial"",""time""
""fullscreenenter"",""1"",""15490""
","
","
","""event"",""trial"",""time""
""fullscreenenter"",""1"",""15490""
","
","","","-1","","","14","1330","189","f","elianto","#3366ff99"," ","-1","0","0","[]","0","2","","","1330","32","2","1","win","go","0","0"
"pit-trial","104","890102","0.0-37.0","battery-v0.2","","""event"",""trial"",""time""
""fullscreenenter"",""1"",""15490""
","
","
","""event"",""trial"",""time""
""fullscreenenter"",""1"",""15490""
","
","","","1514.0999999940395","","","14","1330","189","q","elianto","#3366ff99","-1"," ","0","0","[2365.199999988079]","1","2","","","1330","33","0","2","win","no-go","0","0"
"pit-trial","105","893723","0.0-38.0","battery-v0.2","","""event"",""trial"",""time""
""fullscreenenter"",""1"",""15490""
","
","
","""event"",""trial"",""time""
""fullscreenenter"",""1"",""15490""
","
","","","768.6000000089407","","","14","1330","189","f","elianto","#3366ff99"," "," ","1","+10","[1618.7999999970198]","1","2","","","1330","34","2","1","win","go","0","0"
"pit-trial","106","897319","0.0-39.0","battery-v0.2","","""event"",""trial"",""time""
""fullscreenenter"",""1"",""15490""
","
","
","""event"",""trial"",""time""
""fullscreenenter"",""1"",""15490""
","
","","","741.7999999970198","","","14","1330","189","x","elianto","#f73b6a7A"," "," ","1","-10","[1592.8999999910593]","1","2","","","1330","35","3","3","lose","go","1","0"
"pit-trial","107","900887","0.0-40.0","battery-v0.2","","""event"",""trial"",""time""
""fullscreenenter"",""1"",""15490""
","
","
","""event"",""trial"",""time""
""fullscreenenter"",""1"",""15490""
","
","","","713.7999999970198","","","14","1330","189","n","elianto","#3366ff99","-1"," ","0","0","[1564.7000000029802]","1","2","","","1330","36","1","2","win","no-go","0","0"
"pit-trial","108","905739","0.0-41.0","battery-v0.2","","""event"",""trial"",""time""
""fullscreenenter"",""1"",""15490""
","
","
","""event"",""trial"",""time""
""fullscreenenter"",""1"",""15490""
","
","","","-1","","","14","1330","189","q","elianto","#3366ff99","-1","-1","1","+10","[]","0","2","","","1330","37","0","2","win","no-go","0","0"
"pit-trial","109","909256","0.0-42.0","battery-v0.2","","""event"",""trial"",""time""
""fullscreenenter"",""1"",""15490""
","
","
","""event"",""trial"",""time""
""fullscreenenter"",""1"",""15490""
","
","","","663.7999999970198","","","14","1330","189","f","elianto","#3366ff99"," "," ","1","+10","[1514.7000000029802]","1","2","","","1330","38","2","1","win","go","0","0"
"pit-trial","110","912748","0.0-43.0","battery-v0.2","","""event"",""trial"",""time""
""fullscreenenter"",""1"",""15490""
","
","
","""event"",""trial"",""time""
""fullscreenenter"",""1"",""15490""
","
","","","637.4000000059605","","","14","1330","189","n","elianto","#3366ff99","-1"," ","0","+10","[1489.2000000029802]","1","2","","","1330","39","1","2","win","no-go","1","0"
"pit-trial","111","916131","0.0-44.0","battery-v0.2","","""event"",""trial"",""time""
""fullscreenenter"",""1"",""15490""
","
","
","""event"",""trial"",""time""
""fullscreenenter"",""1"",""15490""
","
","","","528.5999999940395","","","14","1330","189","x","elianto","#f73b6a7A"," "," ","1","-10","[1379.8999999910593]","1","2","","","1330","40","3","3","lose","go","1","0"
"pit-trial","112","919701","0.0-45.0","battery-v0.2","","""event"",""trial"",""time""
""fullscreenenter"",""1"",""15490""
","
","
","""event"",""trial"",""time""
""fullscreenenter"",""1"",""15490""
","
","","","716.5999999940395","","","14","1330","189","x","elianto","#f73b6a7A"," "," ","1","0","[1567.3999999910593]","1","2","","","1330","41","3","3","lose","go","0","0"
"pit-trial","113","924565","0.0-46.0","battery-v0.2","","""event"",""trial"",""time""
""fullscreenenter"",""1"",""15490""
","
","
","""event"",""trial"",""time""
""fullscreenenter"",""1"",""15490""
","
","","","-1","","","14","1330","189","q","elianto","#3366ff99","-1","-1","1","+10","[]","0","2","","","1330","42","0","2","win","no-go","0","0"
"pit-trial","114","928037","0.0-47.0","battery-v0.2","","""event"",""trial"",""time""
""fullscreenenter"",""1"",""15490""
","
","
","""event"",""trial"",""time""
""fullscreenenter"",""1"",""15490""
","
","","","617.7999999970198","","","14","1330","189","f","elianto","#3366ff99"," "," ","1","+10","[1468.5]","1","2","","","1330","43","2","1","win","go","0","0"
"pit-trial","115","931406","0.0-48.0","battery-v0.2","","""event"",""trial"",""time""
""fullscreenenter"",""1"",""15490""
","
","
","""event"",""trial"",""time""
""fullscreenenter"",""1"",""15490""
","
","","","515.2000000029802","","","14","1330","189","n","elianto","#3366ff99","-1"," ","0","0","[1366.5]","1","2","","","1330","44","1","2","win","no-go","0","0"
"pit-trial","116","934890","0.0-49.0","battery-v0.2","","""event"",""trial"",""time""
""fullscreenenter"",""1"",""15490""
","
","
","""event"",""trial"",""time""
""fullscreenenter"",""1"",""15490""
","
","","","631.5","","","14","1330","189","x","elianto","#f73b6a7A"," "," ","1","0","[1481.7999999970198]","1","2","","","1330","45","3","3","lose","go","0","0"
"pit-trial","117","939743","0.0-50.0","battery-v0.2","","""event"",""trial"",""time""
""fullscreenenter"",""1"",""15490""
","
","
","""event"",""trial"",""time""
""fullscreenenter"",""1"",""15490""
","
","","","-1","","","14","1330","189","q","elianto","#3366ff99","-1","-1","1","+10","[]","0","2","","","1330","46","0","2","win","no-go","0","0"
"pit-trial","118","943233","0.0-51.0","battery-v0.2","","""event"",""trial"",""time""
""fullscreenenter"",""1"",""15490""
","
","
","""event"",""trial"",""time""
""fullscreenenter"",""1"",""15490""
","
","","","636.9000000059605","","","14","1330","189","n","elianto","#3366ff99","-1"," ","0","+10","[1488]","1","2","","","1330","47","1","2","win","no-go","1","0"
"pit-trial","119","946891","0.0-52.0","battery-v0.2","","""event"",""trial"",""time""
""fullscreenenter"",""1"",""15490""
","
","
","""event"",""trial"",""time""
""fullscreenenter"",""1"",""15490""
","
","","","791.9000000059605","","","14","1330","189","f","elianto","#3366ff99"," "," ","1","0","[1642.9000000059605]","1","2","","","1330","48","2","1","win","go","1","0"
"pit-trial","120","950509","0.0-53.0","battery-v0.2","","""event"",""trial"",""time""
""fullscreenenter"",""1"",""15490""
","
","
","""event"",""trial"",""time""
""fullscreenenter"",""1"",""15490""
","
","","","764.9000000059605","","","14","1330","189","f","elianto","#3366ff99"," "," ","1","+10","[1615.199999988079]","1","2","","","1330","49","2","1","win","go","0","0"
"pit-trial","121","955363","0.0-54.0","battery-v0.2","","""event"",""trial"",""time""
""fullscreenenter"",""1"",""15490""
","
","
","""event"",""trial"",""time""
""fullscreenenter"",""1"",""15490""
","
","","","-1","","","14","1330","189","q","elianto","#3366ff99","-1","-1","1","+10","[]","0","2","","","1330","50","0","2","win","no-go","0","0"
"pit-trial","122","959319","0.0-55.0","battery-v0.2","","""event"",""trial"",""time""
""fullscreenenter"",""1"",""15490""
","
","
","""event"",""trial"",""time""
""fullscreenenter"",""1"",""15490""
","
","","","1101.8999999910593","","","14","1330","189","n","elianto","#3366ff99","-1"," ","0","0","[1953.2000000029802]","1","2","","","1330","51","1","2","win","no-go","0","0"
"pit-trial","123","962714","0.0-56.0","battery-v0.2","","""event"",""trial"",""time""
""fullscreenenter"",""1"",""15490""
","
","
","""event"",""trial"",""time""
""fullscreenenter"",""1"",""15490""
","
","","","541.5999999940395","","","14","1330","189","x","elianto","#f73b6a7A"," "," ","1","0","[1392.7999999970198]","1","2","","","1330","52","3","3","lose","go","0","0"
"pit-trial","124","967569","0.0-57.0","battery-v0.2","","""event"",""trial"",""time""
""fullscreenenter"",""1"",""15490""
","
","
","""event"",""trial"",""time""
""fullscreenenter"",""1"",""15490""
","
","","","-1","","","14","1330","189","t","elianto","#f73b6a7A","-1","-1","1","0","[]","0","2","","","1330","53","4","4","lose","no-go","0","0"
"pit-trial","125","971028","0.0-58.0","battery-v0.2","","""event"",""trial"",""time""
""fullscreenenter"",""1"",""15490""
","
","
","""event"",""trial"",""time""
""fullscreenenter"",""1"",""15490""
","
","","","605.5","","","14","1330","189","f","elianto","#3366ff99"," "," ","1","0","[1456.7999999970198]","1","2","","","1330","54","2","1","win","go","1","0"
"pit-trial","126","975880","0.0-59.0","battery-v0.2","","""event"",""trial"",""time""
""fullscreenenter"",""1"",""15490""
","
","
","""event"",""trial"",""time""
""fullscreenenter"",""1"",""15490""
","
","","","-1","","","14","1330","189","q","elianto","#3366ff99","-1","-1","1","+10","[]","0","2","","","1330","55","0","2","win","no-go","0","0"
"pit-trial","127","979980","0.0-60.0","battery-v0.2","","""event"",""trial"",""time""
""fullscreenenter"",""1"",""15490""
","
","
","""event"",""trial"",""time""
""fullscreenenter"",""1"",""15490""
","
","","","1246","","","14","1330","189","b","elianto","#f73b6a7A"," "," ","1","0","[2096.5]","1","2","","","1330","56","5","3","lose","go","0","0"
"pit-trial","128","983863","0.0-61.0","battery-v0.2","","""event"",""trial"",""time""
""fullscreenenter"",""1"",""15490""
","
","
","""event"",""trial"",""time""
""fullscreenenter"",""1"",""15490""
","
","","","1028","","","14","1330","189","f","elianto","#3366ff99"," "," ","1","0","[1879.7999999970198]","1","2","","","1330","57","2","1","win","go","1","0"
"pit-trial","129","988715","0.0-62.0","battery-v0.2","","""event"",""trial"",""time""
""fullscreenenter"",""1"",""15490""
","
","
","""event"",""trial"",""time""
""fullscreenenter"",""1"",""15490""
","
","","","-1","","","14","1330","189","q","elianto","#3366ff99","-1","-1","1","+10","[]","0","2","","","1330","58","0","2","win","no-go","0","0"
"pit-trial","130","992516","0.0-63.0","battery-v0.2","","""event"",""trial"",""time""
""fullscreenenter"",""1"",""15490""
","
","
","""event"",""trial"",""time""
""fullscreenenter"",""1"",""15490""
","
","","","947.4000000059605","","","14","1330","189","b","elianto","#f73b6a7A"," "," ","1","0","[1798.2000000029802]","1","2","","","1330","59","5","3","lose","go","0","0"
"pit-trial","131","997370","0.0-64.0","battery-v0.2","","""event"",""trial"",""time""
""fullscreenenter"",""1"",""15490""
","
","
","""event"",""trial"",""time""
""fullscreenenter"",""1"",""15490""
","
","","","-1","","","14","1330","189","t","elianto","#f73b6a7A","-1","-1","1","0","[]","0","2","","","1330","60","4","4","lose","no-go","0","0"
"pit-trial","132","1001758","0.0-65.0","battery-v0.2","","""event"",""trial"",""time""
""fullscreenenter"",""1"",""15490""
","
","
","""event"",""trial"",""time""
""fullscreenenter"",""1"",""15490""
","
","","","1534.8999999910593","","","14","1330","189","c","elianto","#3366ff99","-1"," ","0","0","[2385.2999999970198]","1","2","","","1330","61","6","2","win","no-go","0","0"
"pit-trial","133","1005549","0.0-66.0","battery-v0.2","","""event"",""trial"",""time""
""fullscreenenter"",""1"",""15490""
","
","
","""event"",""trial"",""time""
""fullscreenenter"",""1"",""15490""
","
","","","937.3999999910593","","","14","1330","189","f","elianto","#3366ff99"," "," ","1","+10","[1787.9000000059605]","1","2","","","1330","62","2","1","win","go","0","0"
"pit-trial","134","1010110","0.0-67.0","battery-v0.2","","""event"",""trial"",""time""
""fullscreenenter"",""1"",""15490""
","
","
","""event"",""trial"",""time""
""fullscreenenter"",""1"",""15490""
","
","","","1707.800000011921","","","14","1330","189","b","elianto","#f73b6a7A"," "," ","1","0","[2558.3999999910593]","1","2","","","1330","63","5","3","lose","go","0","0"
"pit-trial","135","1014965","0.0-68.0","battery-v0.2","","""event"",""trial"",""time""
""fullscreenenter"",""1"",""15490""
","
","
","""event"",""trial"",""time""
""fullscreenenter"",""1"",""15490""
","
","","","-1","","","14","1330","189","t","elianto","#f73b6a7A","-1","-1","1","0","[]","0","2","","","1330","64","4","4","lose","no-go","0","0"
"pit-trial","136","1019817","0.0-69.0","battery-v0.2","","""event"",""trial"",""time""
""fullscreenenter"",""1"",""15490""
","
","
","""event"",""trial"",""time""
""fullscreenenter"",""1"",""15490""
","
","","","-1","","","14","1330","189","t","elianto","#f73b6a7A","-1","-1","1","-10","[]","0","2","","","1330","65","4","4","lose","no-go","1","0"
"pit-trial","137","1023723","0.0-70.0","battery-v0.2","","""event"",""trial"",""time""
""fullscreenenter"",""1"",""15490""
","
","
","""event"",""trial"",""time""
""fullscreenenter"",""1"",""15490""
","
","","","1051.7000000029802","","","14","1330","189","b","elianto","#f73b6a7A"," "," ","1","0","[1902.7000000029802]","1","2","","","1330","66","5","3","lose","go","0","0"
"pit-trial","138","1028577","0.0-71.0","battery-v0.2","","""event"",""trial"",""time""
""fullscreenenter"",""1"",""15490""
","
","
","""event"",""trial"",""time""
""fullscreenenter"",""1"",""15490""
","
","","","-1","","","14","1330","189","c","elianto","#3366ff99","-1","-1","1","+10","[]","0","2","","","1330","67","6","2","win","no-go","0","0"
"pit-trial","139","1032506","0.0-72.0","battery-v0.2","","""event"",""trial"",""time""
""fullscreenenter"",""1"",""15490""
","
","
","""event"",""trial"",""time""
""fullscreenenter"",""1"",""15490""
","
","","","1075.2000000029802","","","14","1330","189","f","elianto","#3366ff99"," "," ","1","+10","[1926]","1","2","","","1330","68","2","1","win","go","0","0"
"pit-trial","140","1037360","0.0-73.0","battery-v0.2","","""event"",""trial"",""time""
""fullscreenenter"",""1"",""15490""
","
","
","""event"",""trial"",""time""
""fullscreenenter"",""1"",""15490""
","
","","","-1","","","14","1330","189","c","elianto","#3366ff99","-1","-1","1","+10","[]","0","2","","","1330","69","6","2","win","no-go","0","0"
"pit-trial","141","1042213","0.0-74.0","battery-v0.2","","""event"",""trial"",""time""
""fullscreenenter"",""1"",""15490""
","
","
","""event"",""trial"",""time""
""fullscreenenter"",""1"",""15490""
","
","","","-1","","","14","1330","189","t","elianto","#f73b6a7A","-1","-1","1","0","[]","0","2","","","1330","70","4","4","lose","no-go","0","0"
"pit-trial","142","1046573","0.0-75.0","battery-v0.2","","""event"",""trial"",""time""
""fullscreenenter"",""1"",""15490""
","
","
","""event"",""trial"",""time""
""fullscreenenter"",""1"",""15490""
","
","","","1506.5","","","14","1330","189","z","elianto","#f73b6a7A","-1"," ","0","0","[2357.7999999970198]","1","2","","","1330","71","7","4","lose","no-go","1","0"
"pit-trial","143","1050281","0.0-76.0","battery-v0.2","","""event"",""trial"",""time""
""fullscreenenter"",""1"",""15490""
","
","
","""event"",""trial"",""time""
""fullscreenenter"",""1"",""15490""
","
","","","854.9000000059605","","","14","1330","189","b","elianto","#f73b6a7A"," "," ","1","0","[1706.1000000089407]","1","2","","","1330","72","5","3","lose","go","0","0"
"pit-trial","144","1054234","0.0-77.0","battery-v0.2","","""event"",""trial"",""time""
""fullscreenenter"",""1"",""15490""
","
","
","""event"",""trial"",""time""
""fullscreenenter"",""1"",""15490""
","
","","","1099.6000000089407","","","14","1330","189","z","elianto","#f73b6a7A","-1"," ","0","-10","[1950.7999999970198]","1","2","","","1330","73","7","4","lose","no-go","0","0"
"pit-trial","145","1059087","0.0-78.0","battery-v0.2","","""event"",""trial"",""time""
""fullscreenenter"",""1"",""15490""
","
","
","""event"",""trial"",""time""
""fullscreenenter"",""1"",""15490""
","
","","","-1","","","14","1330","189","t","elianto","#f73b6a7A","-1","-1","1","0","[]","0","2","","","1330","74","4","4","lose","no-go","0","0"
"pit-trial","146","1063940","0.0-79.0","battery-v0.2","","""event"",""trial"",""time""
""fullscreenenter"",""1"",""15490""
","
","
","""event"",""trial"",""time""
""fullscreenenter"",""1"",""15490""
","
","","","-1","","","14","1330","189","c","elianto","#3366ff99","-1","-1","1","+10","[]","0","2","","","1330","75","6","2","win","no-go","0","0"
"pit-trial","147","1067601","0.0-80.0","battery-v0.2","","""event"",""trial"",""time""
""fullscreenenter"",""1"",""15490""
","
","
","""event"",""trial"",""time""
""fullscreenenter"",""1"",""15490""
","
","","","806.7000000029802","","","14","1330","189","b","elianto","#f73b6a7A"," "," ","1","0","[1657.5999999940395]","1","2","","","1330","76","5","3","lose","go","0","0"
"pit-trial","148","1072455","0.0-81.0","battery-v0.2","","""event"",""trial"",""time""
""fullscreenenter"",""1"",""15490""
","
","
","""event"",""trial"",""time""
""fullscreenenter"",""1"",""15490""
","
","","","-1","","","14","1330","189","z","elianto","#f73b6a7A","-1","-1","1","0","[]","0","2","","","1330","77","7","4","lose","no-go","0","0"
"pit-trial","149","1076374","0.0-82.0","battery-v0.2","","""event"",""trial"",""time""
""fullscreenenter"",""1"",""15490""
","
","
","""event"",""trial"",""time""
""fullscreenenter"",""1"",""15490""
","
","","","1066.3999999910593","","","14","1330","189","b","elianto","#f73b6a7A"," "," ","1","0","[1916.7999999970198]","1","2","","","1330","78","5","3","lose","go","0","0"
"pit-trial","150","1081227","0.0-83.0","battery-v0.2","","""event"",""trial"",""time""
""fullscreenenter"",""1"",""15490""
","
","
","""event"",""trial"",""time""
""fullscreenenter"",""1"",""15490""
","
","","","-1","","","14","1330","189","c","elianto","#3366ff99","-1","-1","1","+10","[]","0","2","","","1330","79","6","2","win","no-go","0","0"
"pit-trial","151","1086080","0.0-84.0","battery-v0.2","","""event"",""trial"",""time""
""fullscreenenter"",""1"",""15490""
","
","
","""event"",""trial"",""time""
""fullscreenenter"",""1"",""15490""
","
","","","-1","","","14","1330","189","t","elianto","#f73b6a7A","-1","-1","1","0","[]","0","2","","","1330","80","4","4","lose","no-go","0","0"
"pit-trial","152","1090935","0.0-85.0","battery-v0.2","","""event"",""trial"",""time""
""fullscreenenter"",""1"",""15490""
","
","
","""event"",""trial"",""time""
""fullscreenenter"",""1"",""15490""
","
","","","-1","","","14","1330","189","t","elianto","#f73b6a7A","-1","-1","1","0","[]","0","2","","","1330","81","4","4","lose","no-go","0","0"
"pit-trial","153","1095789","0.0-86.0","battery-v0.2","","""event"",""trial"",""time""
""fullscreenenter"",""1"",""15490""
","
","
","""event"",""trial"",""time""
""fullscreenenter"",""1"",""15490""
","
","","","-1","","","14","1330","189","z","elianto","#f73b6a7A","-1","-1","1","0","[]","0","2","","","1330","82","7","4","lose","no-go","0","0"
"pit-trial","154","1100642","0.0-87.0","battery-v0.2","","""event"",""trial"",""time""
""fullscreenenter"",""1"",""15490""
","
","
","""event"",""trial"",""time""
""fullscreenenter"",""1"",""15490""
","
","","","-1","","","14","1330","189","c","elianto","#3366ff99","-1","-1","1","0","[]","0","2","","","1330","83","6","2","win","no-go","1","0"
"pit-trial","155","1105195","0.0-88.0","battery-v0.2","","""event"",""trial"",""time""
""fullscreenenter"",""1"",""15490""
","
","
","""event"",""trial"",""time""
""fullscreenenter"",""1"",""15490""
","
","","","1699.5","","","14","1330","189","b","elianto","#f73b6a7A"," "," ","1","0","[2550.5]","1","2","","","1330","84","5","3","lose","go","0","0"
"pit-trial","156","1108907","0.0-89.0","battery-v0.2","","""event"",""trial"",""time""
""fullscreenenter"",""1"",""15490""
","
","
","""event"",""trial"",""time""
""fullscreenenter"",""1"",""15490""
","
","","","857.8999999910593","","","14","1330","189","b","elianto","#f73b6a7A"," "," ","1","0","[1708.4000000059605]","1","2","","","1330","85","5","3","lose","go","0","0"
"pit-trial","157","1113760","0.0-90.0","battery-v0.2","","""event"",""trial"",""time""
""fullscreenenter"",""1"",""15490""
","
","
","""event"",""trial"",""time""
""fullscreenenter"",""1"",""15490""
","
","","","-1","","","14","1330","189","z","elianto","#f73b6a7A","-1","-1","1","0","[]","0","2","","","1330","86","7","4","lose","no-go","0","0"
"pit-trial","158","1118613","0.0-91.0","battery-v0.2","","""event"",""trial"",""time""
""fullscreenenter"",""1"",""15490""
","
","
","""event"",""trial"",""time""
""fullscreenenter"",""1"",""15490""
","
","","","-1","","","14","1330","189","t","elianto","#f73b6a7A","-1","-1","1","0","[]","0","2","","","1330","87","4","4","lose","no-go","0","0"
"pit-trial","159","1123466","0.0-92.0","battery-v0.2","","""event"",""trial"",""time""
""fullscreenenter"",""1"",""15490""
","
","
","""event"",""trial"",""time""
""fullscreenenter"",""1"",""15490""
","
","","","-1","","","14","1330","189","c","elianto","#3366ff99","-1","-1","1","+10","[]","0","2","","","1330","88","6","2","win","no-go","0","0"
"pit-trial","160","1126995","0.0-93.0","battery-v0.2","","""event"",""trial"",""time""
""fullscreenenter"",""1"",""15490""
","
","
","""event"",""trial"",""time""
""fullscreenenter"",""1"",""15490""
","
","","","675.5","","","14","1330","189","b","elianto","#f73b6a7A"," "," ","1","0","[1526.0999999940395]","1","2","","","1330","89","5","3","lose","go","0","0"
"pit-trial","161","1131848","0.0-94.0","battery-v0.2","","""event"",""trial"",""time""
""fullscreenenter"",""1"",""15490""
","
","
","""event"",""trial"",""time""
""fullscreenenter"",""1"",""15490""
","
","","","-1","","","14","1330","189","c","elianto","#3366ff99","-1","-1","1","0","[]","0","2","","","1330","90","6","2","win","no-go","1","0"
"pit-trial","162","1136701","0.0-95.0","battery-v0.2","","""event"",""trial"",""time""
""fullscreenenter"",""1"",""15490""
","
","
","""event"",""trial"",""time""
""fullscreenenter"",""1"",""15490""
","
","","","-1","","","14","1330","189","z","elianto","#f73b6a7A","-1","-1","1","-10","[]","0","2","","","1330","91","7","4","lose","no-go","1","0"
"pit-trial","163","1141555","0.0-96.0","battery-v0.2","","""event"",""trial"",""time""
""fullscreenenter"",""1"",""15490""
","
","
","""event"",""trial"",""time""
""fullscreenenter"",""1"",""15490""
","
","","","-1","","","14","1330","189","t","elianto","#f73b6a7A","-1","-1","1","0","[]","0","2","","","1330","92","4","4","lose","no-go","0","0"
"pit-trial","164","1145724","0.0-97.0","battery-v0.2","","""event"",""trial"",""time""
""fullscreenenter"",""1"",""15490""
","
","
","""event"",""trial"",""time""
""fullscreenenter"",""1"",""15490""
","
","","","1316.6000000089407","","","14","1330","189","h","elianto","#f73b6a7A","-1"," ","0","0","[2167.1000000089407]","1","2","","","1330","93","8","4","lose","no-go","1","0"
"pit-trial","165","1150577","0.0-98.0","battery-v0.2","","""event"",""trial"",""time""
""fullscreenenter"",""1"",""15490""
","
","
","""event"",""trial"",""time""
""fullscreenenter"",""1"",""15490""
","
","","","-1","","","14","1330","189","z","elianto","#f73b6a7A","-1","-1","1","0","[]","0","2","","","1330","94","7","4","lose","no-go","0","0"
"pit-trial","166","1155430","0.0-99.0","battery-v0.2","","""event"",""trial"",""time""
""fullscreenenter"",""1"",""15490""
","
","
","""event"",""trial"",""time""
""fullscreenenter"",""1"",""15490""
","
","","","-1","","","14","1330","189","c","elianto","#3366ff99","-1","-1","1","+10","[]","0","2","","","1330","95","6","2","win","no-go","0","0"
"pit-trial","167","1159069","0.0-100.0","battery-v0.2","","""event"",""trial"",""time""
""fullscreenenter"",""1"",""15490""
","
","
","""event"",""trial"",""time""
""fullscreenenter"",""1"",""15490""
","
","","","785.4000000059605","","","14","1330","189","b","elianto","#f73b6a7A"," "," ","1","0","[1636,2514.5999999940395]","2","2","","","1330","96","5","3","lose","go","0","0"
"pit-trial","168","1163923","0.0-101.0","battery-v0.2","","""event"",""trial"",""time""
""fullscreenenter"",""1"",""15490""
","
","
","""event"",""trial"",""time""
""fullscreenenter"",""1"",""15490""
","
","","","-1","","","14","1330","189","c","elianto","#3366ff99","-1","-1","1","+10","[]","0","2","","","1330","97","6","2","win","no-go","0","0"
"pit-trial","169","1167458","0.0-102.0","battery-v0.2","","""event"",""trial"",""time""
""fullscreenenter"",""1"",""15490""
","
","
","""event"",""trial"",""time""
""fullscreenenter"",""1"",""15490""
","
","","","681.7999999970198","","","14","1330","189","b","elianto","#f73b6a7A"," "," ","1","-10","[1532.7000000029802]","1","2","","","1330","98","5","3","lose","go","1","0"
"pit-trial","170","1172310","0.0-103.0","battery-v0.2","","""event"",""trial"",""time""
""fullscreenenter"",""1"",""15490""
","
","
","""event"",""trial"",""time""
""fullscreenenter"",""1"",""15490""
","
","","","-1","","","14","1330","189","z","elianto","#f73b6a7A","-1","-1","1","0","[]","0","2","","","1330","99","7","4","lose","no-go","0","0"
"pit-trial","171","1176518","0.0-104.0","battery-v0.2","","""event"",""trial"",""time""
""fullscreenenter"",""1"",""15490""
","
","
","""event"",""trial"",""time""
""fullscreenenter"",""1"",""15490""
","
","","","1354.7000000029802","","","14","1330","189","h","elianto","#f73b6a7A","-1"," ","0","-10","[2205.2000000029802]","1","2","","","1330","100","8","4","lose","no-go","0","0"
"pit-trial","172","1181371","0.0-105.0","battery-v0.2","","""event"",""trial"",""time""
""fullscreenenter"",""1"",""15490""
","
","
","""event"",""trial"",""time""
""fullscreenenter"",""1"",""15490""
","
","","","-1","","","14","1330","189","c","elianto","#3366ff99","-1","-1","1","0","[]","0","2","","","1330","101","6","2","win","no-go","1","0"
"pit-trial","173","1185726","0.0-106.0","battery-v0.2","","""event"",""trial"",""time""
""fullscreenenter"",""1"",""15490""
","
","
","""event"",""trial"",""time""
""fullscreenenter"",""1"",""15490""
","
","","","1502.4000000059605","","","14","1330","189","r","elianto","#f73b6a7A"," "," ","1","-10","[2353.0999999940395]","1","2","","","1330","102","10","3","lose","go","1","0"
"pit-trial","174","1189580","0.0-107.0","battery-v0.2","","""event"",""trial"",""time""
""fullscreenenter"",""1"",""15490""
","
","
","""event"",""trial"",""time""
""fullscreenenter"",""1"",""15490""
","
","","","1002","","","14","1330","189","h","elianto","#f73b6a7A","-1"," ","0","-10","[1852.4000000059605]","1","2","","","1330","103","8","4","lose","no-go","0","0"
"pit-trial","175","1193566","0.0-108.0","battery-v0.2","","""event"",""trial"",""time""
""fullscreenenter"",""1"",""15490""
","
","
","""event"",""trial"",""time""
""fullscreenenter"",""1"",""15490""
","
","","","1131.8999999910593","","","14","1330","189","y","elianto","#3366ff99"," "," ","1","+10","[1982.699999988079]","1","2","","","1330","104","9","1","win","go","0","0"
"pit-trial","176","1197211","0.0-109.0","battery-v0.2","","""event"",""trial"",""time""
""fullscreenenter"",""1"",""15490""
","
","
","""event"",""trial"",""time""
""fullscreenenter"",""1"",""15490""
","
","","","792.2999999970198","","","14","1330","189","r","elianto","#f73b6a7A"," "," ","1","0","[1643.2999999970198]","1","2","","","1330","105","10","3","lose","go","0","0"
"pit-trial","177","1200989","0.0-110.0","battery-v0.2","","""event"",""trial"",""time""
""fullscreenenter"",""1"",""15490""
","
","
","""event"",""trial"",""time""
""fullscreenenter"",""1"",""15490""
","
","","","923.5","","","14","1330","189","h","elianto","#f73b6a7A","-1"," ","0","-10","[1774.7999999970198]","1","2","","","1330","106","8","4","lose","no-go","0","0"
"pit-trial","178","1205844","0.0-111.0","battery-v0.2","","""event"",""trial"",""time""
""fullscreenenter"",""1"",""15490""
","
","
","""event"",""trial"",""time""
""fullscreenenter"",""1"",""15490""
","
","","","-1","","","14","1330","189","c","elianto","#3366ff99","-1","-1","1","0","[]","0","2","","","1330","107","6","2","win","no-go","1","0"
"pit-trial","179","1210164","0.0-112.0","battery-v0.2","","""event"",""trial"",""time""
""fullscreenenter"",""1"",""15490""
","
","
","""event"",""trial"",""time""
""fullscreenenter"",""1"",""15490""
","
","","","1465.9000000059605","","","14","1330","189","y","elianto","#3366ff99"," "," ","1","+10","[2317.1000000089407]","1","2","","","1330","108","9","1","win","go","0","0"
"pit-trial","180","1213596","0.0-113.0","battery-v0.2","","""event"",""trial"",""time""
""fullscreenenter"",""1"",""15490""
","
","
","""event"",""trial"",""time""
""fullscreenenter"",""1"",""15490""
","
","","","579.2999999970198","","","14","1330","189","y","elianto","#3366ff99"," "," ","1","+10","[1430]","1","2","","","1330","109","9","1","win","go","0","0"
"pit-trial","181","1217234","0.0-114.0","battery-v0.2","","""event"",""trial"",""time""
""fullscreenenter"",""1"",""15490""
","
","
","""event"",""trial"",""time""
""fullscreenenter"",""1"",""15490""
","
","","","783.7000000029802","","","14","1330","189","h","elianto","#f73b6a7A","-1"," ","0","-10","[1635.2000000029802]","1","2","","","1330","110","8","4","lose","no-go","0","0"
"pit-trial","182","1220660","0.0-115.0","battery-v0.2","","""event"",""trial"",""time""
""fullscreenenter"",""1"",""15490""
","
","
","""event"",""trial"",""time""
""fullscreenenter"",""1"",""15490""
","
","","","571.7999999970198","","","14","1330","189","r","elianto","#f73b6a7A"," "," ","1","0","[1423.2000000029802]","1","2","","","1330","111","10","3","lose","go","0","0"
"pit-trial","183","1224314","0.0-116.0","battery-v0.2","","""event"",""trial"",""time""
""fullscreenenter"",""1"",""15490""
","
","
","""event"",""trial"",""time""
""fullscreenenter"",""1"",""15490""
","
","","","801.7999999970198","","","14","1330","189","m","elianto","#3366ff99"," "," ","1","0","[1652.5]","1","2","","","1330","112","11","1","win","go","1","0"
"pit-trial","184","1227762","0.0-117.0","battery-v0.2","","""event"",""trial"",""time""
""fullscreenenter"",""1"",""15490""
","
","
","""event"",""trial"",""time""
""fullscreenenter"",""1"",""15490""
","
","","","595.2000000029802","","","14","1330","189","y","elianto","#3366ff99"," "," ","1","+10","[1446.2999999970198]","1","2","","","1330","113","9","1","win","go","0","0"
"pit-trial","185","1231212","0.0-118.0","battery-v0.2","","""event"",""trial"",""time""
""fullscreenenter"",""1"",""15490""
","
","
","""event"",""trial"",""time""
""fullscreenenter"",""1"",""15490""
","
","","","595.5","","","14","1330","189","h","elianto","#f73b6a7A","-1"," ","0","-10","[1447.2000000029802]","1","2","","","1330","114","8","4","lose","no-go","0","0"
"pit-trial","186","1234954","0.0-119.0","battery-v0.2","","""event"",""trial"",""time""
""fullscreenenter"",""1"",""15490""
","
","
","""event"",""trial"",""time""
""fullscreenenter"",""1"",""15490""
","
","","","887.2000000029802","","","14","1330","189","r","elianto","#f73b6a7A"," "," ","1","-10","[1738.6000000089407]","1","2","","","1330","115","10","3","lose","go","1","0"
"pit-trial","187","1238693","0.0-120.0","battery-v0.2","","""event"",""trial"",""time""
""fullscreenenter"",""1"",""15490""
","
","
","""event"",""trial"",""time""
""fullscreenenter"",""1"",""15490""
","
","","","885.7000000029802","","","14","1330","189","m","elianto","#3366ff99"," "," ","1","+10","[1736.7999999970198]","1","2","","","1330","116","11","1","win","go","0","0"
"pit-trial","188","1242252","0.0-121.0","battery-v0.2","","""event"",""trial"",""time""
""fullscreenenter"",""1"",""15490""
","
","
","""event"",""trial"",""time""
""fullscreenenter"",""1"",""15490""
","
","","","705.4000000059605","","","14","1330","189","h","elianto","#f73b6a7A","-1"," ","0","-10","[1555.9000000059605]","1","2","","","1330","117","8","4","lose","no-go","0","0"
"pit-trial","189","1245789","0.0-122.0","battery-v0.2","","""event"",""trial"",""time""
""fullscreenenter"",""1"",""15490""
","
","
","""event"",""trial"",""time""
""fullscreenenter"",""1"",""15490""
","
","","","683.3999999910593","","","14","1330","189","y","elianto","#3366ff99"," "," ","1","+10","[1535.2000000029802]","1","2","","","1330","118","9","1","win","go","0","0"
"pit-trial","190","1249297","0.0-123.0","battery-v0.2","","""event"",""trial"",""time""
""fullscreenenter"",""1"",""15490""
","
","
","""event"",""trial"",""time""
""fullscreenenter"",""1"",""15490""
","
","","","653.5999999940395","","","14","1330","189","m","elianto","#3366ff99"," "," ","1","+10","[1505.2999999970198]","1","2","","","1330","119","11","1","win","go","0","0"
"pit-trial","191","1254150","0.0-124.0","battery-v0.2","","""event"",""trial"",""time""
""fullscreenenter"",""1"",""15490""
","
","
","""event"",""trial"",""time""
""fullscreenenter"",""1"",""15490""
","
","","","-1","","","14","1330","189","r","elianto","#f73b6a7A"," ","-1","0","-10","[]","0","2","","","1330","120","10","3","lose","go","0","0"
"pit-trial","192","1257639","0.0-125.0","battery-v0.2","","""event"",""trial"",""time""
""fullscreenenter"",""1"",""15490""
","
","
","""event"",""trial"",""time""
""fullscreenenter"",""1"",""15490""
","
","","","636.5","","","14","1330","189","m","elianto","#3366ff99"," "," ","1","+10","[1486.7999999970198]","1","2","","","1330","121","11","1","win","go","0","0"
"pit-trial","193","1261110","0.0-126.0","battery-v0.2","","""event"",""trial"",""time""
""fullscreenenter"",""1"",""15490""
","
","
","""event"",""trial"",""time""
""fullscreenenter"",""1"",""15490""
","
","","","616.4000000059605","","","14","1330","189","y","elianto","#3366ff99"," "," ","1","+10","[1467.5999999940395]","1","2","","","1330","122","9","1","win","go","0","0"
"pit-trial","194","1265963","0.0-127.0","battery-v0.2","","""event"",""trial"",""time""
""fullscreenenter"",""1"",""15490""
","
","
","""event"",""trial"",""time""
""fullscreenenter"",""1"",""15490""
","
","","","-1","","","14","1330","189","h","elianto","#f73b6a7A","-1","-1","1","-10","[]","0","2","","","1330","123","8","4","lose","no-go","1","0"
"pit-trial","195","1269868","0.0-128.0","battery-v0.2","","""event"",""trial"",""time""
""fullscreenenter"",""1"",""15490""
","
","
","""event"",""trial"",""time""
""fullscreenenter"",""1"",""15490""
","
","","","1051.7999999970198","","","14","1330","189","r","elianto","#f73b6a7A"," "," ","1","0","[1902.4000000059605]","1","2","","","1330","124","10","3","lose","go","0","0"
"pit-trial","196","1274721","0.0-129.0","battery-v0.2","","""event"",""trial"",""time""
""fullscreenenter"",""1"",""15490""
","
","
","""event"",""trial"",""time""
""fullscreenenter"",""1"",""15490""
","
","","","-1","","","14","1330","189","h","elianto","#f73b6a7A","-1","-1","1","0","[3070.300000011921]","1","2","","","1330","125","8","4","lose","no-go","0","0"
"pit-trial","197","1279574","0.0-130.0","battery-v0.2","","""event"",""trial"",""time""
""fullscreenenter"",""1"",""15490""
","
","
","""event"",""trial"",""time""
""fullscreenenter"",""1"",""15490""
","
","","","-1","","","14","1330","189","r","elianto","#f73b6a7A"," ","-1","0","0","[]","0","2","","","1330","126","10","3","lose","go","1","0"
"pit-trial","198","1283041","0.0-131.0","battery-v0.2","","""event"",""trial"",""time""
""fullscreenenter"",""1"",""15490""
","
","
","""event"",""trial"",""time""
""fullscreenenter"",""1"",""15490""
","
","","","613.3999999910593","","","14","1330","189","m","elianto","#3366ff99"," "," ","1","+10","[1464.199999988079]","1","2","","","1330","127","11","1","win","go","0","0"
"pit-trial","199","1286431","0.0-132.0","battery-v0.2","","""event"",""trial"",""time""
""fullscreenenter"",""1"",""15490""
","
","
","""event"",""trial"",""time""
""fullscreenenter"",""1"",""15490""
","
","","","532.5","","","14","1330","189","y","elianto","#3366ff99"," "," ","1","+10","[1383.300000011921]","1","2","","","1330","128","9","1","win","go","0","0"
"pit-trial","200","1290103","0.0-133.0","battery-v0.2","","""event"",""trial"",""time""
""fullscreenenter"",""1"",""15490""
","
","
","""event"",""trial"",""time""
""fullscreenenter"",""1"",""15490""
","
","","","818.1000000089407","","","14","1330","189","m","elianto","#3366ff99"," "," ","1","0","[1669.2999999970198]","1","2","","","1330","129","11","1","win","go","1","0"
"pit-trial","201","1293661","0.0-134.0","battery-v0.2","","""event"",""trial"",""time""
""fullscreenenter"",""1"",""15490""
","
","
","""event"",""trial"",""time""
""fullscreenenter"",""1"",""15490""
","
","","","704.7999999970198","","","14","1330","189","y","elianto","#3366ff99"," "," ","1","+10","[1555.3999999910593]","1","2","","","1330","130","9","1","win","go","0","0"
"pit-trial","202","1298515","0.0-135.0","battery-v0.2","","""event"",""trial"",""time""
""fullscreenenter"",""1"",""15490""
","
","
","""event"",""trial"",""time""
""fullscreenenter"",""1"",""15490""
","
","","","-1","","","14","1330","189","h","elianto","#f73b6a7A","-1","-1","1","0","[]","0","2","","","1330","131","8","4","lose","no-go","0","0"
"pit-trial","203","1303369","0.0-136.0","battery-v0.2","","""event"",""trial"",""time""
""fullscreenenter"",""1"",""15490""
","
","
","""event"",""trial"",""time""
""fullscreenenter"",""1"",""15490""
","
","","","-1","","","14","1330","189","r","elianto","#f73b6a7A"," ","-1","0","0","[]","0","2","","","1330","132","10","3","lose","go","1","0"
"pit-trial","204","1306878","0.0-137.0","battery-v0.2","","""event"",""trial"",""time""
""fullscreenenter"",""1"",""15490""
","
","
","""event"",""trial"",""time""
""fullscreenenter"",""1"",""15490""
","
","","","656.4000000059605","","","14","1330","189","m","elianto","#3366ff99"," "," ","1","0","[1507.5]","1","2","","","1330","133","11","1","win","go","1","0"
"pit-trial","205","1310996","0.0-138.0","battery-v0.2","","""event"",""trial"",""time""
""fullscreenenter"",""1"",""15490""
","
","
","""event"",""trial"",""time""
""fullscreenenter"",""1"",""15490""
","
","","","1264","","","14","1330","189","h","elianto","#f73b6a7A","-1"," ","0","0","[2115.2000000029802]","1","2","","","1330","134","8","4","lose","no-go","1","0"
"pit-trial","206","1314612","0.0-139.0","battery-v0.2","","""event"",""trial"",""time""
""fullscreenenter"",""1"",""15490""
","
","
","""event"",""trial"",""time""
""fullscreenenter"",""1"",""15490""
","
","","","761.2999999970198","","","14","1330","189","y","elianto","#3366ff99"," "," ","1","+10","[1612.699999988079]","1","2","","","1330","135","9","1","win","go","0","0"
"pit-trial","207","1319477","0.0-140.0","battery-v0.2","","""event"",""trial"",""time""
""fullscreenenter"",""1"",""15490""
","
","
","""event"",""trial"",""time""
""fullscreenenter"",""1"",""15490""
","
","","","-1","","","14","1330","189","r","elianto","#f73b6a7A"," ","-1","0","0","[]","0","2","","","1330","136","10","3","lose","go","1","0"
"pit-trial","208","1322988","0.0-141.0","battery-v0.2","","""event"",""trial"",""time""
""fullscreenenter"",""1"",""15490""
","
","
","""event"",""trial"",""time""
""fullscreenenter"",""1"",""15490""
","
","","","656.5","","","14","1330","189","m","elianto","#3366ff99"," "," ","1","+10","[1507.5999999940395]","1","2","","","1330","137","11","1","win","go","0","0"
"pit-trial","209","1327841","0.0-142.0","battery-v0.2","","""event"",""trial"",""time""
""fullscreenenter"",""1"",""15490""
","
","
","""event"",""trial"",""time""
""fullscreenenter"",""1"",""15490""
","
","","","-1","","","14","1330","189","r","elianto","#f73b6a7A"," ","-1","0","0","[]","0","2","","","1330","138","10","3","lose","go","1","0"
"pit-trial","210","1331565","0.0-143.0","battery-v0.2","","""event"",""trial"",""time""
""fullscreenenter"",""1"",""15490""
","
","
","""event"",""trial"",""time""
""fullscreenenter"",""1"",""15490""
","
","","","871","","","14","1330","189","h","elianto","#f73b6a7A","-1"," ","0","-10","[1721.199999988079]","1","2","","","1330","139","8","4","lose","no-go","0","0"
"pit-trial","211","1334998","0.0-144.0","battery-v0.2","","""event"",""trial"",""time""
""fullscreenenter"",""1"",""15490""
","
","
","""event"",""trial"",""time""
""fullscreenenter"",""1"",""15490""
","
","","","580.2999999970198","","","14","1330","189","y","elianto","#3366ff99"," "," ","1","0","[1431.4000000059605]","1","2","","","1330","140","9","1","win","go","1","0"
"pit-instructions","212","1359550","0.0-145.0","battery-v0.2","","""event"",""trial"",""time""
""fullscreenenter"",""1"",""15490""
","
","
","""event"",""trial"",""time""
""fullscreenenter"",""1"",""15490""
","
","","[{""page_index"":0,""viewing_time"":5874},{""page_index"":1,""viewing_time"":18676.19999998808}]","24550.39999999106","","","","","","","","","","","","","","","","","","","","","","","","",""
"pit-trial","213","1363913","0.0-146.0","battery-v0.2","","""event"",""trial"",""time""
""fullscreenenter"",""1"",""15490""
","
","
","""event"",""trial"",""time""
""fullscreenenter"",""1"",""15490""
","
","","","1477.9000000059605","","","14","1330","189","l","elianto","#f73b6a7A"," "," ","1","-10","[2328.5]","1","3","","","1330","141","1","3","lose","go","1","0"
"pit-trial","214","1367364","0.0-147.0","battery-v0.2","","""event"",""trial"",""time""
""fullscreenenter"",""1"",""15490""
","
","
","""event"",""trial"",""time""
""fullscreenenter"",""1"",""15490""
","
","","","577.1000000089407","","","14","1330","189","u","elianto","#3366ff99","-1"," ","0","0","[489,1437]","2","3","","","1330","142","0","2","win","no-go","0","0"
"pit-trial","215","1371000","0.0-148.0","battery-v0.2","","""event"",""trial"",""time""
""fullscreenenter"",""1"",""15490""
","
","
","""event"",""trial"",""time""
""fullscreenenter"",""1"",""15490""
","
","","","764.1000000089407","","","14","1330","189","a","elianto","#f73b6a7A","-1"," ","0","-10","[1618.199999988079]","1","3","","","1330","143","2","4","lose","no-go","0","0"
"pit-trial","216","1374518","0.0-149.0","battery-v0.2","","""event"",""trial"",""time""
""fullscreenenter"",""1"",""15490""
","
","
","""event"",""trial"",""time""
""fullscreenenter"",""1"",""15490""
","
","","","655.0999999940395","","","14","1330","189","g","elianto","#3366ff99"," "," ","1","+10","[1507.7999999970198]","1","3","","","1330","144","3","1","win","go","0","0"
"pit-trial","217","1378109","0.0-150.0","battery-v0.2","","""event"",""trial"",""time""
""fullscreenenter"",""1"",""15490""
","
","
","""event"",""trial"",""time""
""fullscreenenter"",""1"",""15490""
","
","","","723.7999999970198","","","14","1330","189","g","elianto","#3366ff99"," "," ","1","0","[1580]","1","3","","","1330","145","3","1","win","go","1","0"
"pit-trial","218","1382962","0.0-151.0","battery-v0.2","","""event"",""trial"",""time""
""fullscreenenter"",""1"",""15490""
","
","
","""event"",""trial"",""time""
""fullscreenenter"",""1"",""15490""
","
","","","-1","","","14","1330","189","l","elianto","#f73b6a7A"," ","-1","0","0","[]","0","3","","","1330","146","1","3","lose","go","1","0"
"pit-trial","219","1387817","0.0-152.0","battery-v0.2","","""event"",""trial"",""time""
""fullscreenenter"",""1"",""15490""
","
","
","""event"",""trial"",""time""
""fullscreenenter"",""1"",""15490""
","
","","","-1","","","14","1330","189","a","elianto","#f73b6a7A","-1","-1","1","0","[]","0","3","","","1330","147","2","4","lose","no-go","0","0"
"pit-trial","220","1392671","0.0-153.0","battery-v0.2","","""event"",""trial"",""time""
""fullscreenenter"",""1"",""15490""
","
","
","""event"",""trial"",""time""
""fullscreenenter"",""1"",""15490""
","
","","","-1","","","14","1330","189","u","elianto","#3366ff99","-1","-1","1","+10","[]","0","3","","","1330","148","0","2","win","no-go","0","0"
"pit-trial","221","1397525","0.0-154.0","battery-v0.2","","""event"",""trial"",""time""
""fullscreenenter"",""1"",""15490""
","
","
","""event"",""trial"",""time""
""fullscreenenter"",""1"",""15490""
","
","","","-1","","","14","1330","189","u","elianto","#3366ff99","-1","-1","1","+10","[]","0","3","","","1330","149","0","2","win","no-go","0","0"
"pit-trial","222","1401031","0.0-155.0","battery-v0.2","","""event"",""trial"",""time""
""fullscreenenter"",""1"",""15490""
","
","
","""event"",""trial"",""time""
""fullscreenenter"",""1"",""15490""
","
","","","652.5","","","14","1330","189","g","elianto","#3366ff99"," "," ","1","+10","[1503.2999999970198]","1","3","","","1330","150","3","1","win","go","0","0"
"pit-trial","223","1405886","0.0-156.0","battery-v0.2","","""event"",""trial"",""time""
""fullscreenenter"",""1"",""15490""
","
","
","""event"",""trial"",""time""
""fullscreenenter"",""1"",""15490""
","
","","","-1","","","14","1330","189","a","elianto","#f73b6a7A","-1","-1","1","-10","[]","0","3","","","1330","151","2","4","lose","no-go","1","0"
"pit-trial","224","1410741","0.0-157.0","battery-v0.2","","""event"",""trial"",""time""
""fullscreenenter"",""1"",""15490""
","
","
","""event"",""trial"",""time""
""fullscreenenter"",""1"",""15490""
","
","","","-1","","","14","1330","189","l","elianto","#f73b6a7A"," ","-1","0","-10","[]","0","3","","","1330","152","1","3","lose","go","0","0"
"pit-trial","225","1414724","0.0-158.0","battery-v0.2","","""event"",""trial"",""time""
""fullscreenenter"",""1"",""15490""
","
","
","""event"",""trial"",""time""
""fullscreenenter"",""1"",""15490""
","
","","","1129.6000000089407","","","14","1330","189","a","elianto","#f73b6a7A","-1"," ","0","-10","[1980.7000000029802]","1","3","","","1330","153","2","4","lose","no-go","0","0"
"pit-trial","226","1419577","0.0-159.0","battery-v0.2","","""event"",""trial"",""time""
""fullscreenenter"",""1"",""15490""
","
","
","""event"",""trial"",""time""
""fullscreenenter"",""1"",""15490""
","
","","","-1","","","14","1330","189","l","elianto","#f73b6a7A"," ","-1","0","-10","[]","0","3","","","1330","154","1","3","lose","go","0","0"
"pit-trial","227","1423497","0.0-160.0","battery-v0.2","","""event"",""trial"",""time""
""fullscreenenter"",""1"",""15490""
","
","
","""event"",""trial"",""time""
""fullscreenenter"",""1"",""15490""
","
","","","1065.6000000089407","","","14","1330","189","u","elianto","#3366ff99","-1"," ","0","+10","[1916.9000000059605]","1","3","","","1330","155","0","2","win","no-go","1","0"
"pit-trial","228","1426932","0.0-161.0","battery-v0.2","","""event"",""trial"",""time""
""fullscreenenter"",""1"",""15490""
","
","
","""event"",""trial"",""time""
""fullscreenenter"",""1"",""15490""
","
","","","581.7999999970198","","","14","1330","189","g","elianto","#3366ff99"," "," ","1","+10","[1432.5999999940395]","1","3","","","1330","156","3","1","win","go","0","0"
"pit-trial","229","1430332","0.0-162.0","battery-v0.2","","""event"",""trial"",""time""
""fullscreenenter"",""1"",""15490""
","
","
","""event"",""trial"",""time""
""fullscreenenter"",""1"",""15490""
","
","","","546.2999999970198","","","14","1330","189","g","elianto","#3366ff99"," "," ","1","+10","[1396.5]","1","3","","","1330","157","3","1","win","go","0","0"
"pit-trial","230","1435185","0.0-163.0","battery-v0.2","","""event"",""trial"",""time""
""fullscreenenter"",""1"",""15490""
","
","
","""event"",""trial"",""time""
""fullscreenenter"",""1"",""15490""
","
","","","-1","","","14","1330","189","l","elianto","#f73b6a7A"," ","-1","0","-10","[]","0","3","","","1330","158","1","3","lose","go","0","0"
"pit-trial","231","1438718","0.0-164.0","battery-v0.2","","""event"",""trial"",""time""
""fullscreenenter"",""1"",""15490""
","
","
","""event"",""trial"",""time""
""fullscreenenter"",""1"",""15490""
","
","","","679.1000000089407","","","14","1330","189","a","elianto","#f73b6a7A","-1"," ","0","-10","[1530.5]","1","3","","","1330","159","2","4","lose","no-go","0","0"
"pit-trial","232","1442566","0.0-165.0","battery-v0.2","","""event"",""trial"",""time""
""fullscreenenter"",""1"",""15490""
","
","
","""event"",""trial"",""time""
""fullscreenenter"",""1"",""15490""
","
","","","993.9000000059605","","","14","1330","189","u","elianto","#3366ff99","-1"," ","0","+10","[1845.2000000029802]","1","3","","","1330","160","0","2","win","no-go","1","0"
"pit-trial","233","1446035","0.0-166.0","battery-v0.2","","""event"",""trial"",""time""
""fullscreenenter"",""1"",""15490""
","
","
","""event"",""trial"",""time""
""fullscreenenter"",""1"",""15490""
","
","","","614.5","","","14","1330","189","u","elianto","#3366ff99","-1"," ","0","0","[1466.2999999970198]","1","3","","","1330","161","0","2","win","no-go","0","0"
"pit-trial","234","1449468","0.0-167.0","battery-v0.2","","""event"",""trial"",""time""
""fullscreenenter"",""1"",""15490""
","
","
","""event"",""trial"",""time""
""fullscreenenter"",""1"",""15490""
","
","","","580.5999999940395","","","14","1330","189","g","elianto","#3366ff99"," "," ","1","0","[1431]","1","3","","","1330","162","3","1","win","go","1","0"
"pit-trial","235","1454321","0.0-168.0","battery-v0.2","","""event"",""trial"",""time""
""fullscreenenter"",""1"",""15490""
","
","
","""event"",""trial"",""time""
""fullscreenenter"",""1"",""15490""
","
","","","-1","","","14","1330","189","l","elianto","#f73b6a7A"," ","-1","0","-10","[]","0","3","","","1330","163","1","3","lose","go","0","0"
"pit-trial","236","1459173","0.0-169.0","battery-v0.2","","""event"",""trial"",""time""
""fullscreenenter"",""1"",""15490""
","
","
","""event"",""trial"",""time""
""fullscreenenter"",""1"",""15490""
","
","","","-1","","","14","1330","189","a","elianto","#f73b6a7A","-1","-1","1","0","[]","0","3","","","1330","164","2","4","lose","no-go","0","0"
"pit-trial","237","1462728","0.0-170.0","battery-v0.2","","""event"",""trial"",""time""
""fullscreenenter"",""1"",""15490""
","
","
","""event"",""trial"",""time""
""fullscreenenter"",""1"",""15490""
","
","","","702","","","14","1330","189","g","elianto","#3366ff99"," "," ","1","+10","[1552.8999999910593]","1","3","","","1330","165","3","1","win","go","0","0"
"pit-trial","238","1467582","0.0-171.0","battery-v0.2","","""event"",""trial"",""time""
""fullscreenenter"",""1"",""15490""
","
","
","""event"",""trial"",""time""
""fullscreenenter"",""1"",""15490""
","
","","","-1","","","14","1330","189","l","elianto","#f73b6a7A"," ","-1","0","-10","[]","0","3","","","1330","166","1","3","lose","go","0","0"
"pit-trial","239","1471882","0.0-172.0","battery-v0.2","","""event"",""trial"",""time""
""fullscreenenter"",""1"",""15490""
","
","
","""event"",""trial"",""time""
""fullscreenenter"",""1"",""15490""
","
","","","1446.7999999970198","","","14","1330","189","u","elianto","#3366ff99","-1"," ","0","0","[2298]","1","3","","","1330","167","0","2","win","no-go","0","0"
"pit-trial","240","1476734","0.0-173.0","battery-v0.2","","""event"",""trial"",""time""
""fullscreenenter"",""1"",""15490""
","
","
","""event"",""trial"",""time""
""fullscreenenter"",""1"",""15490""
","
","","","-1","","","14","1330","189","a","elianto","#f73b6a7A","-1","-1","1","0","[]","0","3","","","1330","168","2","4","lose","no-go","0","0"
"pit-trial","241","1480125","0.0-174.0","battery-v0.2","","""event"",""trial"",""time""
""fullscreenenter"",""1"",""15490""
","
","
","""event"",""trial"",""time""
""fullscreenenter"",""1"",""15490""
","
","","","537.7000000029802","","","14","1330","189","g","elianto","#3366ff99"," "," ","1","+10","[1388.300000011921]","1","3","","","1330","169","3","1","win","go","0","0"
"pit-trial","242","1484978","0.0-175.0","battery-v0.2","","""event"",""trial"",""time""
""fullscreenenter"",""1"",""15490""
","
","
","""event"",""trial"",""time""
""fullscreenenter"",""1"",""15490""
","
","","","-1","","","14","1330","189","a","elianto","#f73b6a7A","-1","-1","1","0","[]","0","3","","","1330","170","2","4","lose","no-go","0","0"
"pit-trial","243","1489832","0.0-176.0","battery-v0.2","","""event"",""trial"",""time""
""fullscreenenter"",""1"",""15490""
","
","
","""event"",""trial"",""time""
""fullscreenenter"",""1"",""15490""
","
","","","-1","","","14","1330","189","l","elianto","#f73b6a7A"," ","-1","0","-10","[]","0","3","","","1330","171","1","3","lose","go","0","0"
"pit-trial","244","1493429","0.0-177.0","battery-v0.2","","""event"",""trial"",""time""
""fullscreenenter"",""1"",""15490""
","
","
","""event"",""trial"",""time""
""fullscreenenter"",""1"",""15490""
","
","","","742.9000000059605","","","14","1330","189","u","elianto","#3366ff99","-1"," ","0","0","[1594.4000000059605]","1","3","","","1330","172","0","2","win","no-go","0","0"
"pit-trial","245","1498282","0.0-178.0","battery-v0.2","","""event"",""trial"",""time""
""fullscreenenter"",""1"",""15490""
","
","
","""event"",""trial"",""time""
""fullscreenenter"",""1"",""15490""
","
","","","-1","","","14","1330","189","s","elianto","#f73b6a7A","-1","-1","1","0","[]","0","3","","","1330","173","5","4","lose","no-go","0","0"
"pit-trial","246","1503135","0.0-179.0","battery-v0.2","","""event"",""trial"",""time""
""fullscreenenter"",""1"",""15490""
","
","
","""event"",""trial"",""time""
""fullscreenenter"",""1"",""15490""
","
","","","-1","","","14","1330","189","l","elianto","#f73b6a7A"," ","-1","0","-10","[]","0","3","","","1330","174","1","3","lose","go","0","0"
"pit-trial","247","1507988","0.0-180.0","battery-v0.2","","""event"",""trial"",""time""
""fullscreenenter"",""1"",""15490""
","
","
","""event"",""trial"",""time""
""fullscreenenter"",""1"",""15490""
","
","","","-1","","","14","1330","189","a","elianto","#f73b6a7A","-1","-1","1","0","[]","0","3","","","1330","175","2","4","lose","no-go","0","0"
"pit-trial","248","1511648","0.0-181.0","battery-v0.2","","""event"",""trial"",""time""
""fullscreenenter"",""1"",""15490""
","
","
","""event"",""trial"",""time""
""fullscreenenter"",""1"",""15490""
","
","","","806","","","14","1330","189","p","elianto","#f73b6a7A"," "," ","1","0","[1656.9000000059605,2616.7999999970198]","2","3","","","1330","176","4","3","lose","go","0","0"
"pit-trial","249","1515193","0.0-182.0","battery-v0.2","","""event"",""trial"",""time""
""fullscreenenter"",""1"",""15490""
","
","
","""event"",""trial"",""time""
""fullscreenenter"",""1"",""15490""
","
","","","690.5","","","14","1330","189","p","elianto","#f73b6a7A"," "," ","1","0","[1542]","1","3","","","1330","177","4","3","lose","go","0","0"
"pit-trial","250","1518942","0.0-183.0","battery-v0.2","","""event"",""trial"",""time""
""fullscreenenter"",""1"",""15490""
","
","
","""event"",""trial"",""time""
""fullscreenenter"",""1"",""15490""
","
","","","893.2999999970198","","","14","1330","189","s","elianto","#f73b6a7A","-1"," ","0","0","[1745.5]","1","3","","","1330","178","5","4","lose","no-go","1","0"
"pit-trial","251","1523795","0.0-184.0","battery-v0.2","","""event"",""trial"",""time""
""fullscreenenter"",""1"",""15490""
","
","
","""event"",""trial"",""time""
""fullscreenenter"",""1"",""15490""
","
","","","-1","","","14","1330","189","l","elianto","#f73b6a7A"," ","-1","0","0","[]","0","3","","","1330","179","1","3","lose","go","1","0"
"pit-trial","252","1528648","0.0-185.0","battery-v0.2","","""event"",""trial"",""time""
""fullscreenenter"",""1"",""15490""
","
","
","""event"",""trial"",""time""
""fullscreenenter"",""1"",""15490""
","
","","","-1","","","14","1330","189","a","elianto","#f73b6a7A","-1","-1","1","0","[]","0","3","","","1330","180","2","4","lose","no-go","0","0"
"pit-trial","253","1533501","0.0-186.0","battery-v0.2","","""event"",""trial"",""time""
""fullscreenenter"",""1"",""15490""
","
","
","""event"",""trial"",""time""
""fullscreenenter"",""1"",""15490""
","
","","","-1","","","14","1330","189","a","elianto","#f73b6a7A","-1","-1","1","0","[]","0","3","","","1330","181","2","4","lose","no-go","0","0"
"pit-trial","254","1536933","0.0-187.0","battery-v0.2","","""event"",""trial"",""time""
""fullscreenenter"",""1"",""15490""
","
","
","""event"",""trial"",""time""
""fullscreenenter"",""1"",""15490""
","
","","","576.8999999910593","","","14","1330","189","p","elianto","#f73b6a7A"," "," ","1","0","[1427.7999999970198]","1","3","","","1330","182","4","3","lose","go","0","0"
"pit-trial","255","1540527","0.0-188.0","battery-v0.2","","""event"",""trial"",""time""
""fullscreenenter"",""1"",""15490""
","
","
","""event"",""trial"",""time""
""fullscreenenter"",""1"",""15490""
","
","","","740.3999999910593","","","14","1330","189","s","elianto","#f73b6a7A","-1"," ","0","-10","[1591.199999988079]","1","3","","","1330","183","5","4","lose","no-go","0","0"
"pit-trial","256","1544117","0.0-189.0","battery-v0.2","","""event"",""trial"",""time""
""fullscreenenter"",""1"",""15490""
","
","
","""event"",""trial"",""time""
""fullscreenenter"",""1"",""15490""
","
","","","736.3999999910593","","","14","1330","189","w","elianto","#3366ff99","-1"," ","0","+10","[1587.3999999910593]","1","3","","","1330","184","6","2","win","no-go","1","0"
"pit-trial","257","1548971","0.0-190.0","battery-v0.2","","""event"",""trial"",""time""
""fullscreenenter"",""1"",""15490""
","
","
","""event"",""trial"",""time""
""fullscreenenter"",""1"",""15490""
","
","","","-1","","","14","1330","189","a","elianto","#f73b6a7A","-1","-1","1","-10","[]","0","3","","","1330","185","2","4","lose","no-go","1","0"
"pit-trial","258","1552512","0.0-191.0","battery-v0.2","","""event"",""trial"",""time""
""fullscreenenter"",""1"",""15490""
","
","
","""event"",""trial"",""time""
""fullscreenenter"",""1"",""15490""
","
","","","686","","","14","1330","189","s","elianto","#f73b6a7A","-1"," ","0","-10","[1537.3999999910593]","1","3","","","1330","186","5","4","lose","no-go","0","0"
"pit-trial","259","1555963","0.0-192.0","battery-v0.2","","""event"",""trial"",""time""
""fullscreenenter"",""1"",""15490""
","
","
","""event"",""trial"",""time""
""fullscreenenter"",""1"",""15490""
","
","","","598.2999999970198","","","14","1330","189","p","elianto","#f73b6a7A"," "," ","1","0","[1449]","1","3","","","1330","187","4","3","lose","go","0","0"
"pit-trial","260","1559528","0.0-193.0","battery-v0.2","","""event"",""trial"",""time""
""fullscreenenter"",""1"",""15490""
","
","
","""event"",""trial"",""time""
""fullscreenenter"",""1"",""15490""
","
","","","711","","","14","1330","189","w","elianto","#3366ff99","-1"," ","0","0","[1563.4000000059605]","1","3","","","1330","188","6","2","win","no-go","0","0"
"pit-trial","261","1562983","0.0-194.0","battery-v0.2","","""event"",""trial"",""time""
""fullscreenenter"",""1"",""15490""
","
","
","""event"",""trial"",""time""
""fullscreenenter"",""1"",""15490""
","
","","","600.9000000059605","","","14","1330","189","w","elianto","#3366ff99","-1"," ","0","0","[1451.5]","1","3","","","1330","189","6","2","win","no-go","0","0"
"pit-trial","262","1566920","0.0-195.0","battery-v0.2","","""event"",""trial"",""time""
""fullscreenenter"",""1"",""15490""
","
","
","""event"",""trial"",""time""
""fullscreenenter"",""1"",""15490""
","
","","","1083.4000000059605","","","14","1330","189","e","elianto","#3366ff99"," "," ","1","+10","[1934.7000000029802]","1","3","","","1330","190","7","1","win","go","0","0"
