"trial_type","trial_index","time_elapsed","internal_node_id","task_version","success","view_history","rt","responses","num_errors","age","subject","participantId","rune","rune_set","hex","correct","choice","accuracy","outcome","keys","total_keys","block","practice","value","sub","trial","stimulus","robot","valence","action","sham","browser_interactions"
"pavlovia","0","32","0.0-0.0","battery-v0.2","","","","","","","","","","","","","","","","","","","","","","","","","","","",""
"fullscreen","1","3169","0.0-1.0","battery-v0.2","true","","","","","","","","","","","","","","","","","","","","","","","","","","",""
"pit-instructions","2","9166","0.0-2.0-0.0","battery-v0.2","","[{""page_index"":0,""viewing_time"":5989.699999999255}]","5991","","","","","","","","","","","","","","","","","","","","","","","","",""
"pit-comprehension","3","15427","0.0-2.0-1.0-0.0","battery-v0.2","","","6252.699999999255","[""shark""]","0","13","1010","887","","","","","","","","","","","","","","","","","","","",""
"pit-instructions","4","19268","0.0-2.0-1.0-1.0","battery-v0.2","","[{""page_index"":0,""viewing_time"":3815.5}]","3816.099999997765","","","","","","","","","","","","","","","","","","","","","","","","",""
"pit-comprehension","5","22514","0.0-2.0-2.0-0.0","battery-v0.2","","","3239.900000002235","[""tiger""]","0","13","1010","887","","","","","","","","","","","","","","","","","","","",""
"pit-instructions","6","23815","0.0-2.0-2.0-1.0","battery-v0.2","","[{""page_index"":0,""viewing_time"":1295}]","1295.6000000014901","","","","","","","","","","","","","","","","","","","","","","","","",""
"pit-instructions","7","122880","0.0-2.0-3.0","battery-v0.2","","[{""page_index"":0,""viewing_time"":9037.099999997765},{""page_index"":1,""viewing_time"":7452.300000000745},{""page_index"":2,""viewing_time"":6638.400000002235},{""page_index"":3,""viewing_time"":5288.199999999255},{""page_index"":4,""viewing_time"":5338.199999999255},{""page_index"":5,""viewing_time"":5180.300000000745},{""page_index"":6,""viewing_time"":6771},{""page_index"":7,""viewing_time"":6830},{""page_index"":8,""viewing_time"":7643.599999997765},{""page_index"":9,""viewing_time"":11045},{""page_index"":10,""viewing_time"":7625.800000000745},{""page_index"":11,""viewing_time"":8845.5},{""page_index"":12,""viewing_time"":6115.400000002235},{""page_index"":13,""viewing_time"":5248.099999997765}]","99059.5","","","","","","","","","","","","","","","","","","","","","","","","",""
"pit-trial","8","125764","0.0-2.0-4.0-0.0","battery-v0.2","","","28","","","13","1010","887","&#9784;","elianto","#FFFFF080"," "," ","1","&#10004","[878.3000000007451]","1","0","0","","","","","","","","",""
"pit-trial","9","129243","0.0-2.0-4.1-0.1","battery-v0.2","","","624.3999999985099","","","13","1010","887","&#9784;","elianto","#FFFFF080"," "," ","1","&#10004","[1474.4000000022352]","1","0","0","","","","","","","","",""
"pit-trial","10","132643","0.0-2.0-4.2-0.2","battery-v0.2","","","544.1999999992549","","","13","1010","887","&#9784;","elianto","#FFFFF080"," "," ","1","&#10004","[1396]","1","0","0","","","","","","","","",""
"pit-trial","11","136155","0.0-2.0-4.3-0.3","battery-v0.2","","","654.3000000007451","","","13","1010","887","&#9784;","elianto","#FFFFF080"," "," ","1","&#10004","[1506.6000000014901]","1","0","0","","","","","","","","",""
"pit-trial","12","139682","0.0-2.0-4.4-0.4","battery-v0.2","","","672.8999999985099","","","13","1010","887","&#9784;","elianto","#FFFFF080"," "," ","1","&#10004","[1523.1000000014901]","1","0","0","","","","","","","","",""
"pit-instructions","13","161100","0.0-2.0-5.0","battery-v0.2","","[{""page_index"":0,""viewing_time"":4957.29999999702},{""page_index"":1,""viewing_time"":5566.300000000745},{""page_index"":2,""viewing_time"":5239.400000002235},{""page_index"":3,""viewing_time"":5649.199999999255}]","21413","","","","","","","","","","","","","","","","","","","","","","","","",""
"pit-trial","14","165954","0.0-2.0-6.0-0.0","battery-v0.2","","","-1","","","13","1010","887","&#9854;","elianto","#FFFFF080","-1","-1","1","&#10004","[]","0","0","1","","","","","","","","",""
"pit-trial","15","170810","0.0-2.0-6.1-0.1","battery-v0.2","","","-1","","","13","1010","887","&#9854;","elianto","#FFFFF080","-1","-1","1","&#10004","[]","0","0","1","","","","","","","","",""
"pit-trial","16","175665","0.0-2.0-6.2-0.2","battery-v0.2","","","-1","","","13","1010","887","&#9854;","elianto","#FFFFF080","-1","-1","1","&#10004","[]","0","0","1","","","","","","","","",""
"pit-trial","17","180519","0.0-2.0-6.3-0.3","battery-v0.2","","","-1","","","13","1010","887","&#9854;","elianto","#FFFFF080","-1","-1","1","&#10004","[]","0","0","1","","","","","","","","",""
"pit-trial","18","185374","0.0-2.0-6.4-0.4","battery-v0.2","","","-1","","","13","1010","887","&#9854;","elianto","#FFFFF080","-1","-1","1","&#10004","[]","0","0","1","","","","","","","","",""
"pit-instructions","19","317234","0.0-2.0-7.0","battery-v0.2","","[{""page_index"":0,""viewing_time"":5688.10000000149},{""page_index"":1,""viewing_time"":8583.5},{""page_index"":2,""viewing_time"":6282.099999997765},{""page_index"":3,""viewing_time"":8935.5},{""page_index"":4,""viewing_time"":7953.20000000298},{""page_index"":5,""viewing_time"":5501},{""page_index"":6,""viewing_time"":6532},{""page_index"":7,""viewing_time"":11023.099999997765},{""page_index"":8,""viewing_time"":8144.699999999255},{""page_index"":9,""viewing_time"":6604.10000000149},{""page_index"":10,""viewing_time"":6692},{""page_index"":11,""viewing_time"":4007.39999999851},{""page_index"":12,""viewing_time"":8416.5},{""page_index"":13,""viewing_time"":6392.400000002235},{""page_index"":14,""viewing_time"":8316},{""page_index"":15,""viewing_time"":7423.199999999255},{""page_index"":16,""viewing_time"":6652.300000000745},{""page_index"":17,""viewing_time"":8708.099999997765}]","131855.69999999925","","","","","","","","","","","","","","","","","","","","","","","","",""
"pit-trial","20","320645","0.0-2.0-8.0-0.0","battery-v0.2","","","557","","","13","1010","887","&#9776;","elianto","#3366ff99"," "," ","1","+10","[1407.1000000014901]","1","0","1","","","","","","","","",""
"pit-trial","21","324010","0.0-2.0-8.0-1.0","battery-v0.2","","","511.69999999925494","","","13","1010","887","&#9776;","elianto","#3366ff99"," "," ","1","+10","[1361.8999999985099]","1","0","1","","","","","","","","",""
"pit-trial","22","327515","0.0-2.0-8.0-2.0","battery-v0.2","","","651","","","13","1010","887","&#9776;","elianto","#3366ff99"," "," ","1","+10","[1501.4000000022352]","1","0","1","","","","","","","","",""
"pit-trial","23","331018","0.0-2.0-8.0-3.0","battery-v0.2","","","649.2999999970198","","","13","1010","887","&#9776;","elianto","#3366ff99"," "," ","1","0","[1499.5]","1","0","1","","","","","","","","",""
"pit-trial","24","334435","0.0-2.0-8.0-4.0","battery-v0.2","","","564.2999999970198","","","13","1010","887","&#9776;","elianto","#3366ff99"," "," ","1","+10","[1414.5999999977648]","1","0","1","","","","","","","","",""
"call-function","25","334438","0.0-2.0-9.0","battery-v0.2","","","","","","","","","","","","","","","","","","","","","","","","","","","",""
"pit-instructions","26","384956","0.0-2.0-10.0","battery-v0.2","","[{""page_index"":0,""viewing_time"":10138},{""page_index"":1,""viewing_time"":8677.699999999255},{""page_index"":2,""viewing_time"":9288.400000002235},{""page_index"":3,""viewing_time"":11050.5},{""page_index"":4,""viewing_time"":11362.5}]","50517.60000000149","","","","","","","","","","","","","","","","","","","","","","","","",""
"pit-trial","27","388481","0.0-2.0-11.0-0.0","battery-v0.2","","","671.5","","","13","1010","887","&#9761;","elianto","#3366ff99","-1"," ","0","0","[1521.800000000745]","1","0","2","","","","","","","","",""
"pit-trial","28","393334","0.0-2.0-11.0-1.0","battery-v0.2","","","-1","","","13","1010","887","&#9761;","elianto","#3366ff99","-1","-1","1","+10","[]","0","0","2","","","","","","","","",""
"pit-trial","29","398188","0.0-2.0-11.0-2.0","battery-v0.2","","","-1","","","13","1010","887","&#9761;","elianto","#3366ff99","-1","-1","1","+10","[]","0","0","2","","","","","","","","",""
"pit-trial","30","403041","0.0-2.0-11.0-3.0","battery-v0.2","","","-1","","","13","1010","887","&#9761;","elianto","#3366ff99","-1","-1","1","0","[]","0","0","2","","","","","","","","",""
"pit-trial","31","407895","0.0-2.0-11.0-4.0","battery-v0.2","","","-1","","","13","1010","887","&#9761;","elianto","#3366ff99","-1","-1","1","+10","[]","0","0","2","","","","","","","","",""
"call-function","32","407897","0.0-2.0-12.0","battery-v0.2","","","","","","","","","","","","","","","","","","","","","","","","","","","",""
"pit-instructions","33","442468","0.0-2.0-13.0","battery-v0.2","","[{""page_index"":0,""viewing_time"":7210},{""page_index"":1,""viewing_time"":7294.800000000745},{""page_index"":2,""viewing_time"":3778.5},{""page_index"":3,""viewing_time"":10432.300000000745},{""page_index"":4,""viewing_time"":5854.199999999255}]","34570.199999999255","","","","","","","","","","","","","","","","","","","","","","","","",""
"pit-trial","34","447322","0.0-2.0-14.0-0.0","battery-v0.2","","","-1","","","13","1010","887","&#9826;","elianto","#f73b6a7A","-1","-1","1","0","[]","0","0","3","","","","","","","","",""
"pit-trial","35","452175","0.0-2.0-14.0-1.0","battery-v0.2","","","-1","","","13","1010","887","&#9826;","elianto","#f73b6a7A","-1","-1","1","0","[]","0","0","3","","","","","","","","",""
"pit-trial","36","457029","0.0-2.0-14.0-2.0","battery-v0.2","","","-1","","","13","1010","887","&#9826;","elianto","#f73b6a7A","-1","-1","1","0","[]","0","0","3","","","","","","","","",""
"pit-trial","37","461883","0.0-2.0-14.0-3.0","battery-v0.2","","","-1","","","13","1010","887","&#9826;","elianto","#f73b6a7A","-1","-1","1","-10","[]","0","0","3","","","","","","","","",""
"pit-trial","38","466737","0.0-2.0-14.0-4.0","battery-v0.2","","","-1","","","13","1010","887","&#9826;","elianto","#f73b6a7A","-1","-1","1","0","[]","0","0","3","","","","","","","","",""
"call-function","39","466739","0.0-2.0-15.0","battery-v0.2","","","","","","","","","","","","","","","","","","","","","","","","","","","",""
"pit-instructions","40","491950","0.0-2.0-16.0","battery-v0.2","","[{""page_index"":0,""viewing_time"":6978.199999999255},{""page_index"":1,""viewing_time"":8298.60000000149},{""page_index"":2,""viewing_time"":5713.199999999255},{""page_index"":3,""viewing_time"":4219.5}]","25209.900000002235","","","","","","","","","","","","","","","","","","","","","","","","",""
"pit-trial","41","495265","0.0-2.0-17.0-0.0","battery-v0.2","","","461.80000000074506","","","13","1010","887","&#9789;","elianto","#f73b6a7A"," "," ","1","0","[1312.300000000745]","1","0","4","","","","","","","","",""
"pit-trial","42","498628","0.0-2.0-17.0-1.0","battery-v0.2","","","508.9000000022352","","","13","1010","887","&#9789;","elianto","#f73b6a7A"," "," ","1","0","[1359.5]","1","0","4","","","","","","","","",""
"pit-trial","43","501846","0.0-2.0-17.0-2.0","battery-v0.2","","","364.6000000014901","","","13","1010","887","&#9789;","elianto","#f73b6a7A"," "," ","1","0","[1214.5999999977648]","1","0","4","","","","","","","","",""
"pit-trial","44","505274","0.0-2.0-17.0-3.0","battery-v0.2","","","574.6000000014901","","","13","1010","887","&#9789;","elianto","#f73b6a7A"," "," ","1","-10","[1424.800000000745]","1","0","4","","","","","","","","",""
"pit-trial","45","508408","0.0-2.0-17.0-4.0","battery-v0.2","","","280.8999999985099","","","13","1010","887","&#9789;","elianto","#f73b6a7A"," "," ","1","0","[1131]","1","0","4","","","","","","","","",""
"call-function","46","508410","0.0-2.0-18.0","battery-v0.2","","","","","","","","","","","","","","","","","","","","","","","","","","","",""
"pit-instructions","47","584377","0.0-2.0-19.0","battery-v0.2","","[{""page_index"":0,""viewing_time"":6469.89999999851},{""page_index"":1,""viewing_time"":6013.699999999255},{""page_index"":2,""viewing_time"":15016.60000000149},{""page_index"":3,""viewing_time"":9003.300000000745},{""page_index"":4,""viewing_time"":8009},{""page_index"":5,""viewing_time"":8131.699999999255},{""page_index"":6,""viewing_time"":9375.5},{""page_index"":7,""viewing_time"":7368.60000000149},{""page_index"":8,""viewing_time"":6577.099999997765}]","75966.30000000075","","","","","","","","","","","","","","","","","","","","","","","","",""
"pit-comprehension","48","592638","0.0-2.0-20.0-0.0","battery-v0.2","","","8251.39999999851","[""SPACE""]","0","13","1010","887","","","","","","","","","","","","","","","","","","","",""
"pit-instructions","49","598764","0.0-2.0-20.0-1.0","battery-v0.2","","[{""page_index"":0,""viewing_time"":6110.39999999851}]","6111.10000000149","","","","","","","","","","","","","","","","","","","","","","","","",""
"pit-comprehension","50","605954","0.0-2.0-21.0-0.0","battery-v0.2","","","7184.699999999255","[""10""]","0","13","1010","887","","","","","","","","","","","","","","","","","","","",""
"pit-instructions","51","607497","0.0-2.0-21.0-1.0","battery-v0.2","","[{""page_index"":0,""viewing_time"":1525.9000000022352}]","1526.800000000745","","","","","","","","","","","","","","","","","","","","","","","","",""
"pit-comprehension","52","614746","0.0-2.0-22.0-0.0","battery-v0.2","","","7240.300000000745","[""0""]","0","13","1010","887","","","","","","","","","","","","","","","","","","","",""
"pit-instructions","53","616019","0.0-2.0-22.0-1.0","battery-v0.2","","[{""page_index"":0,""viewing_time"":1254.9000000022352}]","1255.6000000014901","","","","","","","","","","","","","","","","","","","","","","","","",""
"pit-comprehension","54","627109","0.0-2.0-23.0-0.0","battery-v0.2","","","11080.699999999255","[""True""]","0","13","1010","887","","","","","","","","","","","","","","","","","","","",""
"pit-instructions","55","628490","0.0-2.0-23.0-1.0","battery-v0.2","","[{""page_index"":0,""viewing_time"":1363}]","1363.5","","","","","","","","","","","","","","","","","","","","","","","","",""
"pit-comprehension","56","636543","0.0-2.0-24.0-0.0","battery-v0.2","","","8047.300000000745","[""True""]","0","13","1010","887","","","","","","","","","","","","","","","","","","","",""
"pit-instructions","57","637784","0.0-2.0-24.0-1.0","battery-v0.2","","[{""page_index"":0,""viewing_time"":1222.699999999255}]","1223.199999999255","","","","","","","","","","","","","","","","","","","","","","","","",""
"pit-comprehension","58","644433","0.0-2.0-25.0-0.0","battery-v0.2","","","6642.29999999702","[""True""]","0","13","1010","887","","","","","","","","","","","","","","","","","","","",""
"pit-instructions","59","645595","0.0-2.0-25.0-1.0","battery-v0.2","","[{""page_index"":0,""viewing_time"":1145}]","1145.6000000014901","","","","","","","","","","","","","","","","","","","","","","","","",""
"pit-comprehension","60","651350","0.0-2.0-26.0-0.0","battery-v0.2","","","5744.300000000745","[""False""]","0","13","1010","887","","","","","","","","","","","","","","","","","","","",""
"pit-instructions","61","652724","0.0-2.0-26.0-1.0","battery-v0.2","","[{""page_index"":0,""viewing_time"":1355.300000000745}]","1356","","","","","","","","","","","","","","","","","","","","","","","","",""
"pit-instructions","62","669607","0.0-3.0","battery-v0.2","","[{""page_index"":0,""viewing_time"":4907.89999999851},{""page_index"":1,""viewing_time"":5753.900000002235},{""page_index"":2,""viewing_time"":6216.5}]","16878.89999999851","","","","","","","","","","","","","","","","","","","","","","","","",""
"pit-trial","63","673205","0.0-4.0","battery-v0.2","","","740","","","13","1010","887","&#9728;","elianto","#f73b6a7A","-1"," ","0","-10","[1590]","1","1","","","1010","1","0","4","lose","no-go","0","[]"
"pit-trial","64","677092","0.0-5.0","battery-v0.2","","","1028.199999999255","","","13","1010","887","&#9752;","elianto","#f73b6a7A"," "," ","1","0","[1878.300000000745]","1","1","","","1010","2","3","3","lose","go","0","0"
"pit-trial","65","680755","0.0-6.0","battery-v0.2","","","808.3999999985099","","","13","1010","887","&#9730;","elianto","#3366ff99"," "," ","1","+10","[1658.5]","1","1","","","1010","3","1","1","win","go","0","0"
"pit-trial","66","685609","0.0-7.0","battery-v0.2","","","-1","","","13","1010","887","&#9733;","elianto","#3366ff99","-1","-1","1","+10","[]","0","1","","","1010","4","2","2","win","no-go","0","0"
"pit-trial","67","689579","0.0-8.0","battery-v0.2","","","1115.699999999255","","","13","1010","887","&#9752;","elianto","#f73b6a7A"," "," ","1","0","[1965.9000000022352]","1","1","","","1010","5","3","3","lose","go","0","0"
"pit-trial","68","693512","0.0-9.0","battery-v0.2","","","1077.800000000745","","","13","1010","887","&#9728;","elianto","#f73b6a7A","-1"," ","0","-10","[1928]","1","1","","","1010","6","0","4","lose","no-go","0","0"
"pit-trial","69","697608","0.0-10.0","battery-v0.2","","","1242.5999999977648","","","13","1010","887","&#9733;","elianto","#3366ff99","-1"," ","0","+10","[2092.699999999255]","1","1","","","1010","7","2","2","win","no-go","1","0"
"pit-trial","70","702462","0.0-11.0","battery-v0.2","","","-1","","","13","1010","887","&#9730;","elianto","#3366ff99"," ","-1","0","0","[]","0","1","","","1010","8","1","1","win","go","0","0"
"pit-trial","71","707105","0.0-12.0","battery-v0.2","","","1789.3999999985099","","","13","1010","887","&#9733;","elianto","#3366ff99","-1"," ","0","0","[2639.599999997765]","1","1","","","1010","9","2","2","win","no-go","0","0"
"pit-trial","72","711458","0.0-13.0","battery-v0.2","","","1497.2000000029802","","","13","1010","887","&#9730;","elianto","#3366ff99"," "," ","1","+10","[2349.800000000745]","1","1","","","1010","10","1","1","win","go","0","0"
"pit-trial","73","715407","0.0-14.0","battery-v0.2","","","1095.0999999977648","","","13","1010","887","&#9752;","elianto","#f73b6a7A"," "," ","1","0","[1945.199999999255]","1","1","","","1010","11","3","3","lose","go","0","0"
"pit-trial","74","720260","0.0-15.0","battery-v0.2","","","-1","","","13","1010","887","&#9728;","elianto","#f73b6a7A","-1","-1","1","0","[]","0","1","","","1010","12","0","4","lose","no-go","0","0"
"pit-trial","75","725114","0.0-16.0","battery-v0.2","","","-1","","","13","1010","887","&#9728;","elianto","#f73b6a7A","-1","-1","1","0","[]","0","1","","","1010","13","0","4","lose","no-go","0","0"
"pit-trial","76","728957","0.0-17.0","battery-v0.2","","","989","","","13","1010","887","&#9752;","elianto","#f73b6a7A"," "," ","1","-10","[1839.199999999255]","1","1","","","1010","14","3","3","lose","go","1","0"
"pit-trial","77","733693","0.0-18.0","battery-v0.2","","","1878.7000000029802","","","13","1010","887","&#9733;","elianto","#3366ff99","-1"," ","0","+10","[2731.300000000745]","1","1","","","1010","15","2","2","win","no-go","1","0"
"pit-trial","78","738546","0.0-19.0","battery-v0.2","","","-1","","","13","1010","887","&#9730;","elianto","#3366ff99"," ","-1","0","0","[]","0","1","","","1010","16","1","1","win","go","0","0"
"pit-trial","79","742031","0.0-20.0","battery-v0.2","","","631","","","13","1010","887","&#9733;","elianto","#3366ff99","-1"," ","0","0","[1481.1000000014901]","1","1","","","1010","17","2","2","win","no-go","0","0"
"pit-trial","80","746099","0.0-21.0","battery-v0.2","","","1214.699999999255","","","13","1010","887","&#9730;","elianto","#3366ff99"," "," ","1","+10","[2064.800000000745]","1","1","","","1010","18","1","1","win","go","0","0"
"pit-trial","81","750905","0.0-22.0","battery-v0.2","","","1951.699999999255","","","13","1010","887","&#9728;","elianto","#f73b6a7A","-1"," ","0","-10","[2801.199999999255]","1","1","","","1010","19","0","4","lose","no-go","0","0"
"pit-trial","82","754700","0.0-23.0","battery-v0.2","","","941.3999999985099","","","13","1010","887","&#9752;","elianto","#f73b6a7A"," "," ","1","-10","[1791.6000000014901]","1","1","","","1010","20","3","3","lose","go","1","0"
"pit-instructions","83","768790","0.0-24.0","battery-v0.2","","[{""page_index"":0,""viewing_time"":6819.5},{""page_index"":1,""viewing_time"":7267.300000000745}]","14087.70000000298","","","","","","","","","","","","","","","","","","","","","","","","",""
"pit-trial","84","772432","0.0-25.0","battery-v0.2","","","784.5999999977648","","","13","1010","887","m","elianto","#3366ff99","-1"," ","0","0","[1635]","1","2","","","1010","21","0","2","win","no-go","0","0"
"pit-trial","85","777286","0.0-26.0","battery-v0.2","","","-1","","","13","1010","887","h","elianto","#f73b6a7A"," ","-1","0","-10","[]","0","2","","","1010","22","3","3","lose","go","0","0"
"pit-trial","86","781557","0.0-27.0","battery-v0.2","","","1417.3999999985099","","","13","1010","887","y","elianto","#3366ff99"," "," ","1","+10","[2267.599999997765]","1","2","","","1010","23","2","1","win","go","0","0"
"pit-trial","87","786038","0.0-28.0","battery-v0.2","","","1627.3999999985099","","","13","1010","887","r","elianto","#3366ff99","-1"," ","0","+10","[2477.599999997765]","1","2","","","1010","24","1","2","win","no-go","1","0"
"pit-trial","88","790892","0.0-29.0","battery-v0.2","","","-1","","","13","1010","887","m","elianto","#3366ff99","-1","-1","1","+10","[]","0","2","","","1010","25","0","2","win","no-go","0","0"
"pit-trial","89","795386","0.0-30.0","battery-v0.2","","","1639","","","13","1010","887","h","elianto","#f73b6a7A"," "," ","1","0","[2489]","1","2","","","1010","26","3","3","lose","go","0","0"
"pit-trial","90","799216","0.0-31.0","battery-v0.2","","","975.0999999977648","","","13","1010","887","r","elianto","#3366ff99","-1"," ","0","+10","[1826.6000000014901]","1","2","","","1010","27","1","2","win","no-go","1","0"
"pit-trial","91","802971","0.0-32.0","battery-v0.2","","","899.8999999985099","","","13","1010","887","y","elianto","#3366ff99"," "," ","1","+10","[1749.9000000022352]","1","2","","","1010","28","2","1","win","go","0","0"
"pit-trial","92","807779","0.0-33.0","battery-v0.2","","","1950.5","","","13","1010","887","h","elianto","#f73b6a7A"," "," ","1","-10","[2804.699999999255]","1","2","","","1010","29","3","3","lose","go","1","0"
"pit-trial","93","812064","0.0-34.0","battery-v0.2","","","1430","","","13","1010","887","y","elianto","#3366ff99"," "," ","1","0","[2280.199999999255]","1","2","","","1010","30","2","1","win","go","1","0"
"pit-trial","94","816918","0.0-35.0","battery-v0.2","","","-1","","","13","1010","887","m","elianto","#3366ff99","-1","-1","1","+10","[]","0","2","","","1010","31","0","2","win","no-go","0","0"
"pit-trial","95","821490","0.0-36.0","battery-v0.2","","","1717.6000000014901","","","13","1010","887","r","elianto","#3366ff99","-1"," ","0","+10","[2567.699999999255]","1","2","","","1010","32","1","2","win","no-go","1","0"
"pit-trial","96","826060","0.0-37.0","battery-v0.2","","","1716.1000000014901","","","13","1010","887","h","elianto","#f73b6a7A"," "," ","1","0","[2566.099999997765]","1","2","","","1010","33","3","3","lose","go","0","0"
"pit-trial","97","830913","0.0-38.0","battery-v0.2","","","-1","","","13","1010","887","r","elianto","#3366ff99","-1","-1","1","+10","[]","0","2","","","1010","34","1","2","win","no-go","0","0"
"pit-trial","98","835767","0.0-39.0","battery-v0.2","","","-1","","","13","1010","887","y","elianto","#3366ff99"," ","-1","0","0","[2915]","1","2","","","1010","35","2","1","win","go","0","0"
"pit-trial","99","840621","0.0-40.0","battery-v0.2","","","-1","","","13","1010","887","m","elianto","#3366ff99","-1","-1","1","+10","[]","0","2","","","1010","36","0","2","win","no-go","0","0"
"pit-trial","100","844442","0.0-41.0","battery-v0.2","","","966.3000000007451","","","13","1010","887","h","elianto","#f73b6a7A"," "," ","1","0","[1816.5999999977648]","1","2","","","1010","37","3","3","lose","go","0","0"
"pit-trial","101","849296","0.0-42.0","battery-v0.2","","","-1","","","13","1010","887","y","elianto","#3366ff99"," ","-1","0","0","[]","0","2","","","1010","38","2","1","win","go","0","0"
"pit-trial","102","853878","0.0-43.0","battery-v0.2","","","1728.6000000014901","","","13","1010","887","m","elianto","#3366ff99","-1"," ","0","0","[2578.699999999255]","1","2","","","1010","39","0","2","win","no-go","0","0"
"pit-trial","103","858732","0.0-44.0","battery-v0.2","","","-1","","","13","1010","887","r","elianto","#3366ff99","-1","-1","1","+10","[]","0","2","","","1010","40","1","2","win","no-go","0","0"
"pit-trial","104","862860","0.0-45.0","battery-v0.2","","","1275.199999999255","","","13","1010","887","y","elianto","#3366ff99"," "," ","1","+10","[2125.199999999255]","1","2","","","1010","41","2","1","win","go","0","0"
"pit-trial","105","867715","0.0-46.0","battery-v0.2","","","-1","","","13","1010","887","m","elianto","#3366ff99","-1","-1","1","+10","[]","0","2","","","1010","42","0","2","win","no-go","0","0"
"pit-trial","106","872569","0.0-47.0","battery-v0.2","","","-1","","","13","1010","887","r","elianto","#3366ff99","-1","-1","1","+10","[]","0","2","","","1010","43","1","2","win","no-go","0","0"
"pit-trial","107","876876","0.0-48.0","battery-v0.2","","","1454","","","13","1010","887","h","elianto","#f73b6a7A"," "," ","1","-10","[2304.10000000149]","1","2","","","1010","44","3","3","lose","go","1","0"
"pit-trial","108","881730","0.0-49.0","battery-v0.2","","","-1","","","13","1010","887","r","elianto","#3366ff99","-1","-1","1","+10","[]","0","2","","","1010","45","1","2","win","no-go","0","0"
"pit-trial","109","886583","0.0-50.0","battery-v0.2","","","-1","","","13","1010","887","m","elianto","#3366ff99","-1","-1","1","+10","[]","0","2","","","1010","46","0","2","win","no-go","0","0"
"pit-trial","110","890850","0.0-51.0","battery-v0.2","","","1411.300000000745","","","13","1010","887","h","elianto","#f73b6a7A"," "," ","1","0","[2262.699999999255]","1","2","","","1010","47","3","3","lose","go","0","0"
"pit-trial","111","895283","0.0-52.0","battery-v0.2","","","1574.6000000014901","","","13","1010","887","y","elianto","#3366ff99"," "," ","1","+10","[2429.199999999255]","1","2","","","1010","48","2","1","win","go","0","0"
"pit-trial","112","900137","0.0-53.0","battery-v0.2","","","-1","","","13","1010","887","r","elianto","#3366ff99","-1","-1","1","+10","[]","0","2","","","1010","49","1","2","win","no-go","0","0"
"pit-trial","113","904602","0.0-54.0","battery-v0.2","","","1609.3999999985099","","","13","1010","887","h","elianto","#f73b6a7A"," "," ","1","0","[2460.5]","1","2","","","1010","50","3","3","lose","go","0","0"
"pit-trial","114","909208","0.0-55.0","battery-v0.2","","","1752.3999999985099","","","13","1010","887","y","elianto","#3366ff99"," "," ","1","+10","[2602.7999999970198]","1","2","","","1010","51","2","1","win","go","0","0"
"pit-trial","115","914062","0.0-56.0","battery-v0.2","","","-1","","","13","1010","887","m","elianto","#3366ff99","-1","-1","1","+10","[]","0","2","","","1010","52","0","2","win","no-go","0","0"
"pit-trial","116","918878","0.0-57.0","battery-v0.2","","","1961.4000000022352","","","13","1010","887","z","elianto","#f73b6a7A","-1"," ","0","0","[2811.5]","1","2","","","1010","53","4","4","lose","no-go","1","0"
"pit-trial","117","923732","0.0-58.0","battery-v0.2","","","-1","","","13","1010","887","c","elianto","#f73b6a7A"," ","-1","0","-10","[]","0","2","","","1010","54","5","3","lose","go","0","0"
"pit-trial","118","928586","0.0-59.0","battery-v0.2","","","-1","","","13","1010","887","y","elianto","#3366ff99"," ","-1","0","0","[4846.699999999255]","1","2","","","1010","55","2","1","win","go","0","0"
"pit-trial","119","933440","0.0-60.0","battery-v0.2","","","-1","","","13","1010","887","m","elianto","#3366ff99","-1","-1","1","0","[]","0","2","","","1010","56","0","2","win","no-go","1","0"
"pit-trial","120","937726","0.0-61.0","battery-v0.2","","","1428.699999999255","","","13","1010","887","c","elianto","#f73b6a7A"," "," ","1","0","[2281.2999999970198]","1","2","","","1010","57","5","3","lose","go","0","0"
"pit-trial","121","942581","0.0-62.0","battery-v0.2","","","-1","","","13","1010","887","m","elianto","#3366ff99","-1","-1","1","+10","[]","0","2","","","1010","58","0","2","win","no-go","0","0"
"pit-trial","122","947348","0.0-63.0","battery-v0.2","","","1912.6000000014901","","","13","1010","887","y","elianto","#3366ff99"," "," ","1","+10","[2762.900000002235]","1","2","","","1010","59","2","1","win","go","0","0"
"pit-trial","123","952202","0.0-64.0","battery-v0.2","","","-1","","","13","1010","887","z","elianto","#f73b6a7A","-1","-1","1","0","[]","0","2","","","1010","60","4","4","lose","no-go","0","0"
"pit-trial","124","957057","0.0-65.0","battery-v0.2","","","-1","","","13","1010","887","b","elianto","#3366ff99","-1","-1","1","+10","[2874.099999997765]","1","2","","","1010","61","6","2","win","no-go","0","0"
"pit-trial","125","961911","0.0-66.0","battery-v0.2","","","-1","","","13","1010","887","z","elianto","#f73b6a7A","-1","-1","1","0","[]","0","2","","","1010","62","4","4","lose","no-go","0","0"
"pit-trial","126","966764","0.0-67.0","battery-v0.2","","","-1","","","13","1010","887","y","elianto","#3366ff99"," ","-1","0","+10","[]","0","2","","","1010","63","2","1","win","go","1","0"
"pit-trial","127","971617","0.0-68.0","battery-v0.2","","","-1","","","13","1010","887","c","elianto","#f73b6a7A"," ","-1","0","-10","[]","0","2","","","1010","64","5","3","lose","go","0","0"
"pit-trial","128","976471","0.0-69.0","battery-v0.2","","","-1","","","13","1010","887","z","elianto","#f73b6a7A","-1","-1","1","0","[]","0","2","","","1010","65","4","4","lose","no-go","0","0"
"pit-trial","129","980426","0.0-70.0","battery-v0.2","","","1101.8999999985099","","","13","1010","887","b","elianto","#3366ff99","-1"," ","0","0","[1952]","1","2","","","1010","66","6","2","win","no-go","0","0"
"pit-trial","130","985279","0.0-71.0","battery-v0.2","","","-1","","","13","1010","887","c","elianto","#f73b6a7A"," ","-1","0","-10","[]","0","2","","","1010","67","5","3","lose","go","0","0"
"pit-trial","131","990133","0.0-72.0","battery-v0.2","","","-1","","","13","1010","887","y","elianto","#3366ff99"," ","-1","0","0","[2911.7000000029802]","1","2","","","1010","68","2","1","win","go","0","0"
"pit-trial","132","994968","0.0-73.0","battery-v0.2","","","1979.199999999255","","","13","1010","887","t","elianto","#f73b6a7A","-1"," ","0","-10","[2831.400000002235]","1","2","","","1010","69","7","4","lose","no-go","0","0"
"pit-trial","133","999821","0.0-74.0","battery-v0.2","","","-1","","","13","1010","887","z","elianto","#f73b6a7A","-1","-1","1","0","[]","0","2","","","1010","70","4","4","lose","no-go","0","0"
"pit-trial","134","1004675","0.0-75.0","battery-v0.2","","","-1","","","13","1010","887","b","elianto","#3366ff99","-1","-1","1","+10","[]","0","2","","","1010","71","6","2","win","no-go","0","0"
"pit-trial","135","1009529","0.0-76.0","battery-v0.2","","","-1","","","13","1010","887","c","elianto","#f73b6a7A"," ","-1","0","0","[]","0","2","","","1010","72","5","3","lose","go","1","0"
"pit-trial","136","1013202","0.0-77.0","battery-v0.2","","","818.6000000014901","","","13","1010","887","t","elianto","#f73b6a7A","-1"," ","0","-10","[1668.800000000745]","1","2","","","1010","73","7","4","lose","no-go","0","0"
"pit-trial","137","1018084","0.0-78.0","battery-v0.2","","","-1","","","13","1010","887","z","elianto","#f73b6a7A","-1","-1","1","0","[]","0","2","","","1010","74","4","4","lose","no-go","0","0"
"pit-trial","138","1022938","0.0-79.0","battery-v0.2","","","-1","","","13","1010","887","c","elianto","#f73b6a7A"," ","-1","0","0","[2990.60000000149]","1","2","","","1010","75","5","3","lose","go","1","0"
"pit-trial","139","1027791","0.0-80.0","battery-v0.2","","","-1","","","13","1010","887","b","elianto","#3366ff99","-1","-1","1","0","[]","0","2","","","1010","76","6","2","win","no-go","1","0"
"pit-trial","140","1031594","0.0-81.0","battery-v0.2","","","947.0999999977648","","","13","1010","887","b","elianto","#3366ff99","-1"," ","0","+10","[1798.5999999977648]","1","2","","","1010","77","6","2","win","no-go","1","0"
"pit-trial","141","1036101","0.0-82.0","battery-v0.2","","","1653.5","","","13","1010","887","t","elianto","#f73b6a7A","-1"," ","0","-10","[2503.39999999851]","1","2","","","1010","78","7","4","lose","no-go","0","0"
"pit-trial","142","1040027","0.0-83.0","battery-v0.2","","","1071.699999999255","","","13","1010","887","z","elianto","#f73b6a7A","-1"," ","0","-10","[1921.800000000745]","1","2","","","1010","79","4","4","lose","no-go","0","0"
"pit-trial","143","1044881","0.0-84.0","battery-v0.2","","","-1","","","13","1010","887","c","elianto","#f73b6a7A"," ","-1","0","-10","[]","0","2","","","1010","80","5","3","lose","go","0","0"
"pit-trial","144","1049736","0.0-85.0","battery-v0.2","","","-1","","","13","1010","887","c","elianto","#f73b6a7A"," ","-1","0","-10","[]","0","2","","","1010","81","5","3","lose","go","0","0"
"pit-trial","145","1053603","0.0-86.0","battery-v0.2","","","1013.3000000007451","","","13","1010","887","b","elianto","#3366ff99","-1"," ","0","0","[1863.3999999985099]","1","2","","","1010","82","6","2","win","no-go","0","0"
"pit-trial","146","1057843","0.0-87.0","battery-v0.2","","","1386","","","13","1010","887","z","elianto","#f73b6a7A","-1"," ","0","-10","[2236.199999999255]","1","2","","","1010","83","4","4","lose","no-go","0","0"
"pit-trial","147","1061467","0.0-88.0","battery-v0.2","","","769","","","13","1010","887","t","elianto","#f73b6a7A","-1"," ","0","0","[1619.5]","1","2","","","1010","84","7","4","lose","no-go","1","0"
"pit-trial","148","1065300","0.0-89.0","battery-v0.2","","","979","","","13","1010","887","t","elianto","#f73b6a7A","-1"," ","0","-10","[1829.1000000014901]","1","2","","","1010","85","7","4","lose","no-go","0","0"
"pit-trial","149","1070154","0.0-90.0","battery-v0.2","","","-1","","","13","1010","887","c","elianto","#f73b6a7A"," ","-1","0","-10","[]","0","2","","","1010","86","5","3","lose","go","0","0"
"pit-trial","150","1074019","0.0-91.0","battery-v0.2","","","1011.3000000007451","","","13","1010","887","b","elianto","#3366ff99","-1"," ","0","+10","[1861.6000000014901]","1","2","","","1010","87","6","2","win","no-go","1","0"
"pit-trial","151","1078874","0.0-92.0","battery-v0.2","","","-1","","","13","1010","887","z","elianto","#f73b6a7A","-1","-1","1","-10","[]","0","2","","","1010","88","4","4","lose","no-go","1","0"
"pit-trial","152","1082685","0.0-93.0","battery-v0.2","","","957","","","13","1010","887","t","elianto","#f73b6a7A","-1"," ","0","-10","[1807.0999999977648]","1","2","","","1010","89","7","4","lose","no-go","0","0"
"pit-trial","153","1087539","0.0-94.0","battery-v0.2","","","-1","","","13","1010","887","c","elianto","#f73b6a7A"," ","-1","0","-10","[]","0","2","","","1010","90","5","3","lose","go","0","0"
"pit-trial","154","1091465","0.0-95.0","battery-v0.2","","","1073","","","13","1010","887","z","elianto","#f73b6a7A","-1"," ","0","-10","[1923.0999999977648]","1","2","","","1010","91","4","4","lose","no-go","0","0"
"pit-trial","155","1095200","0.0-96.0","battery-v0.2","","","878.3000000007451","","","13","1010","887","b","elianto","#3366ff99","-1"," ","0","0","[1731.800000000745]","1","2","","","1010","92","6","2","win","no-go","0","0"
"pit-trial","156","1099246","0.0-97.0","battery-v0.2","","","1188.6000000014901","","","13","1010","887","c","elianto","#f73b6a7A"," "," ","1","0","[2042.300000000745]","1","2","","","1010","93","5","3","lose","go","0","0"
"pit-trial","157","1104099","0.0-98.0","battery-v0.2","","","-1","","","13","1010","887","t","elianto","#f73b6a7A","-1","-1","1","-10","[]","0","2","","","1010","94","7","4","lose","no-go","1","0"
"pit-trial","158","1107361","0.0-99.0","battery-v0.2","","","409.30000000074506","","","13","1010","887","b","elianto","#3366ff99","-1"," ","0","0","[1259.5999999977648]","1","2","","","1010","95","6","2","win","no-go","0","0"
"pit-trial","159","1110531","0.0-100.0","battery-v0.2","","","315.19999999925494","","","13","1010","887","x","elianto","#f73b6a7A","-1"," ","0","0","[1165.5]","1","2","","","1010","96","8","4","lose","no-go","1","0"
"pit-trial","160","1114475","0.0-101.0","battery-v0.2","","","1091.1000000014901","","","13","1010","887","x","elianto","#f73b6a7A","-1"," ","0","-10","[1941.199999999255]","1","2","","","1010","97","8","4","lose","no-go","0","0"
"pit-trial","161","1118693","0.0-102.0","battery-v0.2","","","1364.699999999255","","","13","1010","887","t","elianto","#f73b6a7A","-1"," ","0","-10","[2214.7999999970198]","1","2","","","1010","98","7","4","lose","no-go","0","0"
"pit-trial","162","1123548","0.0-103.0","battery-v0.2","","","-1","","","13","1010","887","c","elianto","#f73b6a7A"," ","-1","0","-10","[]","0","2","","","1010","99","5","3","lose","go","0","0"
"pit-trial","163","1127923","0.0-104.0","battery-v0.2","","","1521.9000000022352","","","13","1010","887","b","elianto","#3366ff99","-1"," ","0","+10","[2372]","1","2","","","1010","100","6","2","win","no-go","1","0"
"pit-trial","164","1132306","0.0-105.0","battery-v0.2","","","1527.5","","","13","1010","887","f","elianto","#3366ff99"," "," ","1","+10","[2379.300000000745]","1","2","","","1010","101","9","1","win","go","0","0"
"pit-trial","165","1137160","0.0-106.0","battery-v0.2","","","-1","","","13","1010","887","n","elianto","#f73b6a7A"," ","-1","0","-10","[]","0","2","","","1010","102","10","3","lose","go","0","0"
"pit-trial","166","1140970","0.0-107.0","battery-v0.2","","","956.5999999977648","","","13","1010","887","x","elianto","#f73b6a7A","-1"," ","0","-10","[1806.7000000029802]","1","2","","","1010","103","8","4","lose","no-go","0","0"
"pit-trial","167","1144553","0.0-108.0","battery-v0.2","","","728.5","","","13","1010","887","b","elianto","#3366ff99","-1"," ","0","+10","[1578.800000000745]","1","2","","","1010","104","6","2","win","no-go","1","0"
"pit-trial","168","1149407","0.0-109.0","battery-v0.2","","","-1","","","13","1010","887","n","elianto","#f73b6a7A"," ","-1","0","-10","[]","0","2","","","1010","105","10","3","lose","go","0","0"
"pit-trial","169","1153082","0.0-110.0","battery-v0.2","","","821.1999999992549","","","13","1010","887","f","elianto","#3366ff99"," "," ","1","+10","[1671.2999999970198]","1","2","","","1010","106","9","1","win","go","0","0"
"pit-trial","170","1157936","0.0-111.0","battery-v0.2","","","-1","","","13","1010","887","x","elianto","#f73b6a7A","-1","-1","1","-10","[]","0","2","","","1010","107","8","4","lose","no-go","1","0"
"pit-trial","171","1161482","0.0-112.0","battery-v0.2","","","692.2000000029802","","","13","1010","887","b","elianto","#3366ff99","-1"," ","0","0","[1542.300000000745]","1","2","","","1010","108","6","2","win","no-go","0","0"
"pit-trial","172","1166336","0.0-113.0","battery-v0.2","","","-1","","","13","1010","887","x","elianto","#f73b6a7A","-1","-1","1","0","[]","0","2","","","1010","109","8","4","lose","no-go","0","0"
"pit-trial","173","1170178","0.0-114.0","battery-v0.2","","","988.4000000022352","","","13","1010","887","q","elianto","#3366ff99"," "," ","1","0","[1838.6000000014901]","1","2","","","1010","110","11","1","win","go","1","0"
"pit-trial","174","1175032","0.0-115.0","battery-v0.2","","","-1","","","13","1010","887","n","elianto","#f73b6a7A"," ","-1","0","-10","[]","0","2","","","1010","111","10","3","lose","go","0","0"
"pit-trial","175","1179063","0.0-116.0","battery-v0.2","","","1175.699999999255","","","13","1010","887","f","elianto","#3366ff99"," "," ","1","0","[2027]","1","2","","","1010","112","9","1","win","go","1","0"
"pit-trial","176","1183917","0.0-117.0","battery-v0.2","","","-1","","","13","1010","887","n","elianto","#f73b6a7A"," ","-1","0","-10","[4403.39999999851]","1","2","","","1010","113","10","3","lose","go","0","0"
"pit-trial","177","1187917","0.0-118.0","battery-v0.2","","","1144.800000000745","","","13","1010","887","q","elianto","#3366ff99"," "," ","1","+10","[1995.1000000014901]","1","2","","","1010","114","11","1","win","go","0","0"
"pit-trial","178","1192013","0.0-119.0","battery-v0.2","","","1240.2000000029802","","","13","1010","887","x","elianto","#f73b6a7A","-1"," ","0","-10","[2092.5]","1","2","","","1010","115","8","4","lose","no-go","0","0"
"pit-trial","179","1196197","0.0-120.0","battery-v0.2","","","1327.4000000022352","","","13","1010","887","f","elianto","#3366ff99"," "," ","1","+10","[2177.800000000745]","1","2","","","1010","116","9","1","win","go","0","0"
"pit-trial","180","1201055","0.0-121.0","battery-v0.2","","","-1","","","13","1010","887","n","elianto","#f73b6a7A"," ","-1","0","-10","[4814.599999997765]","1","2","","","1010","117","10","3","lose","go","0","0"
"pit-trial","181","1205044","0.0-122.0","battery-v0.2","","","1133.300000000745","","","13","1010","887","q","elianto","#3366ff99"," "," ","1","+10","[138.69999999925494,1983.4000000022352]","2","2","","","1010","118","11","1","win","go","0","0"
"pit-trial","182","1209898","0.0-123.0","battery-v0.2","","","-1","","","13","1010","887","f","elianto","#3366ff99"," ","-1","0","+10","[]","0","2","","","1010","119","9","1","win","go","1","0"
"pit-trial","183","1213957","0.0-124.0","battery-v0.2","","","1205.2999999970198","","","13","1010","887","x","elianto","#f73b6a7A","-1"," ","0","-10","[2055.39999999851]","1","2","","","1010","120","8","4","lose","no-go","0","0"
"pit-trial","184","1218810","0.0-125.0","battery-v0.2","","","-1","","","13","1010","887","n","elianto","#f73b6a7A"," ","-1","0","-10","[4689.199999999255]","1","2","","","1010","121","10","3","lose","go","0","0"
"pit-trial","185","1223664","0.0-126.0","battery-v0.2","","","-1","","","13","1010","887","q","elianto","#3366ff99"," ","-1","0","+10","[3037.900000002235]","1","2","","","1010","122","11","1","win","go","1","0"
"pit-trial","186","1228518","0.0-127.0","battery-v0.2","","","-1","","","13","1010","887","x","elianto","#f73b6a7A","-1","-1","1","0","[]","0","2","","","1010","123","8","4","lose","no-go","0","0"
"pit-trial","187","1232885","0.0-128.0","battery-v0.2","","","1513","","","13","1010","887","f","elianto","#3366ff99"," "," ","1","+10","[2363.2999999970198]","1","2","","","1010","124","9","1","win","go","0","0"
"pit-trial","188","1236731","0.0-129.0","battery-v0.2","","","988.1999999992549","","","13","1010","887","f","elianto","#3366ff99"," "," ","1","+10","[1842.199999999255]","1","2","","","1010","125","9","1","win","go","0","0"
"pit-trial","189","1240744","0.0-130.0","battery-v0.2","","","1160","","","13","1010","887","q","elianto","#3366ff99"," "," ","1","0","[2010.2999999970198]","1","2","","","1010","126","11","1","win","go","1","0"
"pit-trial","190","1245598","0.0-131.0","battery-v0.2","","","-1","","","13","1010","887","n","elianto","#f73b6a7A"," ","-1","0","-10","[2877.10000000149]","1","2","","","1010","127","10","3","lose","go","0","0"
"pit-trial","191","1250451","0.0-132.0","battery-v0.2","","","-1","","","13","1010","887","x","elianto","#f73b6a7A","-1","-1","1","0","[]","0","2","","","1010","128","8","4","lose","no-go","0","0"
"pit-trial","192","1255305","0.0-133.0","battery-v0.2","","","-1","","","13","1010","887","x","elianto","#f73b6a7A","-1","-1","1","0","[]","0","2","","","1010","129","8","4","lose","no-go","0","0"
"pit-trial","193","1259333","0.0-134.0","battery-v0.2","","","1156.7999999970198","","","13","1010","887","n","elianto","#f73b6a7A"," "," ","1","0","[2025.0999999977648]","1","2","","","1010","130","10","3","lose","go","0","0"
"pit-trial","194","1263718","0.0-135.0","battery-v0.2","","","1531.2000000029802","","","13","1010","887","f","elianto","#3366ff99"," "," ","1","+10","[2381]","1","2","","","1010","131","9","1","win","go","0","0"
"pit-trial","195","1267298","0.0-136.0","battery-v0.2","","","725.8999999985099","","","13","1010","887","q","elianto","#3366ff99"," "," ","1","0","[1576]","1","2","","","1010","132","11","1","win","go","1","0"
"pit-trial","196","1272153","0.0-137.0","battery-v0.2","","","-1","","","13","1010","887","n","elianto","#f73b6a7A"," ","-1","0","-10","[]","0","2","","","1010","133","10","3","lose","go","0","0"
"pit-trial","197","1277007","0.0-138.0","battery-v0.2","","","-1","","","13","1010","887","f","elianto","#3366ff99"," ","-1","0","0","[]","0","2","","","1010","134","9","1","win","go","0","0"
"pit-trial","198","1281862","0.0-139.0","battery-v0.2","","","-1","","","13","1010","887","x","elianto","#f73b6a7A","-1","-1","1","-10","[]","0","2","","","1010","135","8","4","lose","no-go","1","0"
"pit-trial","199","1285727","0.0-140.0","battery-v0.2","","","1011.3000000007451","","","13","1010","887","q","elianto","#3366ff99"," "," ","1","+10","[1861.5]","1","2","","","1010","136","11","1","win","go","0","0"
"pit-trial","200","1290581","0.0-141.0","battery-v0.2","","","-1","","","13","1010","887","n","elianto","#f73b6a7A"," ","-1","0","-10","[4418]","1","2","","","1010","137","10","3","lose","go","0","0"
"pit-trial","201","1294548","0.0-142.0","battery-v0.2","","","1112.7000000029802","","","13","1010","887","q","elianto","#3366ff99"," "," ","1","+10","[1962.8999999985099]","1","2","","","1010","138","11","1","win","go","0","0"
"pit-trial","202","1299402","0.0-143.0","battery-v0.2","","","-1","","","13","1010","887","x","elianto","#f73b6a7A","-1","-1","1","0","[]","0","2","","","1010","139","8","4","lose","no-go","0","0"
"pit-trial","203","1304014","0.0-144.0","battery-v0.2","","","1757.300000000745","","","13","1010","887","f","elianto","#3366ff99"," "," ","1","+10","[2607.5]","1","2","","","1010","140","9","1","win","go","0","0"
"pit-instructions","204","1318815","0.0-145.0","battery-v0.2","","[{""page_index"":0,""viewing_time"":5135.10000000149},{""page_index"":1,""viewing_time"":9661.800000000745}]","14797.800000000745","","","","","","","","","","","","","","","","","","","","","","","","",""
"pit-trial","205","1322790","0.0-146.0","battery-v0.2","","","1116.6000000014901","","","13","1010","887","l","elianto","#f73b6a7A"," "," ","1","0","[1966.7999999970198]","1","3","","","1010","141","1","3","lose","go","0","0"
"pit-trial","206","1326471","0.0-147.0","battery-v0.2","","","821.5999999977648","","","13","1010","887","g","elianto","#3366ff99"," "," ","1","+10","[1676.9000000022352]","1","3","","","1010","142","3","1","win","go","0","0"
"pit-trial","207","1329943","0.0-148.0","battery-v0.2","","","613.3000000007451","","","13","1010","887","u","elianto","#3366ff99","-1"," ","0","0","[1468.199999999255]","1","3","","","1010","143","0","2","win","no-go","0","0"
"pit-trial","208","1334798","0.0-149.0","battery-v0.2","","","-1","","","13","1010","887","a","elianto","#f73b6a7A","-1","-1","1","0","[]","0","3","","","1010","144","2","4","lose","no-go","0","0"
"pit-trial","209","1338692","0.0-150.0","battery-v0.2","","","1040.199999999255","","","13","1010","887","u","elianto","#3366ff99","-1"," ","0","0","[1890.4000000022352]","1","3","","","1010","145","0","2","win","no-go","0","0"
"pit-trial","210","1343547","0.0-151.0","battery-v0.2","","","-1","","","13","1010","887","a","elianto","#f73b6a7A","-1","-1","1","0","[]","0","3","","","1010","146","2","4","lose","no-go","0","0"
"pit-trial","211","1348400","0.0-152.0","battery-v0.2","","","-1","","","13","1010","887","l","elianto","#f73b6a7A"," ","-1","0","0","[]","0","3","","","1010","147","1","3","lose","go","1","0"
"pit-trial","212","1352054","0.0-153.0","battery-v0.2","","","800.1999999992549","","","13","1010","887","g","elianto","#3366ff99"," "," ","1","+10","[1651.1000000014901]","1","3","","","1010","148","3","1","win","go","0","0"
"pit-trial","213","1355930","0.0-154.0","battery-v0.2","","","1022.6000000014901","","","13","1010","887","g","elianto","#3366ff99"," "," ","1","+10","[1872.800000000745]","1","3","","","1010","149","3","1","win","go","0","0"
"pit-trial","214","1360784","0.0-155.0","battery-v0.2","","","-1","","","13","1010","887","a","elianto","#f73b6a7A","-1","-1","1","0","[]","0","3","","","1010","150","2","4","lose","no-go","0","0"
"pit-trial","215","1365637","0.0-156.0","battery-v0.2","","","-1","","","13","1010","887","l","elianto","#f73b6a7A"," ","-1","0","-10","[3543.199999999255]","1","3","","","1010","151","1","3","lose","go","0","0"
"pit-trial","216","1370469","0.0-157.0","battery-v0.2","","","1978.1000000014901","","","13","1010","887","u","elianto","#3366ff99","-1"," ","0","0","[2828.39999999851]","1","3","","","1010","152","0","2","win","no-go","0","0"
"pit-trial","217","1375089","0.0-158.0","battery-v0.2","","","1767.1000000014901","","","13","1010","887","l","elianto","#f73b6a7A"," "," ","1","-10","[2617.300000000745]","1","3","","","1010","153","1","3","lose","go","1","0"
"pit-trial","218","1379558","0.0-159.0","battery-v0.2","","","1557.2000000029802","","","13","1010","887","g","elianto","#3366ff99"," "," ","1","+10","[2465.699999999255]","1","3","","","1010","154","3","1","win","go","0","0"
"pit-trial","219","1383698","0.0-160.0","battery-v0.2","","","1284.4000000022352","","","13","1010","887","u","elianto","#3366ff99","-1"," ","0","0","[2135.10000000149]","1","3","","","1010","155","0","2","win","no-go","0","0"
"pit-trial","220","1388551","0.0-161.0","battery-v0.2","","","-1","","","13","1010","887","a","elianto","#f73b6a7A","-1","-1","1","0","[]","0","3","","","1010","156","2","4","lose","no-go","0","0"
"pit-trial","221","1393053","0.0-162.0","battery-v0.2","","","1646","","","13","1010","887","g","elianto","#3366ff99"," "," ","1","0","[2498.39999999851]","1","3","","","1010","157","3","1","win","go","1","0"
"pit-trial","222","1397908","0.0-163.0","battery-v0.2","","","-1","","","13","1010","887","l","elianto","#f73b6a7A"," ","-1","0","0","[]","0","3","","","1010","158","1","3","lose","go","1","0"
"pit-trial","223","1402762","0.0-164.0","battery-v0.2","","","-1","","","13","1010","887","a","elianto","#f73b6a7A","-1","-1","1","0","[]","0","3","","","1010","159","2","4","lose","no-go","0","0"
"pit-trial","224","1406746","0.0-165.0","battery-v0.2","","","1128","","","13","1010","887","u","elianto","#3366ff99","-1"," ","0","0","[1981.1000000014901]","1","3","","","1010","160","0","2","win","no-go","0","0"
"pit-trial","225","1411600","0.0-166.0","battery-v0.2","","","-1","","","13","1010","887","u","elianto","#3366ff99","-1","-1","1","+10","[]","0","3","","","1010","161","0","2","win","no-go","0","0"
"pit-trial","226","1416281","0.0-167.0","battery-v0.2","","","1827","","","13","1010","887","g","elianto","#3366ff99"," "," ","1","0","[2677.300000000745]","1","3","","","1010","162","3","1","win","go","1","0"
"pit-trial","227","1421136","0.0-168.0","battery-v0.2","","","-1","","","13","1010","887","l","elianto","#f73b6a7A"," ","-1","0","-10","[]","0","3","","","1010","163","1","3","lose","go","0","0"
"pit-trial","228","1425990","0.0-169.0","battery-v0.2","","","-1","","","13","1010","887","a","elianto","#f73b6a7A","-1","-1","1","0","[]","0","3","","","1010","164","2","4","lose","no-go","0","0"
"pit-trial","229","1430844","0.0-170.0","battery-v0.2","","","-1","","","13","1010","887","u","elianto","#3366ff99","-1","-1","1","+10","[]","0","3","","","1010","165","0","2","win","no-go","0","0"
"pit-trial","230","1435698","0.0-171.0","battery-v0.2","","","-1","","","13","1010","887","a","elianto","#f73b6a7A","-1","-1","1","0","[]","0","3","","","1010","166","2","4","lose","no-go","0","0"
"pit-trial","231","1440552","0.0-172.0","battery-v0.2","","","-1","","","13","1010","887","l","elianto","#f73b6a7A"," ","-1","0","-10","[]","0","3","","","1010","167","1","3","lose","go","0","0"
"pit-trial","232","1445406","0.0-173.0","battery-v0.2","","","-1","","","13","1010","887","g","elianto","#3366ff99"," ","-1","0","0","[3548.300000000745]","1","3","","","1010","168","3","1","win","go","0","0"
"pit-trial","233","1449145","0.0-174.0","battery-v0.2","","","883.8999999985099","","","13","1010","887","l","elianto","#f73b6a7A"," "," ","1","0","[1734]","1","3","","","1010","169","1","3","lose","go","0","0"
"pit-trial","234","1453999","0.0-175.0","battery-v0.2","","","-1","","","13","1010","887","g","elianto","#3366ff99"," ","-1","0","+10","[]","0","3","","","1010","170","3","1","win","go","1","0"
"pit-trial","235","1458854","0.0-176.0","battery-v0.2","","","-1","","","13","1010","887","u","elianto","#3366ff99","-1","-1","1","+10","[]","0","3","","","1010","171","0","2","win","no-go","0","0"
"pit-trial","236","1463709","0.0-177.0","battery-v0.2","","","-1","","","13","1010","887","a","elianto","#f73b6a7A","-1","-1","1","-10","[]","0","3","","","1010","172","2","4","lose","no-go","1","0"
"pit-trial","237","1468320","0.0-178.0","battery-v0.2","","","1754.5999999977648","","","13","1010","887","s","elianto","#f73b6a7A","-1"," ","0","-10","[2606.39999999851]","1","3","","","1010","173","5","4","lose","no-go","0","0"
"pit-trial","238","1473175","0.0-179.0","battery-v0.2","","","-1","","","13","1010","887","a","elianto","#f73b6a7A","-1","-1","1","-10","[]","0","3","","","1010","174","2","4","lose","no-go","1","0"
"pit-trial","239","1478030","0.0-180.0","battery-v0.2","","","-1","","","13","1010","887","p","elianto","#f73b6a7A"," ","-1","0","-10","[]","0","3","","","1010","175","4","3","lose","go","0","0"
"pit-trial","240","1482885","0.0-181.0","battery-v0.2","","","-1","","","13","1010","887","l","elianto","#f73b6a7A"," ","-1","0","0","[]","0","3","","","1010","176","1","3","lose","go","1","0"
"pit-trial","241","1487739","0.0-182.0","battery-v0.2","","","-1","","","13","1010","887","l","elianto","#f73b6a7A"," ","-1","0","-10","[]","0","3","","","1010","177","1","3","lose","go","0","0"
"pit-trial","242","1492593","0.0-183.0","battery-v0.2","","","-1","","","13","1010","887","s","elianto","#f73b6a7A","-1","-1","1","0","[]","0","3","","","1010","178","5","4","lose","no-go","0","0"
"pit-trial","243","1497447","0.0-184.0","battery-v0.2","","","-1","","","13","1010","887","a","elianto","#f73b6a7A","-1","-1","1","0","[]","0","3","","","1010","179","2","4","lose","no-go","0","0"
"pit-trial","244","1501058","0.0-185.0","battery-v0.2","","","755.5999999977648","","","13","1010","887","p","elianto","#f73b6a7A"," "," ","1","0","[1607.5999999977648]","1","3","","","1010","180","4","3","lose","go","0","0"
"pit-trial","245","1505912","0.0-186.0","battery-v0.2","","","-1","","","13","1010","887","a","elianto","#f73b6a7A","-1","-1","1","0","[]","0","3","","","1010","181","2","4","lose","no-go","0","0"
"pit-trial","246","1510766","0.0-187.0","battery-v0.2","","","-1","","","13","1010","887","w","elianto","#3366ff99","-1","-1","1","+10","[]","0","3","","","1010","182","6","2","win","no-go","0","0"
"pit-trial","247","1515061","0.0-188.0","battery-v0.2","","","1441.300000000745","","","13","1010","887","p","elianto","#f73b6a7A"," "," ","1","0","[2291.60000000149]","1","3","","","1010","183","4","3","lose","go","0","0"
"pit-trial","248","1519915","0.0-189.0","battery-v0.2","","","-1","","","13","1010","887","s","elianto","#f73b6a7A","-1","-1","1","0","[]","0","3","","","1010","184","5","4","lose","no-go","0","0"
"pit-trial","249","1524769","0.0-190.0","battery-v0.2","","","-1","","","13","1010","887","a","elianto","#f73b6a7A","-1","-1","1","0","[]","0","3","","","1010","185","2","4","lose","no-go","0","0"
"pit-trial","250","1529191","0.0-191.0","battery-v0.2","","","1568.5999999977648","","","13","1010","887","p","elianto","#f73b6a7A"," "," ","1","0","[2418.89999999851]","1","3","","","1010","186","4","3","lose","go","0","0"
"pit-trial","251","1534045","0.0-192.0","battery-v0.2","","","-1","","","13","1010","887","s","elianto","#f73b6a7A","-1","-1","1","-10","[]","0","3","","","1010","187","5","4","lose","no-go","1","0"
"pit-trial","252","1538107","0.0-193.0","battery-v0.2","","","1208.800000000745","","","13","1010","887","w","elianto","#3366ff99","-1"," ","0","0","[2059]","1","3","","","1010","188","6","2","win","no-go","0","0"
"pit-trial","253","1542962","0.0-194.0","battery-v0.2","","","-1","","","13","1010","887","e","elianto","#3366ff99"," ","-1","0","0","[]","0","3","","","1010","189","7","1","win","go","0","0"
"pit-trial","254","1547816","0.0-195.0","battery-v0.2","","","-1","","","13","1010","887","p","elianto","#f73b6a7A"," ","-1","0","-10","[2986.099999997765]","1","3","","","1010","190","4","3","lose","go","0","0"
"pit-trial","255","1552670","0.0-196.0","battery-v0.2","","","-1","","","13","1010","887","s","elianto","#f73b6a7A","-1","-1","1","0","[]","0","3","","","1010","191","5","4","lose","no-go","0","0"
"pit-trial","256","1557525","0.0-197.0","battery-v0.2","","","-1","","","13","1010","887","w","elianto","#3366ff99","-1","-1","1","+10","[]","0","3","","","1010","192","6","2","win","no-go","0","0"
"pit-trial","257","1562379","0.0-198.0","battery-v0.2","","","-1","","","13","1010","887","p","elianto","#f73b6a7A"," ","-1","0","-10","[]","0","3","","","1010","193","4","3","lose","go","0","0"
"pit-trial","258","1567233","0.0-199.0","battery-v0.2","","","-1","","","13","1010","887","s","elianto","#f73b6a7A","-1","-1","1","0","[]","0","3","","","1010","194","5","4","lose","no-go","0","0"
"pit-trial","259","1571739","0.0-200.0","battery-v0.2","","","1652.3999999985099","","","13","1010","887","e","elianto","#3366ff99"," "," ","1","+10","[2502.5]","1","3","","","1010","195","7","1","win","go","0","0"
"pit-trial","260","1576595","0.0-201.0","battery-v0.2","","","-1","","","13","1010","887","w","elianto","#3366ff99","-1","-1","1","+10","[]","0","3","","","1010","196","6","2","win","no-go","0","0"
"pit-trial","261","1581448","0.0-202.0","battery-v0.2","","","-1","","","13","1010","887","s","elianto","#f73b6a7A","-1","-1","1","0","[]","0","3","","","1010","197","5","4","lose","no-go","0","0"
"pit-trial","262","1586303","0.0-203.0","battery-v0.2","","","-1","","","13","1010","887","p","elianto","#f73b6a7A"," ","-1","0","-10","[4145.699999999255]","1","3","","","1010","198","4","3","lose","go","0","0"
"pit-trial","263","1590427","0.0-204.0","battery-v0.2","","","1270.3999999985099","","","13","1010","887","e","elianto","#3366ff99"," "," ","1","+10","[2120.900000002235]","1","3","","","1010","199","7","1","win","go","0","0"
"pit-trial","264","1595282","0.0-205.0","battery-v0.2","","","-1","","","13","1010","887","w","elianto","#3366ff99","-1","-1","1","+10","[]","0","3","","","1010","200","6","2","win","no-go","0","0"
"pit-trial","265","1600137","0.0-206.0","battery-v0.2","","","-1","","","13","1010","887","w","elianto","#3366ff99","-1","-1","1","+10","[]","0","3","","","1010","201","6","2","win","no-go","0","0"
"pit-trial","266","1603812","0.0-207.0","battery-v0.2","","","820.5","","","13","1010","887","e","elianto","#3366ff99"," "," ","1","+10","[1670.5999999977648]","1","3","","","1010","202","7","1","win","go","0","0"
"pit-trial","267","1607586","0.0-208.0","battery-v0.2","","","917.6999999992549","","","13","1010","887","p","elianto","#f73b6a7A"," "," ","1","0","[1769.300000000745]","1","3","","","1010","203","4","3","lose","go","0","0"
"pit-trial","268","1612440","0.0-209.0","battery-v0.2","","","-1","","","13","1010","887","s","elianto","#f73b6a7A","-1","-1","1","0","[]","0","3","","","1010","204","5","4","lose","no-go","0","0"
"pit-trial","269","1616417","0.0-210.0","battery-v0.2","","","1122.6000000014901","","","13","1010","887","p","elianto","#f73b6a7A"," "," ","1","0","[1973.1000000014901]","1","3","","","1010","205","4","3","lose","go","0","0"
"pit-trial","270","1621273","0.0-211.0","battery-v0.2","","","-1","","","13","1010","887","s","elianto","#f73b6a7A","-1","-1","1","0","[]","0","3","","","1010","206","5","4","lose","no-go","0","0"
"pit-trial","271","1626128","0.0-212.0","battery-v0.2","","","-1","","","13","1010","887","w","elianto","#3366ff99","-1","-1","1","+10","[]","0","3","","","1010","207","6","2","win","no-go","0","0"
"pit-trial","272","1629770","0.0-213.0","battery-v0.2","","","787.5","","","13","1010","887","e","elianto","#3366ff99"," "," ","1","0","[1637.800000000745]","1","3","","","1010","208","7","1","win","go","1","0"
"pit-trial","273","1634623","0.0-214.0","battery-v0.2","","","-1","","","13","1010","887","s","elianto","#f73b6a7A","-1","-1","1","0","[]","0","3","","","1010","209","5","4","lose","no-go","0","0"
"pit-trial","274","1639477","0.0-215.0","battery-v0.2","","","-1","","","13","1010","887","w","elianto","#3366ff99","-1","-1","1","+10","[]","0","3","","","1010","210","6","2","win","no-go","0","0"
"pit-trial","275","1643203","0.0-216.0","battery-v0.2","","","872.5","","","13","1010","887","p","elianto","#f73b6a7A"," "," ","1","-10","[1722.699999999255]","1","3","","","1010","211","4","3","lose","go","1","0"
"pit-trial","276","1648020","0.0-217.0","battery-v0.2","","","1963.7999999970198","","","13","1010","887","e","elianto","#3366ff99"," "," ","1","+10","[2813.89999999851]","1","3","","","1010","212","7","1","win","go","0","0"
"pit-trial","277","1652874","0.0-218.0","battery-v0.2","","","-1","","","13","1010","887","w","elianto","#3366ff99","-1","-1","1","+10","[4319.10000000149]","1","3","","","1010","213","6","2","win","no-go","0","0"
"pit-trial","278","1657727","0.0-219.0","battery-v0.2","","","-1","","","13","1010","887","k","elianto","#3366ff99"," ","-1","0","0","[]","0","3","","","1010","214","8","1","win","go","0","0"
"pit-trial","279","1662581","0.0-220.0","battery-v0.2","","","-1","","","13","1010","887","p","elianto","#f73b6a7A"," ","-1","0","-10","[4291.5]","1","3","","","1010","215","4","3","lose","go","0","0"
"pit-trial","280","1667434","0.0-221.0","battery-v0.2","","","-1","","","13","1010","887","e","elianto","#3366ff99"," ","-1","0","+10","[3363.099999997765]","1","3","","","1010","216","7","1","win","go","1","0"
"pit-trial","281","1672288","0.0-222.0","battery-v0.2","","","-1","","","13","1010","887","k","elianto","#3366ff99"," ","-1","0","0","[]","0","3","","","1010","217","8","1","win","go","0","0"
"pit-trial","282","1677143","0.0-223.0","battery-v0.2","","","-1","","","13","1010","887","w","elianto","#3366ff99","-1","-1","1","+10","[4129.300000000745]","1","3","","","1010","218","6","2","win","no-go","0","0"
"pit-trial","283","1681075","0.0-224.0","battery-v0.2","","","1077.800000000745","","","13","1010","887","p","elianto","#f73b6a7A"," "," ","1","0","[1928.1000000014901]","1","3","","","1010","219","4","3","lose","go","0","0"
"pit-trial","284","1685928","0.0-225.0","battery-v0.2","","","-1","","","13","1010","887","e","elianto","#3366ff99"," ","-1","0","0","[]","0","3","","","1010","220","7","1","win","go","0","0"
"pit-trial","285","1689536","0.0-226.0","battery-v0.2","","","753.5999999977648","","","13","1010","887","d","elianto","#3366ff99","-1"," ","0","0","[1603.699999999255]","1","3","","","1010","221","9","2","win","no-go","0","0"
"pit-trial","286","1694390","0.0-227.0","battery-v0.2","","","-1","","","13","1010","887","w","elianto","#3366ff99","-1","-1","1","+10","[]","0","3","","","1010","222","6","2","win","no-go","0","0"
"pit-trial","287","1698354","0.0-228.0","battery-v0.2","","","1110.7000000029802","","","13","1010","887","e","elianto","#3366ff99"," "," ","1","+10","[1960.800000000745]","1","3","","","1010","223","7","1","win","go","0","0"
"pit-trial","288","1702219","0.0-229.0","battery-v0.2","","","1010.5","","","13","1010","887","k","elianto","#3366ff99"," "," ","1","+10","[1860.5]","1","3","","","1010","224","8","1","win","go","0","0"
"pit-trial","289","1707073","0.0-230.0","battery-v0.2","","","-1","","","13","1010","887","k","elianto","#3366ff99"," ","-1","0","0","[]","0","3","","","1010","225","8","1","win","go","0","0"
"pit-trial","290","1710858","0.0-231.0","battery-v0.2","","","929.1999999992549","","","13","1010","887","w","elianto","#3366ff99","-1"," ","0","0","[1779.5999999977648]","1","3","","","1010","226","6","2","win","no-go","0","0"
"pit-trial","291","1714640","0.0-232.0","battery-v0.2","","","925.1999999992549","","","13","1010","887","d","elianto","#3366ff99","-1"," ","0","0","[1778.5]","1","3","","","1010","227","9","2","win","no-go","0","0"
"pit-trial","292","1719494","0.0-233.0","battery-v0.2","","","-1","","","13","1010","887","e","elianto","#3366ff99"," ","-1","0","+10","[]","0","3","","","1010","228","7","1","win","go","1","0"
"pit-trial","293","1724347","0.0-234.0","battery-v0.2","","","-1","","","13","1010","887","k","elianto","#3366ff99"," ","-1","0","0","[]","0","3","","","1010","229","8","1","win","go","0","0"
"pit-trial","294","1729215","0.0-235.0","battery-v0.2","","","-1","","","13","1010","887","d","elianto","#3366ff99","-1","-1","1","+10","[]","0","3","","","1010","230","9","2","win","no-go","0","0"
"pit-trial","295","1734070","0.0-236.0","battery-v0.2","","","-1","","","13","1010","887","v","elianto","#f73b6a7A","-1","-1","1","-10","[3792.599999997765]","1","3","","","1010","231","11","4","lose","no-go","1","0"
"pit-trial","296","1738924","0.0-237.0","battery-v0.2","","","-1","","","13","1010","887","j","elianto","#f73b6a7A"," ","-1","0","-10","[]","0","3","","","1010","232","10","3","lose","go","0","0"
"pit-trial","297","1743779","0.0-238.0","battery-v0.2","","","-1","","","13","1010","887","j","elianto","#f73b6a7A"," ","-1","0","-10","[]","0","3","","","1010","233","10","3","lose","go","0","0"
"pit-trial","298","1748638","0.0-239.0","battery-v0.2","","","-1","","","13","1010","887","d","elianto","#3366ff99","-1","-1","1","+10","[]","0","3","","","1010","234","9","2","win","no-go","0","0"
"pit-trial","299","1753507","0.0-240.0","battery-v0.2","","","-1","","","13","1010","887","k","elianto","#3366ff99"," ","-1","0","0","[]","0","3","","","1010","235","8","1","win","go","0","0"
"pit-trial","300","1758392","0.0-241.0","battery-v0.2","","","-1","","","13","1010","887","v","elianto","#f73b6a7A","-1","-1","1","0","[]","0","3","","","1010","236","11","4","lose","no-go","0","0"
"pit-trial","301","1763251","0.0-242.0","battery-v0.2","","","-1","","","13","1010","887","j","elianto","#f73b6a7A"," ","-1","0","-10","[]","0","3","","","1010","237","10","3","lose","go","0","0"
"pit-trial","302","1768105","0.0-243.0","battery-v0.2","","","-1","","","13","1010","887","v","elianto","#f73b6a7A","-1","-1","1","0","[]","0","3","","","1010","238","11","4","lose","no-go","0","0"
"pit-trial","303","1772959","0.0-244.0","battery-v0.2","","","-1","","","13","1010","887","k","elianto","#3366ff99"," ","-1","0","+10","[]","0","3","","","1010","239","8","1","win","go","1","0"
"pit-trial","304","1777813","0.0-245.0","battery-v0.2","","","-1","","","13","1010","887","d","elianto","#3366ff99","-1","-1","1","+10","[]","0","3","","","1010","240","9","2","win","no-go","0","0"
"pit-trial","305","1782668","0.0-246.0","battery-v0.2","","","-1","","","13","1010","887","v","elianto","#f73b6a7A","-1","-1","1","0","[]","0","3","","","1010","241","11","4","lose","no-go","0","0"
"pit-trial","306","1787523","0.0-247.0","battery-v0.2","","","-1","","","13","1010","887","d","elianto","#3366ff99","-1","-1","1","0","[]","0","3","","","1010","242","9","2","win","no-go","1","0"
"pit-trial","307","1792377","0.0-248.0","battery-v0.2","","","-1","","","13","1010","887","j","elianto","#f73b6a7A"," ","-1","0","-10","[]","0","3","","","1010","243","10","3","lose","go","0","0"
"pit-trial","308","1797232","0.0-249.0","battery-v0.2","","","-1","","","13","1010","887","k","elianto","#3366ff99"," ","-1","0","0","[]","0","3","","","1010","244","8","1","win","go","0","0"
"pit-trial","309","1802087","0.0-250.0","battery-v0.2","","","-1","","","13","1010","887","k","elianto","#3366ff99"," ","-1","0","0","[]","0","3","","","1010","245","8","1","win","go","0","0"
"pit-trial","310","1806942","0.0-251.0","battery-v0.2","","","-1","","","13","1010","887","j","elianto","#f73b6a7A"," ","-1","0","-10","[]","0","3","","","1010","246","10","3","lose","go","0","0"
"pit-trial","311","1811797","0.0-252.0","battery-v0.2","","","-1","","","13","1010","887","d","elianto","#3366ff99","-1","-1","1","0","[]","0","3","","","1010","247","9","2","win","no-go","1","0"
"pit-trial","312","1816651","0.0-253.0","battery-v0.2","","","-1","","","13","1010","887","v","elianto","#f73b6a7A","-1","-1","1","0","[]","0","3","","","1010","248","11","4","lose","no-go","0","0"
"pit-trial","313","1821505","0.0-254.0","battery-v0.2","","","-1","","","13","1010","887","d","elianto","#3366ff99","-1","-1","1","+10","[]","0","3","","","1010","249","9","2","win","no-go","0","0"
"pit-trial","314","1826359","0.0-255.0","battery-v0.2","","","-1","","","13","1010","887","v","elianto","#f73b6a7A","-1","-1","1","0","[]","0","3","","","1010","250","11","4","lose","no-go","0","0"
"pit-trial","315","1831213","0.0-256.0","battery-v0.2","","","-1","","","13","1010","887","j","elianto","#f73b6a7A"," ","-1","0","-10","[]","0","3","","","1010","251","10","3","lose","go","0","0"
"pit-trial","316","1834856","0.0-257.0","battery-v0.2","","","788.5","","","13","1010","887","k","elianto","#3366ff99"," "," ","1","0","[1638.699999999255]","1","3","","","1010","252","8","1","win","go","1","0"
"pit-trial","317","1839716","0.0-258.0","battery-v0.2","","","-1","","","13","1010","887","j","elianto","#f73b6a7A"," ","-1","0","0","[]","0","3","","","1010","253","10","3","lose","go","1","0"
"pit-trial","318","1843135","0.0-259.0","battery-v0.2","","","559.6000000014901","","","13","1010","887","k","elianto","#3366ff99"," "," ","1","+10","[1413.7000000029802]","1","3","","","1010","254","8","1","win","go","0","0"
"pit-trial","319","1847990","0.0-260.0","battery-v0.2","","","-1","","","13","1010","887","d","elianto","#3366ff99","-1","-1","1","0","[]","0","3","","","1010","255","9","2","win","no-go","1","0"
"pit-trial","320","1852052","0.0-261.0","battery-v0.2","","","1209.199999999255","","","13","1010","887","v","elianto","#f73b6a7A","-1"," ","0","-10","[272.80000000074506,2059.5]","2","3","","","1010","256","11","4","lose","no-go","0","0"
"pit-trial","321","1856907","0.0-262.0","battery-v0.2","","","-1","","","13","1010","887","j","elianto","#f73b6a7A"," ","-1","0","0","[]","0","3","","","1010","257","10","3","lose","go","1","0"
"pit-trial","322","1861760","0.0-263.0","battery-v0.2","","","-1","","","13","1010","887","v","elianto","#f73b6a7A","-1","-1","1","0","[]","0","3","","","1010","258","11","4","lose","no-go","0","0"
"pit-trial","323","1865975","0.0-264.0","battery-v0.2","","","1360.9000000022352","","","13","1010","887","k","elianto","#3366ff99"," "," ","1","+10","[2211]","1","3","","","1010","259","8","1","win","go","0","0"
"pit-trial","324","1870830","0.0-265.0","battery-v0.2","","","-1","","","13","1010","887","d","elianto","#3366ff99","-1","-1","1","+10","[]","0","3","","","1010","260","9","2","win","no-go","0","0"
"pit-instructions","325","1880585","0.0-266.0","battery-v0.2","","[{""page_index"":0,""viewing_time"":9751.900000002235}]","9752.5","","","","","","","","","","","","","","","","","","","","","","","","",""
