"trial_type","trial_index","time_elapsed","internal_node_id","task_version","view_history","rt","rune","rune_set","hex","correct","choice","accuracy","outcome","keys","total_keys","block","practice","subject","participantId","value","responses","num_errors","sub","trial","stimulus","robot","valence","action","sham"
"pavlovia","0","14","0.0-0.0","battery-v0.2","","","","","","","","","","","","","","","","","","","","","","","","",""
"pit-instructions","1","113373","0.0-1.0-0.0","battery-v0.2","[{""page_index"":0,""viewing_time"":4395.800000000279},{""page_index"":1,""viewing_time"":6568.199999999721},{""page_index"":2,""viewing_time"":5267.899999999907},{""page_index"":3,""viewing_time"":5835.600000000093},{""page_index"":4,""viewing_time"":28774.200000000186},{""page_index"":5,""viewing_time"":2751.600000000093},{""page_index"":6,""viewing_time"":5951.0999999996275},{""page_index"":7,""viewing_time"":3484.600000000093},{""page_index"":8,""viewing_time"":3951.399999999907},{""page_index"":9,""viewing_time"":4800.5},{""page_index"":10,""viewing_time"":3251.3000000002794},{""page_index"":11,""viewing_time"":1917.3999999999069},{""page_index"":12,""viewing_time"":3584.2000000001863},{""page_index"":13,""viewing_time"":5318.199999999721},{""page_index"":14,""viewing_time"":9869.700000000186},{""page_index"":15,""viewing_time"":2600.5},{""page_index"":16,""viewing_time"":9236.600000000093},{""page_index"":17,""viewing_time"":5801.199999999721}]","113360.5","","","","","","","","","","","","","","","","","","","","","","",""
"pit-trial","2","116460","0.0-1.0-1.0-0.0","battery-v0.2","","229.70000000018626","&#9776;","elianto","#3366ff99","32","32","1","+10","1081.2000000001863","1","0","1","5ee95e0e8737a0304baac70a&order=2&STUDY_ID=61bb98616f28aedf5237274a","999","","","","","","","","","",""
"pit-trial","3","119566","0.0-1.0-1.0-1.0","battery-v0.2","","250.29999999981374","&#9776;","elianto","#3366ff99","32","32","1","+10","1100.7000000001863","1","0","1","5ee95e0e8737a0304baac70a&order=2&STUDY_ID=61bb98616f28aedf5237274a","999","","","","","","","","","",""
"pit-trial","4","122512","0.0-1.0-1.0-2.0","battery-v0.2","","90.60000000009313","&#9776;","elianto","#3366ff99","32","32","1","+10","942.1000000000931","1","0","1","5ee95e0e8737a0304baac70a&order=2&STUDY_ID=61bb98616f28aedf5237274a","999","","","","","","","","","",""
"pit-trial","5","126300","0.0-1.0-1.0-3.0","battery-v0.2","","935.2999999998137","&#9776;","elianto","#3366ff99","32","32","1","0","1785.6000000000931","1","0","1","5ee95e0e8737a0304baac70a&order=2&STUDY_ID=61bb98616f28aedf5237274a","999","","","","","","","","","",""
"pit-trial","6","129551","0.0-1.0-1.0-4.0","battery-v0.2","","399.79999999981374","&#9776;","elianto","#3366ff99","32","32","1","+10","1249.8999999999069","1","0","1","5ee95e0e8737a0304baac70a&order=2&STUDY_ID=61bb98616f28aedf5237274a","999","","","","","","","","","",""
"call-function","7","129552","0.0-1.0-2.0","battery-v0.2","","","","","","","","","","","","","","","","","","","","","","","","",""
"pit-instructions","8","160769","0.0-1.0-3.0","battery-v0.2","[{""page_index"":0,""viewing_time"":10260.19999999972},{""page_index"":1,""viewing_time"":8503.200000000186},{""page_index"":2,""viewing_time"":7285.100000000093},{""page_index"":3,""viewing_time"":5168.0999999996275}]","31216.899999999907","","","","","","","","","","","","","","","","","","","","","","",""
"pit-trial","9","163910","0.0-1.0-4.0-0.0","battery-v0.2","","285.39999999990687","&#9761;","elianto","#3366ff99","-1","32","0","0","1136.5","1","0","2","5ee95e0e8737a0304baac70a&order=2&STUDY_ID=61bb98616f28aedf5237274a","999","","","","","","","","","",""
"pit-trial","10","166845","0.0-1.0-4.0-1.0","battery-v0.2","","78.29999999981374","&#9761;","elianto","#3366ff99","-1","32","0","0","931.1999999997206,1392.8999999999069","2","0","2","5ee95e0e8737a0304baac70a&order=2&STUDY_ID=61bb98616f28aedf5237274a","999","","","","","","","","","",""
"pit-trial","11","170041","0.0-1.0-4.0-2.0","battery-v0.2","","340.39999999990687","&#9761;","elianto","#3366ff99","-1","32","0","0","1192.1000000000931","1","0","2","5ee95e0e8737a0304baac70a&order=2&STUDY_ID=61bb98616f28aedf5237274a","999","","","","","","","","","",""
"pit-trial","12","174900","0.0-1.0-4.0-3.0","battery-v0.2","","-1","&#9761;","elianto","#3366ff99","-1","-1","1","+10","","0","0","2","5ee95e0e8737a0304baac70a&order=2&STUDY_ID=61bb98616f28aedf5237274a","999","","","","","","","","","",""
"pit-trial","13","179756","0.0-1.0-4.0-4.0","battery-v0.2","","-1","&#9761;","elianto","#3366ff99","-1","-1","1","0","","0","0","2","5ee95e0e8737a0304baac70a&order=2&STUDY_ID=61bb98616f28aedf5237274a","999","","","","","","","","","",""
"pit-trial","14","184608","0.0-1.0-4.1-0.1","battery-v0.2","","-1","&#9761;","elianto","#3366ff99","-1","-1","1","+10","","0","0","2","5ee95e0e8737a0304baac70a&order=2&STUDY_ID=61bb98616f28aedf5237274a","999","","","","","","","","","",""
"pit-trial","15","189466","0.0-1.0-4.1-1.1","battery-v0.2","","-1","&#9761;","elianto","#3366ff99","-1","-1","1","+10","","0","0","2","5ee95e0e8737a0304baac70a&order=2&STUDY_ID=61bb98616f28aedf5237274a","999","","","","","","","","","",""
"pit-trial","16","194325","0.0-1.0-4.1-2.1","battery-v0.2","","-1","&#9761;","elianto","#3366ff99","-1","-1","1","+10","","0","0","2","5ee95e0e8737a0304baac70a&order=2&STUDY_ID=61bb98616f28aedf5237274a","999","","","","","","","","","",""
"pit-trial","17","199184","0.0-1.0-4.1-3.1","battery-v0.2","","-1","&#9761;","elianto","#3366ff99","-1","-1","1","+10","","0","0","2","5ee95e0e8737a0304baac70a&order=2&STUDY_ID=61bb98616f28aedf5237274a","999","","","","","","","","","",""
"pit-trial","18","204036","0.0-1.0-4.1-4.1","battery-v0.2","","-1","&#9761;","elianto","#3366ff99","-1","-1","1","0","","0","0","2","5ee95e0e8737a0304baac70a&order=2&STUDY_ID=61bb98616f28aedf5237274a","999","","","","","","","","","",""
"call-function","19","204037","0.0-1.0-5.0","battery-v0.2","","","","","","","","","","","","","","","","","","","","","","","","",""
"pit-instructions","20","215916","0.0-1.0-6.0","battery-v0.2","[{""page_index"":0,""viewing_time"":7894.899999999907},{""page_index"":1,""viewing_time"":3984.7000000001863}]","11879.899999999907","","","","","","","","","","","","","","","","","","","","","","",""
"pit-trial","21","220159","0.0-1.0-7.0-0.0","battery-v0.2","","1385","&#9826;","elianto","#f73b6a7A","-1","32","0","-10","2236.5","1","0","3","5ee95e0e8737a0304baac70a&order=2&STUDY_ID=61bb98616f28aedf5237274a","999","","","","","","","","","",""
"pit-trial","22","225012","0.0-1.0-7.0-1.0","battery-v0.2","","-1","&#9826;","elianto","#f73b6a7A","-1","-1","1","0","","0","0","3","5ee95e0e8737a0304baac70a&order=2&STUDY_ID=61bb98616f28aedf5237274a","999","","","","","","","","","",""
"pit-trial","23","229871","0.0-1.0-7.0-2.0","battery-v0.2","","-1","&#9826;","elianto","#f73b6a7A","-1","-1","1","-10","","0","0","3","5ee95e0e8737a0304baac70a&order=2&STUDY_ID=61bb98616f28aedf5237274a","999","","","","","","","","","",""
"pit-trial","24","234723","0.0-1.0-7.0-3.0","battery-v0.2","","-1","&#9826;","elianto","#f73b6a7A","-1","-1","1","0","","0","0","3","5ee95e0e8737a0304baac70a&order=2&STUDY_ID=61bb98616f28aedf5237274a","999","","","","","","","","","",""
"pit-trial","25","239577","0.0-1.0-7.0-4.0","battery-v0.2","","-1","&#9826;","elianto","#f73b6a7A","-1","-1","1","0","","0","0","3","5ee95e0e8737a0304baac70a&order=2&STUDY_ID=61bb98616f28aedf5237274a","999","","","","","","","","","",""
"call-function","26","239578","0.0-1.0-8.0","battery-v0.2","","","","","","","","","","","","","","","","","","","","","","","","",""
"pit-instructions","27","261627","0.0-1.0-9.0","battery-v0.2","[{""page_index"":0,""viewing_time"":15231.19999999972},{""page_index"":1,""viewing_time"":6818.100000000093}]","22049.5","","","","","","","","","","","","","","","","","","","","","","",""
"pit-trial","28","264795","0.0-1.0-10.0-0.0","battery-v0.2","","313.3000000002794","&#9789;","elianto","#f73b6a7A","32","32","1","0","1163.5","1","0","4","5ee95e0e8737a0304baac70a&order=2&STUDY_ID=61bb98616f28aedf5237274a","999","","","","","","","","","",""
"pit-trial","29","268381","0.0-1.0-10.0-1.0","battery-v0.2","","734.5","&#9789;","elianto","#f73b6a7A","32","32","1","0","1584.8999999999069","1","0","4","5ee95e0e8737a0304baac70a&order=2&STUDY_ID=61bb98616f28aedf5237274a","999","","","","","","","","","",""
"pit-trial","30","272616","0.0-1.0-10.0-2.0","battery-v0.2","","1378.8000000002794","&#9789;","elianto","#f73b6a7A","32","32","1","0","2228.9000000003725","1","0","4","5ee95e0e8737a0304baac70a&order=2&STUDY_ID=61bb98616f28aedf5237274a","999","","","","","","","","","",""
"pit-trial","31","276144","0.0-1.0-10.0-3.0","battery-v0.2","","674.6999999997206","&#9789;","elianto","#f73b6a7A","32","32","1","0","1526.5999999996275","1","0","4","5ee95e0e8737a0304baac70a&order=2&STUDY_ID=61bb98616f28aedf5237274a","999","","","","","","","","","",""
"pit-trial","32","279315","0.0-1.0-10.0-4.0","battery-v0.2","","320.5","&#9789;","elianto","#f73b6a7A","32","32","1","-10","1170.6000000000931,1846.5","2","0","4","5ee95e0e8737a0304baac70a&order=2&STUDY_ID=61bb98616f28aedf5237274a","999","","","","","","","","","",""
"call-function","33","279316","0.0-1.0-11.0","battery-v0.2","","","","","","","","","","","","","","","","","","","","","","","","",""
"pit-instructions","34","422052","0.0-1.0-12.0","battery-v0.2","[{""page_index"":0,""viewing_time"":16203.600000000093},{""page_index"":1,""viewing_time"":12221.5},{""page_index"":2,""viewing_time"":7767.700000000186},{""page_index"":3,""viewing_time"":105015.1000000001},{""page_index"":4,""viewing_time"":1531.1999999997206}]","142739.40000000037","","","","","","","","","","","","","","","","","","","","","","",""
"pit-comprehension","35","424338","0.0-1.0-13.0-0.0","battery-v0.2","","2284.5","","","","","","","","","","","","","","","SPACE","0","","","","","","",""
"pit-instructions","36","425588","0.0-1.0-13.0-1.0","battery-v0.2","[{""page_index"":0,""viewing_time"":1241}]","1241.3000000002794","","","","","","","","","","","","","","","","","","","","","","",""
"pit-comprehension","37","439675","0.0-1.0-14.0-0.0","battery-v0.2","","14086.19999999972","","","","","","","","","","","","","","","undefined","1","","","","","","",""
"pit-instructions","38","442327","0.0-1.0-14.0-1.0","battery-v0.2","[{""page_index"":0,""viewing_time"":2645.600000000093}]","2645.899999999907","","","","","","","","","","","","","","","","","","","","","","",""
"pit-instructions","39","442878","0.0-1.0-14.0-2.0-0.0","battery-v0.2","[{""page_index"":0,""viewing_time"":549.2000000001863}]","549.5","","","","","","","","","","","","","","","","","","","","","","",""
"pit-comprehension","40","445660","0.0-1.0-14.1-0.1","battery-v0.2","","2781.2999999998137","","","","","","","","","","","","","","","10","0","","","","","","",""
"pit-instructions","41","446759","0.0-1.0-14.1-1.1","battery-v0.2","[{""page_index"":0,""viewing_time"":1092.9000000003725}]","1093.2000000001863","","","","","","","","","","","","","","","","","","","","","","",""
"pit-comprehension","42","454179","0.0-1.0-15.0-0.0","battery-v0.2","","7418.399999999907","","","","","","","","","","","","","","","0","0","","","","","","",""
"pit-instructions","43","455262","0.0-1.0-15.0-1.0","battery-v0.2","[{""page_index"":0,""viewing_time"":1076.5}]","1076.7999999998137","","","","","","","","","","","","","","","","","","","","","","",""
"pit-comprehension","44","461531","0.0-1.0-16.0-0.0","battery-v0.2","","6267.600000000093","","","","","","","","","","","","","","","True","0","","","","","","",""
"pit-instructions","45","462748","0.0-1.0-16.0-1.0","battery-v0.2","[{""page_index"":0,""viewing_time"":1210.5}]","1210.7000000001863","","","","","","","","","","","","","","","","","","","","","","",""
"pit-comprehension","46","464848","0.0-1.0-17.0-0.0","battery-v0.2","","2099","","","","","","","","","","","","","","","True","0","","","","","","",""
"pit-instructions","47","465748","0.0-1.0-17.0-1.0","battery-v0.2","[{""page_index"":0,""viewing_time"":893.6000000000931}]","893.7000000001863","","","","","","","","","","","","","","","","","","","","","","",""
"pit-comprehension","48","469516","0.0-1.0-18.0-0.0","battery-v0.2","","3767.100000000093","","","","","","","","","","","","","","","True","0","","","","","","",""
"pit-instructions","49","470633","0.0-1.0-18.0-1.0","battery-v0.2","[{""page_index"":0,""viewing_time"":1109.9000000003725}]","1110.2000000001863","","","","","","","","","","","","","","","","","","","","","","",""
"pit-instructions","50","481202","0.0-2.0","battery-v0.2","[{""page_index"":0,""viewing_time"":2249.600000000093},{""page_index"":1,""viewing_time"":5751.600000000093},{""page_index"":2,""viewing_time"":2566.899999999907}]","10568.299999999814","","","","","","","","","","","","","","","","","","","","","","",""
"pit-trial","51","484378","0.0-3.0","battery-v0.2","","318.40000000037253","&#9733;","elianto","#3366ff99","-1","32","0","+10","1168.6000000000931","1","1","","","","","","","5ee95e0e8737a0304baac70a&order=2&STUDY_ID=61bb98616f28aedf5237274a","1","2","2","win","no-go","1"
"pit-trial","52","487448","0.0-4.0","battery-v0.2","","215","&#9752;","elianto","#f73b6a7A","32","32","1","0","1065.1000000000931","1","1","","","","","","","5ee95e0e8737a0304baac70a&order=2&STUDY_ID=61bb98616f28aedf5237274a","2","3","3","lose","go","0"
"pit-trial","53","490453","0.0-5.0","battery-v0.2","","148.39999999990687","&#9730;","elianto","#3366ff99","32","32","1","0","998.7000000001863","1","1","","","","","","","5ee95e0e8737a0304baac70a&order=2&STUDY_ID=61bb98616f28aedf5237274a","3","1","1","win","go","1"
"pit-trial","54","493601","0.0-6.0","battery-v0.2","","293.10000000009313","&#9728;","elianto","#f73b6a7A","-1","32","0","-10","1143.2000000001863","1","1","","","","","","","5ee95e0e8737a0304baac70a&order=2&STUDY_ID=61bb98616f28aedf5237274a","4","0","4","lose","no-go","0"
"pit-trial","55","496638","0.0-7.0","battery-v0.2","","181.3000000002794","&#9730;","elianto","#3366ff99","32","32","1","+10","1032.6000000000931","1","1","","","","","","","5ee95e0e8737a0304baac70a&order=2&STUDY_ID=61bb98616f28aedf5237274a","5","1","1","win","go","0"
"pit-trial","56","501272","0.0-8.0","battery-v0.2","","1779.7999999998137","&#9752;","elianto","#f73b6a7A","32","32","1","0","2630.1999999997206","1","1","","","","","","","5ee95e0e8737a0304baac70a&order=2&STUDY_ID=61bb98616f28aedf5237274a","6","3","3","lose","go","0"
"pit-trial","57","504702","0.0-9.0","battery-v0.2","","577","&#9728;","elianto","#f73b6a7A","-1","32","0","-10","1427.1000000000931","1","1","","","","","","","5ee95e0e8737a0304baac70a&order=2&STUDY_ID=61bb98616f28aedf5237274a","7","0","4","lose","no-go","0"
"pit-trial","58","507864","0.0-10.0","battery-v0.2","","307.1999999997206","&#9733;","elianto","#3366ff99","-1","32","0","0","1158.2999999998137","1","1","","","","","","","5ee95e0e8737a0304baac70a&order=2&STUDY_ID=61bb98616f28aedf5237274a","8","2","2","win","no-go","0"
"pit-trial","59","511747","0.0-11.0","battery-v0.2","","1027.3999999999069","&#9752;","elianto","#f73b6a7A","32","32","1","0","1877.5","1","1","","","","","","","5ee95e0e8737a0304baac70a&order=2&STUDY_ID=61bb98616f28aedf5237274a","9","3","3","lose","go","0"
"pit-trial","60","514804","0.0-12.0","battery-v0.2","","203.8000000002794","&#9728;","elianto","#f73b6a7A","-1","32","0","-10","1054.7000000001863","1","1","","","","","","","5ee95e0e8737a0304baac70a&order=2&STUDY_ID=61bb98616f28aedf5237274a","10","0","4","lose","no-go","0"
"pit-trial","61","517953","0.0-13.0","battery-v0.2","","295.39999999990687","&#9733;","elianto","#3366ff99","-1","32","0","0","1147.1000000000931","1","1","","","","","","","5ee95e0e8737a0304baac70a&order=2&STUDY_ID=61bb98616f28aedf5237274a","11","2","2","win","no-go","0"
"pit-trial","62","520935","0.0-14.0","battery-v0.2","","130.70000000018626","&#9730;","elianto","#3366ff99","32","32","1","+10","980.9000000003725","1","1","","","","","","","5ee95e0e8737a0304baac70a&order=2&STUDY_ID=61bb98616f28aedf5237274a","12","1","1","win","go","0"
"pit-trial","63","523962","0.0-15.0","battery-v0.2","","173.89999999990687","&#9752;","elianto","#f73b6a7A","32","32","1","0","1023.8999999999069","1","1","","","","","","","5ee95e0e8737a0304baac70a&order=2&STUDY_ID=61bb98616f28aedf5237274a","13","3","3","lose","go","0"
"pit-trial","64","526987","0.0-16.0","battery-v0.2","","171.60000000009313","&#9728;","elianto","#f73b6a7A","-1","32","0","-10","1023.7000000001863","1","1","","","","","","","5ee95e0e8737a0304baac70a&order=2&STUDY_ID=61bb98616f28aedf5237274a","14","0","4","lose","no-go","0"
"pit-trial","65","531839","0.0-17.0","battery-v0.2","","-1","&#9733;","elianto","#3366ff99","-1","-1","1","+10","","0","1","","","","","","","5ee95e0e8737a0304baac70a&order=2&STUDY_ID=61bb98616f28aedf5237274a","15","2","2","win","no-go","0"
"pit-trial","66","534849","0.0-18.0","battery-v0.2","","158.39999999990687","&#9730;","elianto","#3366ff99","32","32","1","+10","1008.8999999999069","1","1","","","","","","","5ee95e0e8737a0304baac70a&order=2&STUDY_ID=61bb98616f28aedf5237274a","16","1","1","win","go","0"
"pit-trial","67","537892","0.0-19.0","battery-v0.2","","186.89999999990687","&#9730;","elianto","#3366ff99","32","32","1","+10","1037.2000000001863","1","1","","","","","","","5ee95e0e8737a0304baac70a&order=2&STUDY_ID=61bb98616f28aedf5237274a","17","1","1","win","go","0"
"pit-trial","68","541150","0.0-20.0","battery-v0.2","","405.29999999981374","&#9728;","elianto","#f73b6a7A","-1","32","0","-10","1255.3999999999069","1","1","","","","","","","5ee95e0e8737a0304baac70a&order=2&STUDY_ID=61bb98616f28aedf5237274a","18","0","4","lose","no-go","0"
"pit-trial","69","544153","0.0-21.0","battery-v0.2","","151.79999999981374","&#9752;","elianto","#f73b6a7A","32","32","1","0","1002.6000000000931","1","1","","","","","","","5ee95e0e8737a0304baac70a&order=2&STUDY_ID=61bb98616f28aedf5237274a","19","3","3","lose","go","0"
"pit-trial","70","547225","0.0-22.0","battery-v0.2","","220","&#9733;","elianto","#3366ff99","-1","32","0","0","1070","1","1","","","","","","","5ee95e0e8737a0304baac70a&order=2&STUDY_ID=61bb98616f28aedf5237274a","20","2","2","win","no-go","0"
"pit-instructions","71","563107","0.0-23.0","battery-v0.2","[{""page_index"":0,""viewing_time"":8311.899999999907},{""page_index"":1,""viewing_time"":7569.600000000093}]","15881.799999999814","","","","","","","","","","","","","","","","","","","","","","",""
"pit-trial","72","567285","0.0-24.0","battery-v0.2","","1324.8999999999069","l","elianto","#f73b6a7A","32","32","1","0","2175.100000000093","1","2","","","","","","","5ee95e0e8737a0304baac70a&order=2&STUDY_ID=61bb98616f28aedf5237274a","21","1","3","lose","go","0"
"pit-trial","73","570875","0.0-25.0","battery-v0.2","","734.7999999998137","u","elianto","#3366ff99","-1","32","0","+10","1585.1999999997206","1","2","","","","","","","5ee95e0e8737a0304baac70a&order=2&STUDY_ID=61bb98616f28aedf5237274a","22","0","2","win","no-go","1"
"pit-trial","74","574740","0.0-26.0","battery-v0.2","","1012.7000000001863","a","elianto","#f73b6a7A","-1","32","0","0","1863.7999999998137","1","2","","","","","","","5ee95e0e8737a0304baac70a&order=2&STUDY_ID=61bb98616f28aedf5237274a","23","2","4","lose","no-go","1"
"pit-trial","75","578367","0.0-27.0","battery-v0.2","","771.2000000001863","g","elianto","#3366ff99","32","32","1","+10","1621.7000000001863","1","2","","","","","","","5ee95e0e8737a0304baac70a&order=2&STUDY_ID=61bb98616f28aedf5237274a","24","3","1","win","go","0"
"pit-trial","76","581854","0.0-28.0","battery-v0.2","","631","g","elianto","#3366ff99","32","32","1","+10","1483","1","2","","","","","","","5ee95e0e8737a0304baac70a&order=2&STUDY_ID=61bb98616f28aedf5237274a","25","3","1","win","go","0"
"pit-trial","77","585748","0.0-29.0","battery-v0.2","","1038.2000000001863","u","elianto","#3366ff99","-1","32","0","0","1888.3000000002794","1","2","","","","","","","5ee95e0e8737a0304baac70a&order=2&STUDY_ID=61bb98616f28aedf5237274a","26","0","2","win","no-go","0"
"pit-trial","78","589549","0.0-30.0","battery-v0.2","","945.1999999997206","a","elianto","#f73b6a7A","-1","32","0","-10","1795.5999999996275","1","2","","","","","","","5ee95e0e8737a0304baac70a&order=2&STUDY_ID=61bb98616f28aedf5237274a","27","2","4","lose","no-go","0"
"pit-trial","79","592878","0.0-31.0","battery-v0.2","","474.39999999990687","l","elianto","#f73b6a7A","32","32","1","-10","1326.2999999998137","1","2","","","","","","","5ee95e0e8737a0304baac70a&order=2&STUDY_ID=61bb98616f28aedf5237274a","28","1","3","lose","go","1"
"pit-trial","80","596430","0.0-32.0","battery-v0.2","","700.1000000000931","l","elianto","#f73b6a7A","32","32","1","0","1551.4000000003725","1","2","","","","","","","5ee95e0e8737a0304baac70a&order=2&STUDY_ID=61bb98616f28aedf5237274a","29","1","3","lose","go","0"
"pit-trial","81","600089","0.0-33.0","battery-v0.2","","804.3999999999069","u","elianto","#3366ff99","-1","32","0","0","1654.6999999997206","1","2","","","","","","","5ee95e0e8737a0304baac70a&order=2&STUDY_ID=61bb98616f28aedf5237274a","30","0","2","win","no-go","0"
"pit-trial","82","603645","0.0-34.0","battery-v0.2","","700.6000000000931","g","elianto","#3366ff99","32","32","1","0","1551","1","2","","","","","","","5ee95e0e8737a0304baac70a&order=2&STUDY_ID=61bb98616f28aedf5237274a","31","3","1","win","go","1"
"pit-trial","83","607390","0.0-35.0","battery-v0.2","","890.1000000000931","a","elianto","#f73b6a7A","-1","32","0","0","1740.2999999998137","1","2","","","","","","","5ee95e0e8737a0304baac70a&order=2&STUDY_ID=61bb98616f28aedf5237274a","32","2","4","lose","no-go","1"
"pit-trial","84","610785","0.0-36.0","battery-v0.2","","542.7999999998137","l","elianto","#f73b6a7A","32","32","1","0","1393.0999999996275","1","2","","","","","","","5ee95e0e8737a0304baac70a&order=2&STUDY_ID=61bb98616f28aedf5237274a","33","1","3","lose","go","0"
"pit-trial","85","614240","0.0-37.0","battery-v0.2","","600.7999999998137","a","elianto","#f73b6a7A","-1","32","0","-10","1451.6000000000931","1","2","","","","","","","5ee95e0e8737a0304baac70a&order=2&STUDY_ID=61bb98616f28aedf5237274a","34","2","4","lose","no-go","0"
"pit-trial","86","617807","0.0-38.0","battery-v0.2","","712.6000000000931","g","elianto","#3366ff99","32","32","1","+10","1563","1","2","","","","","","","5ee95e0e8737a0304baac70a&order=2&STUDY_ID=61bb98616f28aedf5237274a","35","3","1","win","go","0"
"pit-trial","87","622661","0.0-39.0","battery-v0.2","","-1","u","elianto","#3366ff99","-1","-1","1","+10","","0","2","","","","","","","5ee95e0e8737a0304baac70a&order=2&STUDY_ID=61bb98616f28aedf5237274a","36","0","2","win","no-go","0"
"pit-trial","88","626208","0.0-40.0","battery-v0.2","","695.3000000002794","g","elianto","#3366ff99","32","32","1","+10","1545.4000000003725","1","2","","","","","","","5ee95e0e8737a0304baac70a&order=2&STUDY_ID=61bb98616f28aedf5237274a","37","3","1","win","go","0"
"pit-trial","89","630246","0.0-41.0","battery-v0.2","","1186.3999999999069","u","elianto","#3366ff99","-1","32","0","0","2036.6000000000931","1","2","","","","","","","5ee95e0e8737a0304baac70a&order=2&STUDY_ID=61bb98616f28aedf5237274a","38","0","2","win","no-go","0"
"pit-trial","90","633952","0.0-42.0","battery-v0.2","","849.8999999999069","l","elianto","#f73b6a7A","32","32","1","0","1700.0999999996275","1","2","","","","","","","5ee95e0e8737a0304baac70a&order=2&STUDY_ID=61bb98616f28aedf5237274a","39","1","3","lose","go","0"
"pit-trial","91","637760","0.0-43.0","battery-v0.2","","954.7000000001863","a","elianto","#f73b6a7A","-1","32","0","-10","1806.7000000001863","1","2","","","","","","","5ee95e0e8737a0304baac70a&order=2&STUDY_ID=61bb98616f28aedf5237274a","40","2","4","lose","no-go","0"
"pit-trial","92","641309","0.0-44.0","battery-v0.2","","694.0999999996275","g","elianto","#3366ff99","32","32","1","+10","1544.0999999996275","1","2","","","","","","","5ee95e0e8737a0304baac70a&order=2&STUDY_ID=61bb98616f28aedf5237274a","41","3","1","win","go","0"
"pit-trial","93","645876","0.0-45.0","battery-v0.2","","1712","l","elianto","#f73b6a7A","32","32","1","0","2562.100000000093","1","2","","","","","","","5ee95e0e8737a0304baac70a&order=2&STUDY_ID=61bb98616f28aedf5237274a","42","1","3","lose","go","0"
"pit-trial","94","650728","0.0-46.0","battery-v0.2","","-1","a","elianto","#f73b6a7A","-1","-1","1","0","","0","2","","","","","","","5ee95e0e8737a0304baac70a&order=2&STUDY_ID=61bb98616f28aedf5237274a","43","2","4","lose","no-go","0"
"pit-trial","95","655584","0.0-47.0","battery-v0.2","","-1","u","elianto","#3366ff99","-1","-1","1","+10","","0","2","","","","","","","5ee95e0e8737a0304baac70a&order=2&STUDY_ID=61bb98616f28aedf5237274a","44","0","2","win","no-go","0"
"pit-trial","96","659408","0.0-48.0","battery-v0.2","","970.3999999999069","l","elianto","#f73b6a7A","32","32","1","-10","1820.7999999998137","1","2","","","","","","","5ee95e0e8737a0304baac70a&order=2&STUDY_ID=61bb98616f28aedf5237274a","45","1","3","lose","go","1"
"pit-trial","97","663478","0.0-49.0","battery-v0.2","","1215.8999999999069","g","elianto","#3366ff99","32","32","1","+10","2068","1","2","","","","","","","5ee95e0e8737a0304baac70a&order=2&STUDY_ID=61bb98616f28aedf5237274a","46","3","1","win","go","0"
"pit-trial","98","668338","0.0-50.0","battery-v0.2","","-1","u","elianto","#3366ff99","-1","-1","1","+10","","0","2","","","","","","","5ee95e0e8737a0304baac70a&order=2&STUDY_ID=61bb98616f28aedf5237274a","47","0","2","win","no-go","0"
"pit-trial","99","673196","0.0-51.0","battery-v0.2","","-1","a","elianto","#f73b6a7A","-1","-1","1","0","","0","2","","","","","","","5ee95e0e8737a0304baac70a&order=2&STUDY_ID=61bb98616f28aedf5237274a","48","2","4","lose","no-go","0"
"pit-trial","100","678052","0.0-52.0","battery-v0.2","","-1","a","elianto","#f73b6a7A","-1","-1","1","0","","0","2","","","","","","","5ee95e0e8737a0304baac70a&order=2&STUDY_ID=61bb98616f28aedf5237274a","49","2","4","lose","no-go","0"
"pit-trial","101","681747","0.0-53.0","battery-v0.2","","842.6000000000931","g","elianto","#3366ff99","32","32","1","+10","1692.7000000001863","1","2","","","","","","","5ee95e0e8737a0304baac70a&order=2&STUDY_ID=61bb98616f28aedf5237274a","50","3","1","win","go","0"
"pit-trial","102","686257","0.0-54.0","battery-v0.2","","1659","l","elianto","#f73b6a7A","32","32","1","-10","2509","1","2","","","","","","","5ee95e0e8737a0304baac70a&order=2&STUDY_ID=61bb98616f28aedf5237274a","51","1","3","lose","go","1"
"pit-trial","103","691114","0.0-55.0","battery-v0.2","","-1","u","elianto","#3366ff99","-1","-1","1","+10","","0","2","","","","","","","5ee95e0e8737a0304baac70a&order=2&STUDY_ID=61bb98616f28aedf5237274a","52","0","2","win","no-go","0"
"pit-trial","104","694942","0.0-56.0","battery-v0.2","","976.3000000002794","l","elianto","#f73b6a7A","32","32","1","0","1827","1","2","","","","","","","5ee95e0e8737a0304baac70a&order=2&STUDY_ID=61bb98616f28aedf5237274a","53","1","3","lose","go","0"
"pit-trial","105","699555","0.0-57.0","battery-v0.2","","1759.9000000003725","a","elianto","#f73b6a7A","-1","32","0","-10","2610.100000000093","1","2","","","","","","","5ee95e0e8737a0304baac70a&order=2&STUDY_ID=61bb98616f28aedf5237274a","54","2","4","lose","no-go","0"
"pit-trial","106","703699","0.0-58.0","battery-v0.2","","1288.2000000001863","p","elianto","#f73b6a7A","32","32","1","0","2138.600000000093","1","2","","","","","","","5ee95e0e8737a0304baac70a&order=2&STUDY_ID=61bb98616f28aedf5237274a","55","4","3","lose","go","0"
"pit-trial","107","707804","0.0-59.0","battery-v0.2","","1251.1999999997206","s","elianto","#f73b6a7A","-1","32","0","-10","2101.2999999998137","1","2","","","","","","","5ee95e0e8737a0304baac70a&order=2&STUDY_ID=61bb98616f28aedf5237274a","56","5","4","lose","no-go","0"
"pit-trial","108","712166","0.0-60.0","battery-v0.2","","1509.6000000000931","a","elianto","#f73b6a7A","-1","32","0","0","2359.6999999997206","1","2","","","","","","","5ee95e0e8737a0304baac70a&order=2&STUDY_ID=61bb98616f28aedf5237274a","57","2","4","lose","no-go","1"
"pit-trial","109","716400","0.0-61.0","battery-v0.2","","1378.1000000000931","p","elianto","#f73b6a7A","32","32","1","0","2228.100000000093","1","2","","","","","","","5ee95e0e8737a0304baac70a&order=2&STUDY_ID=61bb98616f28aedf5237274a","58","4","3","lose","go","0"
"pit-trial","110","721251","0.0-62.0","battery-v0.2","","-1","s","elianto","#f73b6a7A","-1","-1","1","0","","0","2","","","","","","","5ee95e0e8737a0304baac70a&order=2&STUDY_ID=61bb98616f28aedf5237274a","59","5","4","lose","no-go","0"
"pit-trial","111","725522","0.0-63.0","battery-v0.2","","1416.3000000002794","l","elianto","#f73b6a7A","32","32","1","0","2266.600000000093","1","2","","","","","","","5ee95e0e8737a0304baac70a&order=2&STUDY_ID=61bb98616f28aedf5237274a","60","1","3","lose","go","0"
"pit-trial","112","729703","0.0-64.0","battery-v0.2","","1329.4000000003725","w","elianto","#3366ff99","-1","32","0","0","2179.5","1","2","","","","","","","5ee95e0e8737a0304baac70a&order=2&STUDY_ID=61bb98616f28aedf5237274a","61","6","2","win","no-go","0"
"pit-trial","113","733878","0.0-65.0","battery-v0.2","","1322.2000000001863","p","elianto","#f73b6a7A","32","32","1","-10","2172.2999999998137","1","2","","","","","","","5ee95e0e8737a0304baac70a&order=2&STUDY_ID=61bb98616f28aedf5237274a","62","4","3","lose","go","1"
"pit-trial","114","738740","0.0-66.0","battery-v0.2","","-1","s","elianto","#f73b6a7A","-1","-1","1","0","","0","2","","","","","","","5ee95e0e8737a0304baac70a&order=2&STUDY_ID=61bb98616f28aedf5237274a","63","5","4","lose","no-go","0"
"pit-trial","115","742336","0.0-67.0","battery-v0.2","","744.7000000001863","a","elianto","#f73b6a7A","-1","32","0","-10","199.5,1595.6000000000931","2","2","","","","","","","5ee95e0e8737a0304baac70a&order=2&STUDY_ID=61bb98616f28aedf5237274a","64","2","4","lose","no-go","0"
"pit-trial","116","745903","0.0-68.0","battery-v0.2","","714.8000000002794","p","elianto","#f73b6a7A","32","32","1","0","1565.1000000000931","1","2","","","","","","","5ee95e0e8737a0304baac70a&order=2&STUDY_ID=61bb98616f28aedf5237274a","65","4","3","lose","go","0"
"pit-trial","117","749526","0.0-69.0","battery-v0.2","","770.5","s","elianto","#f73b6a7A","-1","32","0","-10","1620.6000000000931","1","2","","","","","","","5ee95e0e8737a0304baac70a&order=2&STUDY_ID=61bb98616f28aedf5237274a","66","5","4","lose","no-go","0"
"pit-trial","118","753970","0.0-70.0","battery-v0.2","","1590.0999999996275","a","elianto","#f73b6a7A","-1","32","0","-10","2441.5","1","2","","","","","","","5ee95e0e8737a0304baac70a&order=2&STUDY_ID=61bb98616f28aedf5237274a","67","2","4","lose","no-go","0"
"pit-trial","119","757894","0.0-71.0","battery-v0.2","","1072.3000000002794","w","elianto","#3366ff99","-1","32","0","0","1922.8000000002794","1","2","","","","","","","5ee95e0e8737a0304baac70a&order=2&STUDY_ID=61bb98616f28aedf5237274a","68","6","2","win","no-go","0"
"pit-trial","120","761587","0.0-72.0","battery-v0.2","","839.1000000000931","s","elianto","#f73b6a7A","-1","32","0","-10","1689.1000000000931","1","2","","","","","","","5ee95e0e8737a0304baac70a&order=2&STUDY_ID=61bb98616f28aedf5237274a","69","5","4","lose","no-go","0"
"pit-trial","121","765828","0.0-73.0","battery-v0.2","","1385.7000000001863","p","elianto","#f73b6a7A","32","32","1","0","2236.600000000093","1","2","","","","","","","5ee95e0e8737a0304baac70a&order=2&STUDY_ID=61bb98616f28aedf5237274a","70","4","3","lose","go","0"
"pit-trial","122","769312","0.0-74.0","battery-v0.2","","632.2000000001863","e","elianto","#3366ff99","32","32","1","0","1483.3000000002794","1","2","","","","","","","5ee95e0e8737a0304baac70a&order=2&STUDY_ID=61bb98616f28aedf5237274a","71","7","1","win","go","1"
"pit-trial","123","772688","0.0-75.0","battery-v0.2","","523.7999999998137","w","elianto","#3366ff99","-1","32","0","0","1374.0999999996275","1","2","","","","","","","5ee95e0e8737a0304baac70a&order=2&STUDY_ID=61bb98616f28aedf5237274a","72","6","2","win","no-go","0"
"pit-trial","124","777542","0.0-76.0","battery-v0.2","","-1","w","elianto","#3366ff99","-1","-1","1","+10","","0","2","","","","","","","5ee95e0e8737a0304baac70a&order=2&STUDY_ID=61bb98616f28aedf5237274a","73","6","2","win","no-go","0"
"pit-trial","125","781533","0.0-77.0","battery-v0.2","","1136.5","p","elianto","#f73b6a7A","32","32","1","0","1986.5999999996275","1","2","","","","","","","5ee95e0e8737a0304baac70a&order=2&STUDY_ID=61bb98616f28aedf5237274a","74","4","3","lose","go","0"
"pit-trial","126","786290","0.0-78.0","battery-v0.2","","1903.3999999999069","s","elianto","#f73b6a7A","-1","32","0","-10","2753.5","1","2","","","","","","","5ee95e0e8737a0304baac70a&order=2&STUDY_ID=61bb98616f28aedf5237274a","75","5","4","lose","no-go","0"
"pit-trial","127","789948","0.0-79.0","battery-v0.2","","803.9000000003725","e","elianto","#3366ff99","32","32","1","+10","1654.7000000001863","1","2","","","","","","","5ee95e0e8737a0304baac70a&order=2&STUDY_ID=61bb98616f28aedf5237274a","76","7","1","win","go","0"
"pit-trial","128","793882","0.0-80.0","battery-v0.2","","1083","p","elianto","#f73b6a7A","32","32","1","0","1933.1999999997206","1","2","","","","","","","5ee95e0e8737a0304baac70a&order=2&STUDY_ID=61bb98616f28aedf5237274a","77","4","3","lose","go","0"
"pit-trial","129","798734","0.0-81.0","battery-v0.2","","-1","w","elianto","#3366ff99","-1","-1","1","+10","","0","2","","","","","","","5ee95e0e8737a0304baac70a&order=2&STUDY_ID=61bb98616f28aedf5237274a","78","6","2","win","no-go","0"
"pit-trial","130","801649","0.0-82.0","battery-v0.2","","59.10000000009313","e","elianto","#3366ff99","32","32","1","+10","909.1000000000931","1","2","","","","","","","5ee95e0e8737a0304baac70a&order=2&STUDY_ID=61bb98616f28aedf5237274a","79","7","1","win","go","0"
"pit-trial","131","804681","0.0-83.0","battery-v0.2","","179.60000000009313","s","elianto","#f73b6a7A","-1","32","0","0","1030.8999999999069,1244.3999999999069","2","2","","","","","","","5ee95e0e8737a0304baac70a&order=2&STUDY_ID=61bb98616f28aedf5237274a","80","5","4","lose","no-go","1"
"pit-trial","132","807892","0.0-84.0","battery-v0.2","","354.40000000037253","w","elianto","#3366ff99","-1","32","0","0","1205.3999999999069,1689.8999999999069","2","2","","","","","","","5ee95e0e8737a0304baac70a&order=2&STUDY_ID=61bb98616f28aedf5237274a","81","6","2","win","no-go","0"
"pit-trial","133","811397","0.0-85.0","battery-v0.2","","653.7999999998137","e","elianto","#3366ff99","32","32","1","+10","1504.1000000000931","1","2","","","","","","","5ee95e0e8737a0304baac70a&order=2&STUDY_ID=61bb98616f28aedf5237274a","82","7","1","win","go","0"
"pit-trial","134","814606","0.0-86.0","battery-v0.2","","354.70000000018626","p","elianto","#f73b6a7A","32","32","1","0","1204.8000000002794","1","2","","","","","","","5ee95e0e8737a0304baac70a&order=2&STUDY_ID=61bb98616f28aedf5237274a","83","4","3","lose","go","0"
"pit-trial","135","817654","0.0-87.0","battery-v0.2","","191.79999999981374","s","elianto","#f73b6a7A","-1","32","0","-10","1044.2999999998137","1","2","","","","","","","5ee95e0e8737a0304baac70a&order=2&STUDY_ID=61bb98616f28aedf5237274a","84","5","4","lose","no-go","0"
"pit-trial","136","821276","0.0-88.0","battery-v0.2","","768.8999999999069","s","elianto","#f73b6a7A","-1","32","0","-10","1619","1","2","","","","","","","5ee95e0e8737a0304baac70a&order=2&STUDY_ID=61bb98616f28aedf5237274a","85","5","4","lose","no-go","0"
"pit-trial","137","826133","0.0-89.0","battery-v0.2","","-1","w","elianto","#3366ff99","-1","-1","1","+10","","0","2","","","","","","","5ee95e0e8737a0304baac70a&order=2&STUDY_ID=61bb98616f28aedf5237274a","86","6","2","win","no-go","0"
"pit-trial","138","829277","0.0-90.0","battery-v0.2","","288.29999999981374","e","elianto","#3366ff99","32","32","1","0","1138.3999999999069","1","2","","","","","","","5ee95e0e8737a0304baac70a&order=2&STUDY_ID=61bb98616f28aedf5237274a","87","7","1","win","go","1"
"pit-trial","139","832561","0.0-91.0","battery-v0.2","","428.70000000018626","p","elianto","#f73b6a7A","32","32","1","0","1280.1000000000931","1","2","","","","","","","5ee95e0e8737a0304baac70a&order=2&STUDY_ID=61bb98616f28aedf5237274a","88","4","3","lose","go","0"
"pit-trial","140","835797","0.0-92.0","battery-v0.2","","385.29999999981374","e","elianto","#3366ff99","32","32","1","0","1235.2999999998137","1","2","","","","","","","5ee95e0e8737a0304baac70a&order=2&STUDY_ID=61bb98616f28aedf5237274a","89","7","1","win","go","1"
"pit-trial","141","838895","0.0-93.0","battery-v0.2","","242.39999999990687","s","elianto","#f73b6a7A","-1","32","0","-10","1092.5","1","2","","","","","","","5ee95e0e8737a0304baac70a&order=2&STUDY_ID=61bb98616f28aedf5237274a","90","5","4","lose","no-go","0"
"pit-trial","142","842404","0.0-94.0","battery-v0.2","","653.3999999994412","p","elianto","#f73b6a7A","32","32","1","0","1504.5999999996275","1","2","","","","","","","5ee95e0e8737a0304baac70a&order=2&STUDY_ID=61bb98616f28aedf5237274a","91","4","3","lose","go","0"
"pit-trial","143","845765","0.0-95.0","battery-v0.2","","508.20000000018626","w","elianto","#3366ff99","-1","32","0","0","1360","1","2","","","","","","","5ee95e0e8737a0304baac70a&order=2&STUDY_ID=61bb98616f28aedf5237274a","92","6","2","win","no-go","0"
"pit-trial","144","848896","0.0-96.0","battery-v0.2","","275.40000000037253","k","elianto","#3366ff99","32","32","1","+10","1125.6000000005588","1","2","","","","","","","5ee95e0e8737a0304baac70a&order=2&STUDY_ID=61bb98616f28aedf5237274a","93","8","1","win","go","0"
"pit-trial","145","852403","0.0-97.0","battery-v0.2","","652.7000000001863","p","elianto","#f73b6a7A","32","32","1","0","1504.0999999996275","1","2","","","","","","","5ee95e0e8737a0304baac70a&order=2&STUDY_ID=61bb98616f28aedf5237274a","94","4","3","lose","go","0"
"pit-trial","146","857258","0.0-98.0","battery-v0.2","","-1","w","elianto","#3366ff99","-1","-1","1","+10","","0","2","","","","","","","5ee95e0e8737a0304baac70a&order=2&STUDY_ID=61bb98616f28aedf5237274a","95","6","2","win","no-go","0"
"pit-trial","147","862114","0.0-99.0","battery-v0.2","","-1","e","elianto","#3366ff99","32","-1","0","+10","","0","2","","","","","","","5ee95e0e8737a0304baac70a&order=2&STUDY_ID=61bb98616f28aedf5237274a","96","7","1","win","go","1"
"pit-trial","148","866972","0.0-100.0","battery-v0.2","","-1","p","elianto","#f73b6a7A","32","-1","0","-10","","0","2","","","","","","","5ee95e0e8737a0304baac70a&order=2&STUDY_ID=61bb98616f28aedf5237274a","97","4","3","lose","go","0"
"pit-trial","149","871828","0.0-101.0","battery-v0.2","","-1","w","elianto","#3366ff99","-1","-1","1","+10","","0","2","","","","","","","5ee95e0e8737a0304baac70a&order=2&STUDY_ID=61bb98616f28aedf5237274a","98","6","2","win","no-go","0"
"pit-trial","150","876686","0.0-102.0","battery-v0.2","","-1","e","elianto","#3366ff99","32","-1","0","+10","","0","2","","","","","","","5ee95e0e8737a0304baac70a&order=2&STUDY_ID=61bb98616f28aedf5237274a","99","7","1","win","go","1"
"pit-trial","151","881540","0.0-103.0","battery-v0.2","","-1","k","elianto","#3366ff99","32","-1","0","0","","0","2","","","","","","","5ee95e0e8737a0304baac70a&order=2&STUDY_ID=61bb98616f28aedf5237274a","100","8","1","win","go","0"
"pit-trial","152","886398","0.0-104.0","battery-v0.2","","-1","d","elianto","#3366ff99","-1","-1","1","+10","","0","2","","","","","","","5ee95e0e8737a0304baac70a&order=2&STUDY_ID=61bb98616f28aedf5237274a","101","9","2","win","no-go","0"
"pit-trial","153","891250","0.0-105.0","battery-v0.2","","-1","e","elianto","#3366ff99","32","-1","0","0","","0","2","","","","","","","5ee95e0e8737a0304baac70a&order=2&STUDY_ID=61bb98616f28aedf5237274a","102","7","1","win","go","0"
"pit-trial","154","896102","0.0-106.0","battery-v0.2","","-1","w","elianto","#3366ff99","-1","-1","1","0","","0","2","","","","","","","5ee95e0e8737a0304baac70a&order=2&STUDY_ID=61bb98616f28aedf5237274a","103","6","2","win","no-go","1"
"pit-trial","155","900953","0.0-107.0","battery-v0.2","","-1","k","elianto","#3366ff99","32","-1","0","+10","","0","2","","","","","","","5ee95e0e8737a0304baac70a&order=2&STUDY_ID=61bb98616f28aedf5237274a","104","8","1","win","go","1"
"pit-trial","156","905811","0.0-108.0","battery-v0.2","","-1","w","elianto","#3366ff99","-1","-1","1","+10","","0","2","","","","","","","5ee95e0e8737a0304baac70a&order=2&STUDY_ID=61bb98616f28aedf5237274a","105","6","2","win","no-go","0"
"pit-trial","157","910662","0.0-109.0","battery-v0.2","","-1","e","elianto","#3366ff99","32","-1","0","+10","","0","2","","","","","","","5ee95e0e8737a0304baac70a&order=2&STUDY_ID=61bb98616f28aedf5237274a","106","7","1","win","go","1"
"pit-trial","158","915514","0.0-110.0","battery-v0.2","","-1","d","elianto","#3366ff99","-1","-1","1","+10","","0","2","","","","","","","5ee95e0e8737a0304baac70a&order=2&STUDY_ID=61bb98616f28aedf5237274a","107","9","2","win","no-go","0"
"pit-trial","159","920369","0.0-111.0","battery-v0.2","","-1","k","elianto","#3366ff99","32","-1","0","0","","0","2","","","","","","","5ee95e0e8737a0304baac70a&order=2&STUDY_ID=61bb98616f28aedf5237274a","108","8","1","win","go","0"
"pit-trial","160","923556","0.0-112.0","battery-v0.2","","332.3999999994412","j","elianto","#f73b6a7A","32","32","1","0","1182.7999999998137","1","2","","","","","","","5ee95e0e8737a0304baac70a&order=2&STUDY_ID=61bb98616f28aedf5237274a","109","10","3","lose","go","0"
"pit-trial","161","928412","0.0-113.0","battery-v0.2","","-1","v","elianto","#f73b6a7A","-1","-1","1","0","","0","2","","","","","","","5ee95e0e8737a0304baac70a&order=2&STUDY_ID=61bb98616f28aedf5237274a","110","11","4","lose","no-go","0"
"pit-trial","162","933268","0.0-114.0","battery-v0.2","","-1","k","elianto","#3366ff99","32","-1","0","0","","0","2","","","","","","","5ee95e0e8737a0304baac70a&order=2&STUDY_ID=61bb98616f28aedf5237274a","111","8","1","win","go","0"
"pit-trial","163","938123","0.0-115.0","battery-v0.2","","-1","d","elianto","#3366ff99","-1","-1","1","+10","","0","2","","","","","","","5ee95e0e8737a0304baac70a&order=2&STUDY_ID=61bb98616f28aedf5237274a","112","9","2","win","no-go","0"
"pit-trial","164","942977","0.0-116.0","battery-v0.2","","-1","v","elianto","#f73b6a7A","-1","-1","1","0","","0","2","","","","","","","5ee95e0e8737a0304baac70a&order=2&STUDY_ID=61bb98616f28aedf5237274a","113","11","4","lose","no-go","0"
"pit-trial","165","947527","0.0-117.0","battery-v0.2","","1696.6000000005588","j","elianto","#f73b6a7A","32","32","1","0","2546.9000000003725","1","2","","","","","","","5ee95e0e8737a0304baac70a&order=2&STUDY_ID=61bb98616f28aedf5237274a","114","10","3","lose","go","0"
"pit-trial","166","950541","0.0-118.0","battery-v0.2","","162.8999999994412","d","elianto","#3366ff99","-1","32","0","0","1013.0999999996275","1","2","","","","","","","5ee95e0e8737a0304baac70a&order=2&STUDY_ID=61bb98616f28aedf5237274a","115","9","2","win","no-go","0"
"pit-trial","167","953906","0.0-119.0","battery-v0.2","","511.6000000005588","k","elianto","#3366ff99","32","32","1","0","1361.9000000003725","1","2","","","","","","","5ee95e0e8737a0304baac70a&order=2&STUDY_ID=61bb98616f28aedf5237274a","116","8","1","win","go","1"
"pit-trial","168","958351","0.0-120.0","battery-v0.2","","1590.2000000001863","v","elianto","#f73b6a7A","-1","32","0","-10","2440.5","1","2","","","","","","","5ee95e0e8737a0304baac70a&order=2&STUDY_ID=61bb98616f28aedf5237274a","117","11","4","lose","no-go","0"
"pit-trial","169","962500","0.0-121.0","battery-v0.2","","1293.5999999996275","d","elianto","#3366ff99","-1","32","0","0","2145.5999999996275","1","2","","","","","","","5ee95e0e8737a0304baac70a&order=2&STUDY_ID=61bb98616f28aedf5237274a","118","9","2","win","no-go","0"
"pit-trial","170","965586","0.0-122.0","battery-v0.2","","229","k","elianto","#3366ff99","32","32","1","0","1079.7999999998137","1","2","","","","","","","5ee95e0e8737a0304baac70a&order=2&STUDY_ID=61bb98616f28aedf5237274a","119","8","1","win","go","1"
"pit-trial","171","970440","0.0-123.0","battery-v0.2","","-1","j","elianto","#f73b6a7A","32","-1","0","-10","2977.600000000559","1","2","","","","","","","5ee95e0e8737a0304baac70a&order=2&STUDY_ID=61bb98616f28aedf5237274a","120","10","3","lose","go","0"
"pit-trial","172","975295","0.0-124.0","battery-v0.2","","-1","d","elianto","#3366ff99","-1","-1","1","+10","822.3000000007451,3004.9000000003725","2","2","","","","","","","5ee95e0e8737a0304baac70a&order=2&STUDY_ID=61bb98616f28aedf5237274a","121","9","2","win","no-go","0"
"pit-trial","173","978394","0.0-125.0","battery-v0.2","","246.09999999962747","j","elianto","#f73b6a7A","32","32","1","0","1096.5999999996275","1","2","","","","","","","5ee95e0e8737a0304baac70a&order=2&STUDY_ID=61bb98616f28aedf5237274a","122","10","3","lose","go","0"
"pit-trial","174","981963","0.0-126.0","battery-v0.2","","715.3999999994412","k","elianto","#3366ff99","32","32","1","+10","1565.5","1","2","","","","","","","5ee95e0e8737a0304baac70a&order=2&STUDY_ID=61bb98616f28aedf5237274a","123","8","1","win","go","0"
"pit-trial","175","985047","0.0-127.0","battery-v0.2","","227.70000000018626","v","elianto","#f73b6a7A","-1","32","0","-10","1078.1000000005588","1","2","","","","","","","5ee95e0e8737a0304baac70a&order=2&STUDY_ID=61bb98616f28aedf5237274a","124","11","4","lose","no-go","0"
"pit-trial","176","988014","0.0-128.0","battery-v0.2","","113.09999999962747","d","elianto","#3366ff99","-1","32","0","0","963.5","1","2","","","","","","","5ee95e0e8737a0304baac70a&order=2&STUDY_ID=61bb98616f28aedf5237274a","125","9","2","win","no-go","0"
"pit-trial","177","991109","0.0-129.0","battery-v0.2","","240.20000000018626","k","elianto","#3366ff99","32","32","1","+10","1090.9000000003725","1","2","","","","","","","5ee95e0e8737a0304baac70a&order=2&STUDY_ID=61bb98616f28aedf5237274a","126","8","1","win","go","0"
"pit-trial","178","995964","0.0-130.0","battery-v0.2","","-1","j","elianto","#f73b6a7A","32","-1","0","0","312.19999999925494,3766.199999999255","2","2","","","","","","","5ee95e0e8737a0304baac70a&order=2&STUDY_ID=61bb98616f28aedf5237274a","127","10","3","lose","go","1"
"pit-trial","179","999660","0.0-131.0","battery-v0.2","","840","v","elianto","#f73b6a7A","-1","32","0","-10","1690.199999999255","1","2","","","","","","","5ee95e0e8737a0304baac70a&order=2&STUDY_ID=61bb98616f28aedf5237274a","128","11","4","lose","no-go","0"
"pit-trial","180","1002751","0.0-132.0","battery-v0.2","","237.40000000037253","j","elianto","#f73b6a7A","32","32","1","-10","1088.4000000003725","1","2","","","","","","","5ee95e0e8737a0304baac70a&order=2&STUDY_ID=61bb98616f28aedf5237274a","129","10","3","lose","go","1"
"pit-trial","181","1007610","0.0-133.0","battery-v0.2","","-1","v","elianto","#f73b6a7A","-1","-1","1","0","","0","2","","","","","","","5ee95e0e8737a0304baac70a&order=2&STUDY_ID=61bb98616f28aedf5237274a","130","11","4","lose","no-go","0"
"pit-trial","182","1011078","0.0-134.0","battery-v0.2","","612","d","elianto","#3366ff99","-1","32","0","+10","1462.199999999255","1","2","","","","","","","5ee95e0e8737a0304baac70a&order=2&STUDY_ID=61bb98616f28aedf5237274a","131","9","2","win","no-go","1"
"pit-trial","183","1014507","0.0-135.0","battery-v0.2","","575.0999999996275","k","elianto","#3366ff99","32","32","1","0","1426","1","2","","","","","","","5ee95e0e8737a0304baac70a&order=2&STUDY_ID=61bb98616f28aedf5237274a","132","8","1","win","go","1"
"pit-trial","184","1019362","0.0-136.0","battery-v0.2","","-1","d","elianto","#3366ff99","-1","-1","1","+10","4645.5","1","2","","","","","","","5ee95e0e8737a0304baac70a&order=2&STUDY_ID=61bb98616f28aedf5237274a","133","9","2","win","no-go","0"
"pit-trial","185","1024219","0.0-137.0","battery-v0.2","","-1","j","elianto","#f73b6a7A","32","-1","0","-10","3952.800000000745","1","2","","","","","","","5ee95e0e8737a0304baac70a&order=2&STUDY_ID=61bb98616f28aedf5237274a","134","10","3","lose","go","0"
"pit-trial","186","1027997","0.0-138.0","battery-v0.2","","921.5","k","elianto","#3366ff99","32","32","1","+10","1772.9000000003725","1","2","","","","","","","5ee95e0e8737a0304baac70a&order=2&STUDY_ID=61bb98616f28aedf5237274a","135","8","1","win","go","0"
"pit-trial","187","1031008","0.0-139.0","battery-v0.2","","159.5","v","elianto","#f73b6a7A","-1","32","0","-10","1009.5","1","2","","","","","","","5ee95e0e8737a0304baac70a&order=2&STUDY_ID=61bb98616f28aedf5237274a","136","11","4","lose","no-go","0"
"pit-trial","188","1034601","0.0-140.0","battery-v0.2","","736.2999999998137","j","elianto","#f73b6a7A","32","32","1","0","1587.5","1","2","","","","","","","5ee95e0e8737a0304baac70a&order=2&STUDY_ID=61bb98616f28aedf5237274a","137","10","3","lose","go","0"
"pit-trial","189","1037704","0.0-141.0","battery-v0.2","","248.79999999981374","k","elianto","#3366ff99","32","32","1","0","1099","1","2","","","","","","","5ee95e0e8737a0304baac70a&order=2&STUDY_ID=61bb98616f28aedf5237274a","138","8","1","win","go","1"
"pit-trial","190","1040571","0.0-142.0","battery-v0.2","","13.900000000372529","d","elianto","#3366ff99","-1","32","0","+10","864.2000000001863","1","2","","","","","","","5ee95e0e8737a0304baac70a&order=2&STUDY_ID=61bb98616f28aedf5237274a","139","9","2","win","no-go","1"
"pit-trial","191","1043631","0.0-143.0","battery-v0.2","","207.29999999981374","v","elianto","#f73b6a7A","-1","32","0","-10","1058","1","2","","","","","","","5ee95e0e8737a0304baac70a&order=2&STUDY_ID=61bb98616f28aedf5237274a","140","11","4","lose","no-go","0"
"pit-instructions","192","1059337","0.0-144.0","battery-v0.2","[{""page_index"":0,""viewing_time"":8267.799999999814},{""page_index"":1,""viewing_time"":7436.899999999441}]","15706.099999999627","","","","","","","","","","","","","","","","","","","","","","",""
"pit-trial","193","1063249","0.0-145.0","battery-v0.2","","1043.2000000001863","y","elianto","#3366ff99","32","32","1","+10","1893.5","1","3","","","","","","","5ee95e0e8737a0304baac70a&order=2&STUDY_ID=61bb98616f28aedf5237274a","141","2","1","win","go","0"
"pit-trial","194","1067693","0.0-146.0","battery-v0.2","","1591.2999999998137","h","elianto","#f73b6a7A","32","32","1","0","2442.0999999996275","1","3","","","","","","","5ee95e0e8737a0304baac70a&order=2&STUDY_ID=61bb98616f28aedf5237274a","142","3","3","lose","go","0"
"pit-trial","195","1071317","0.0-147.0","battery-v0.2","","768.2000000001863","r","elianto","#3366ff99","-1","32","0","0","203.1000000005588,1619.9000000003725,2587.600000000559","3","3","","","","","","","5ee95e0e8737a0304baac70a&order=2&STUDY_ID=61bb98616f28aedf5237274a","143","1","2","win","no-go","0"
"pit-trial","196","1075751","0.0-148.0","battery-v0.2","","1579.2999999998137","m","elianto","#3366ff99","-1","32","0","+10","2429.899999999441,2992.0999999996275","2","3","","","","","","","5ee95e0e8737a0304baac70a&order=2&STUDY_ID=61bb98616f28aedf5237274a","144","0","2","win","no-go","1"
"pit-trial","197","1079472","0.0-149.0","battery-v0.2","","869.5","h","elianto","#f73b6a7A","32","32","1","0","1719.800000000745,2484.5","2","3","","","","","","","5ee95e0e8737a0304baac70a&order=2&STUDY_ID=61bb98616f28aedf5237274a","145","3","3","lose","go","0"
"pit-trial","198","1082689","0.0-150.0","battery-v0.2","","364.8999999994412","y","elianto","#3366ff99","32","32","1","+10","359.90000000037253,1215.2000000001863","2","3","","","","","","","5ee95e0e8737a0304baac70a&order=2&STUDY_ID=61bb98616f28aedf5237274a","146","2","1","win","go","0"
"pit-trial","199","1085918","0.0-151.0","battery-v0.2","","375.90000000037253","m","elianto","#3366ff99","-1","32","0","0","1226.5","1","3","","","","","","","5ee95e0e8737a0304baac70a&order=2&STUDY_ID=61bb98616f28aedf5237274a","147","0","2","win","no-go","0"
"pit-trial","200","1089060","0.0-152.0","battery-v0.2","","285.70000000018626","r","elianto","#3366ff99","-1","32","0","+10","1136.2999999998137","1","3","","","","","","","5ee95e0e8737a0304baac70a&order=2&STUDY_ID=61bb98616f28aedf5237274a","148","1","2","win","no-go","1"
"pit-trial","201","1092172","0.0-153.0","battery-v0.2","","260.5","r","elianto","#3366ff99","-1","32","0","0","1110.7000000001863","1","3","","","","","","","5ee95e0e8737a0304baac70a&order=2&STUDY_ID=61bb98616f28aedf5237274a","149","1","2","win","no-go","0"
"pit-trial","202","1095742","0.0-154.0","battery-v0.2","","714.5","h","elianto","#f73b6a7A","32","32","1","0","1564.5999999996275","1","3","","","","","","","5ee95e0e8737a0304baac70a&order=2&STUDY_ID=61bb98616f28aedf5237274a","150","3","3","lose","go","0"
"pit-trial","203","1098608","0.0-155.0","battery-v0.2","","12.800000000745058","y","elianto","#3366ff99","32","32","1","+10","863.1000000005588","1","3","","","","","","","5ee95e0e8737a0304baac70a&order=2&STUDY_ID=61bb98616f28aedf5237274a","151","2","1","win","go","0"
"pit-trial","204","1101703","0.0-156.0","battery-v0.2","","240.20000000018626","m","elianto","#3366ff99","-1","32","0","+10","1090.2000000001863","1","3","","","","","","","5ee95e0e8737a0304baac70a&order=2&STUDY_ID=61bb98616f28aedf5237274a","152","0","2","win","no-go","1"
"pit-trial","205","1104853","0.0-157.0","battery-v0.2","","295.40000000037253","m","elianto","#3366ff99","-1","32","0","0","1146","1","3","","","","","","","5ee95e0e8737a0304baac70a&order=2&STUDY_ID=61bb98616f28aedf5237274a","153","0","2","win","no-go","0"
"pit-trial","206","1107914","0.0-158.0","battery-v0.2","","204.70000000018626","h","elianto","#f73b6a7A","32","32","1","0","1055.7000000001863","1","3","","","","","","","5ee95e0e8737a0304baac70a&order=2&STUDY_ID=61bb98616f28aedf5237274a","154","3","3","lose","go","0"
"pit-trial","207","1110895","0.0-159.0","battery-v0.2","","125.20000000018626","y","elianto","#3366ff99","32","32","1","+10","976.0999999996275","1","3","","","","","","","5ee95e0e8737a0304baac70a&order=2&STUDY_ID=61bb98616f28aedf5237274a","155","2","1","win","go","0"
"pit-trial","208","1113841","0.0-160.0","battery-v0.2","","93","r","elianto","#3366ff99","-1","32","0","0","943","1","3","","","","","","","5ee95e0e8737a0304baac70a&order=2&STUDY_ID=61bb98616f28aedf5237274a","156","1","2","win","no-go","0"
"pit-trial","209","1116788","0.0-161.0","battery-v0.2","","92.59999999962747","m","elianto","#3366ff99","-1","32","0","0","942.7000000001863","1","3","","","","","","","5ee95e0e8737a0304baac70a&order=2&STUDY_ID=61bb98616f28aedf5237274a","157","0","2","win","no-go","0"
"pit-trial","210","1120018","0.0-162.0","battery-v0.2","","374.5","r","elianto","#3366ff99","-1","32","0","+10","1225.4000000003725,2530.9000000003725","2","3","","","","","","","5ee95e0e8737a0304baac70a&order=2&STUDY_ID=61bb98616f28aedf5237274a","158","1","2","win","no-go","1"
"pit-trial","211","1122988","0.0-163.0","battery-v0.2","","111.8999999994412","h","elianto","#f73b6a7A","32","32","1","-10","964.1000000005588","1","3","","","","","","","5ee95e0e8737a0304baac70a&order=2&STUDY_ID=61bb98616f28aedf5237274a","159","3","3","lose","go","1"
"pit-trial","212","1126060","0.0-164.0","battery-v0.2","","215.09999999962747","y","elianto","#3366ff99","32","32","1","0","1066.2000000001863","1","3","","","","","","","5ee95e0e8737a0304baac70a&order=2&STUDY_ID=61bb98616f28aedf5237274a","160","2","1","win","go","1"
"pit-trial","213","1129062","0.0-165.0","battery-v0.2","","147","r","elianto","#3366ff99","-1","32","0","0","997.2000000001863","1","3","","","","","","","5ee95e0e8737a0304baac70a&order=2&STUDY_ID=61bb98616f28aedf5237274a","161","1","2","win","no-go","0"
"pit-trial","214","1131962","0.0-166.0","battery-v0.2","","47.59999999962747","h","elianto","#f73b6a7A","32","32","1","0","898","1","3","","","","","","","5ee95e0e8737a0304baac70a&order=2&STUDY_ID=61bb98616f28aedf5237274a","162","3","3","lose","go","0"
"pit-trial","215","1135123","0.0-167.0","battery-v0.2","","308","y","elianto","#3366ff99","32","32","1","+10","1159.4000000003725","1","3","","","","","","","5ee95e0e8737a0304baac70a&order=2&STUDY_ID=61bb98616f28aedf5237274a","163","2","1","win","go","0"
"pit-trial","216","1138385","0.0-168.0","battery-v0.2","","410.90000000037253","m","elianto","#3366ff99","-1","32","0","+10","1261","1","3","","","","","","","5ee95e0e8737a0304baac70a&order=2&STUDY_ID=61bb98616f28aedf5237274a","164","0","2","win","no-go","1"
"pit-trial","217","1141517","0.0-169.0","battery-v0.2","","274.70000000018626","y","elianto","#3366ff99","32","32","1","+10","1127.2000000001863","1","3","","","","","","","5ee95e0e8737a0304baac70a&order=2&STUDY_ID=61bb98616f28aedf5237274a","165","2","1","win","go","0"
"pit-trial","218","1144494","0.0-170.0","battery-v0.2","","125.20000000018626","m","elianto","#3366ff99","-1","32","0","0","975.5999999996275","1","3","","","","","","","5ee95e0e8737a0304baac70a&order=2&STUDY_ID=61bb98616f28aedf5237274a","166","0","2","win","no-go","0"
"pit-trial","219","1147479","0.0-171.0","battery-v0.2","","128.90000000037253","r","elianto","#3366ff99","-1","32","0","0","979.5","1","3","","","","","","","5ee95e0e8737a0304baac70a&order=2&STUDY_ID=61bb98616f28aedf5237274a","167","1","2","win","no-go","0"
"pit-trial","220","1150524","0.0-172.0","battery-v0.2","","192.29999999981374","h","elianto","#f73b6a7A","32","32","1","0","1043.3999999994412","1","3","","","","","","","5ee95e0e8737a0304baac70a&order=2&STUDY_ID=61bb98616f28aedf5237274a","168","3","3","lose","go","0"
"pit-trial","221","1153632","0.0-173.0","battery-v0.2","","252.69999999925494","m","elianto","#3366ff99","-1","32","0","0","1102.699999999255","1","3","","","","","","","5ee95e0e8737a0304baac70a&order=2&STUDY_ID=61bb98616f28aedf5237274a","169","0","2","win","no-go","0"
"pit-trial","222","1156576","0.0-174.0","battery-v0.2","","91.79999999981374","r","elianto","#3366ff99","-1","32","0","+10","942.2999999998137","1","3","","","","","","","5ee95e0e8737a0304baac70a&order=2&STUDY_ID=61bb98616f28aedf5237274a","170","1","2","win","no-go","1"
"pit-trial","223","1159492","0.0-175.0","battery-v0.2","","61.10000000055879","h","elianto","#f73b6a7A","32","32","1","0","911.2000000001863","1","3","","","","","","","5ee95e0e8737a0304baac70a&order=2&STUDY_ID=61bb98616f28aedf5237274a","171","3","3","lose","go","0"
"pit-trial","224","1162429","0.0-176.0","battery-v0.2","","81.5","y","elianto","#3366ff99","32","32","1","+10","932.6000000005588","1","3","","","","","","","5ee95e0e8737a0304baac70a&order=2&STUDY_ID=61bb98616f28aedf5237274a","172","2","1","win","go","0"
"pit-trial","225","1165521","0.0-177.0","battery-v0.2","","237.79999999981374","z","elianto","#f73b6a7A","-1","32","0","-10","1088.5999999996275","1","3","","","","","","","5ee95e0e8737a0304baac70a&order=2&STUDY_ID=61bb98616f28aedf5237274a","173","4","4","lose","no-go","0"
"pit-trial","226","1168570","0.0-178.0","battery-v0.2","","193.59999999962747","c","elianto","#f73b6a7A","32","32","1","0","1045","1","3","","","","","","","5ee95e0e8737a0304baac70a&order=2&STUDY_ID=61bb98616f28aedf5237274a","174","5","3","lose","go","0"
"pit-trial","227","1171560","0.0-179.0","battery-v0.2","","138","y","elianto","#3366ff99","32","32","1","+10","988.5","1","3","","","","","","","5ee95e0e8737a0304baac70a&order=2&STUDY_ID=61bb98616f28aedf5237274a","175","2","1","win","go","0"
"pit-trial","228","1174452","0.0-180.0","battery-v0.2","","39.700000000186265","m","elianto","#3366ff99","-1","32","0","0","889.7000000001863","1","3","","","","","","","5ee95e0e8737a0304baac70a&order=2&STUDY_ID=61bb98616f28aedf5237274a","176","0","2","win","no-go","0"
"pit-trial","229","1177365","0.0-181.0","battery-v0.2","","59.09999999962747","y","elianto","#3366ff99","32","32","1","+10","911.2000000001863","1","3","","","","","","","5ee95e0e8737a0304baac70a&order=2&STUDY_ID=61bb98616f28aedf5237274a","177","2","1","win","go","0"
"pit-trial","230","1180304","0.0-182.0","battery-v0.2","","83.5","z","elianto","#f73b6a7A","-1","32","0","-10","934","1","3","","","","","","","5ee95e0e8737a0304baac70a&order=2&STUDY_ID=61bb98616f28aedf5237274a","178","4","4","lose","no-go","0"
"pit-trial","231","1183206","0.0-183.0","battery-v0.2","","45.89999999944121","m","elianto","#3366ff99","-1","32","0","0","897.5999999996275","1","3","","","","","","","5ee95e0e8737a0304baac70a&order=2&STUDY_ID=61bb98616f28aedf5237274a","179","0","2","win","no-go","0"
"pit-trial","232","1186154","0.0-184.0","battery-v0.2","","93.3999999994412","c","elianto","#f73b6a7A","32","32","1","0","943.5999999996275","1","3","","","","","","","5ee95e0e8737a0304baac70a&order=2&STUDY_ID=61bb98616f28aedf5237274a","180","5","3","lose","go","0"
"pit-trial","233","1189111","0.0-185.0","battery-v0.2","","100.09999999962747","c","elianto","#f73b6a7A","32","32","1","0","952.5","1","3","","","","","","","5ee95e0e8737a0304baac70a&order=2&STUDY_ID=61bb98616f28aedf5237274a","181","5","3","lose","go","0"
"pit-trial","234","1193963","0.0-186.0","battery-v0.2","","-1","y","elianto","#3366ff99","32","-1","0","0","797.2999999998137,4757,4801.600000000559","3","3","","","","","","","5ee95e0e8737a0304baac70a&order=2&STUDY_ID=61bb98616f28aedf5237274a","182","2","1","win","go","0"
"pit-trial","235","1198820","0.0-187.0","battery-v0.2","","-1","b","elianto","#3366ff99","-1","-1","1","+10","","0","3","","","","","","","5ee95e0e8737a0304baac70a&order=2&STUDY_ID=61bb98616f28aedf5237274a","183","6","2","win","no-go","0"
"pit-trial","236","1203229","0.0-188.0","battery-v0.2","","1554.2000000001863","z","elianto","#f73b6a7A","-1","32","0","0","2405.2000000001863","1","3","","","","","","","5ee95e0e8737a0304baac70a&order=2&STUDY_ID=61bb98616f28aedf5237274a","184","4","4","lose","no-go","1"
"pit-trial","237","1208084","0.0-189.0","battery-v0.2","","-1","b","elianto","#3366ff99","-1","-1","1","+10","","0","3","","","","","","","5ee95e0e8737a0304baac70a&order=2&STUDY_ID=61bb98616f28aedf5237274a","185","6","2","win","no-go","0"
"pit-trial","238","1212944","0.0-190.0","battery-v0.2","","-1","y","elianto","#3366ff99","32","-1","0","0","","0","3","","","","","","","5ee95e0e8737a0304baac70a&order=2&STUDY_ID=61bb98616f28aedf5237274a","186","2","1","win","go","0"
"pit-trial","239","1217804","0.0-191.0","battery-v0.2","","-1","c","elianto","#f73b6a7A","32","-1","0","-10","3131.2000000001863","1","3","","","","","","","5ee95e0e8737a0304baac70a&order=2&STUDY_ID=61bb98616f28aedf5237274a","187","5","3","lose","go","0"
"pit-trial","240","1220764","0.0-192.0","battery-v0.2","","108.20000000018626","z","elianto","#f73b6a7A","-1","32","0","-10","522.6000000005588,959.5","2","3","","","","","","","5ee95e0e8737a0304baac70a&order=2&STUDY_ID=61bb98616f28aedf5237274a","188","4","4","lose","no-go","0"
"pit-trial","241","1225619","0.0-193.0","battery-v0.2","","-1","z","elianto","#f73b6a7A","-1","-1","1","0","","0","3","","","","","","","5ee95e0e8737a0304baac70a&order=2&STUDY_ID=61bb98616f28aedf5237274a","189","4","4","lose","no-go","0"
"pit-trial","242","1230474","0.0-194.0","battery-v0.2","","-1","t","elianto","#f73b6a7A","-1","-1","1","0","","0","3","","","","","","","5ee95e0e8737a0304baac70a&order=2&STUDY_ID=61bb98616f28aedf5237274a","190","7","4","lose","no-go","0"
"pit-trial","243","1234200","0.0-195.0","battery-v0.2","","870.9000000003725","c","elianto","#f73b6a7A","32","32","1","0","1722","1","3","","","","","","","5ee95e0e8737a0304baac70a&order=2&STUDY_ID=61bb98616f28aedf5237274a","191","5","3","lose","go","0"
"pit-trial","244","1239057","0.0-196.0","battery-v0.2","","-1","b","elianto","#3366ff99","-1","-1","1","0","","0","3","","","","","","","5ee95e0e8737a0304baac70a&order=2&STUDY_ID=61bb98616f28aedf5237274a","192","6","2","win","no-go","1"
"pit-trial","245","1243912","0.0-197.0","battery-v0.2","","-1","t","elianto","#f73b6a7A","-1","-1","1","0","2869.2000000001863","1","3","","","","","","","5ee95e0e8737a0304baac70a&order=2&STUDY_ID=61bb98616f28aedf5237274a","193","7","4","lose","no-go","0"
"pit-trial","246","1248769","0.0-198.0","battery-v0.2","","-1","b","elianto","#3366ff99","-1","-1","1","+10","","0","3","","","","","","","5ee95e0e8737a0304baac70a&order=2&STUDY_ID=61bb98616f28aedf5237274a","194","6","2","win","no-go","0"
"pit-trial","247","1253625","0.0-199.0","battery-v0.2","","-1","c","elianto","#f73b6a7A","32","-1","0","-10","","0","3","","","","","","","5ee95e0e8737a0304baac70a&order=2&STUDY_ID=61bb98616f28aedf5237274a","195","5","3","lose","go","0"
"pit-trial","248","1258480","0.0-200.0","battery-v0.2","","-1","z","elianto","#f73b6a7A","-1","-1","1","-10","","0","3","","","","","","","5ee95e0e8737a0304baac70a&order=2&STUDY_ID=61bb98616f28aedf5237274a","196","4","4","lose","no-go","1"
"pit-trial","249","1263339","0.0-201.0","battery-v0.2","","-1","c","elianto","#f73b6a7A","32","-1","0","-10","","0","3","","","","","","","5ee95e0e8737a0304baac70a&order=2&STUDY_ID=61bb98616f28aedf5237274a","197","5","3","lose","go","0"
"pit-trial","250","1267444","0.0-202.0","battery-v0.2","","1249.5","t","elianto","#f73b6a7A","-1","32","0","-10","2099.7000000001863","1","3","","","","","","","5ee95e0e8737a0304baac70a&order=2&STUDY_ID=61bb98616f28aedf5237274a","198","7","4","lose","no-go","0"
"pit-trial","251","1272303","0.0-203.0","battery-v0.2","","-1","b","elianto","#3366ff99","-1","-1","1","+10","","0","3","","","","","","","5ee95e0e8737a0304baac70a&order=2&STUDY_ID=61bb98616f28aedf5237274a","199","6","2","win","no-go","0"
"pit-trial","252","1277159","0.0-204.0","battery-v0.2","","-1","z","elianto","#f73b6a7A","-1","-1","1","-10","3632","1","3","","","","","","","5ee95e0e8737a0304baac70a&order=2&STUDY_ID=61bb98616f28aedf5237274a","200","4","4","lose","no-go","1"
"pit-trial","253","1282012","0.0-205.0","battery-v0.2","","-1","c","elianto","#f73b6a7A","32","-1","0","-10","","0","3","","","","","","","5ee95e0e8737a0304baac70a&order=2&STUDY_ID=61bb98616f28aedf5237274a","201","5","3","lose","go","0"
"pit-trial","254","1286872","0.0-206.0","battery-v0.2","","-1","t","elianto","#f73b6a7A","-1","-1","1","0","","0","3","","","","","","","5ee95e0e8737a0304baac70a&order=2&STUDY_ID=61bb98616f28aedf5237274a","202","7","4","lose","no-go","0"
"pit-trial","255","1291729","0.0-207.0","battery-v0.2","","-1","z","elianto","#f73b6a7A","-1","-1","1","0","","0","3","","","","","","","5ee95e0e8737a0304baac70a&order=2&STUDY_ID=61bb98616f28aedf5237274a","203","4","4","lose","no-go","0"
"pit-trial","256","1296588","0.0-208.0","battery-v0.2","","-1","b","elianto","#3366ff99","-1","-1","1","+10","","0","3","","","","","","","5ee95e0e8737a0304baac70a&order=2&STUDY_ID=61bb98616f28aedf5237274a","204","6","2","win","no-go","0"
"pit-trial","257","1301444","0.0-209.0","battery-v0.2","","-1","c","elianto","#f73b6a7A","32","-1","0","0","","0","3","","","","","","","5ee95e0e8737a0304baac70a&order=2&STUDY_ID=61bb98616f28aedf5237274a","205","5","3","lose","go","1"
"pit-trial","258","1306300","0.0-210.0","battery-v0.2","","-1","b","elianto","#3366ff99","-1","-1","1","0","","0","3","","","","","","","5ee95e0e8737a0304baac70a&order=2&STUDY_ID=61bb98616f28aedf5237274a","206","6","2","win","no-go","1"
"pit-trial","259","1311158","0.0-211.0","battery-v0.2","","-1","z","elianto","#f73b6a7A","-1","-1","1","0","","0","3","","","","","","","5ee95e0e8737a0304baac70a&order=2&STUDY_ID=61bb98616f28aedf5237274a","207","4","4","lose","no-go","0"
"pit-trial","260","1316013","0.0-212.0","battery-v0.2","","-1","t","elianto","#f73b6a7A","-1","-1","1","0","","0","3","","","","","","","5ee95e0e8737a0304baac70a&order=2&STUDY_ID=61bb98616f28aedf5237274a","208","7","4","lose","no-go","0"
"pit-trial","261","1320871","0.0-213.0","battery-v0.2","","-1","z","elianto","#f73b6a7A","-1","-1","1","0","","0","3","","","","","","","5ee95e0e8737a0304baac70a&order=2&STUDY_ID=61bb98616f28aedf5237274a","209","4","4","lose","no-go","0"
"pit-trial","262","1325728","0.0-214.0","battery-v0.2","","-1","t","elianto","#f73b6a7A","-1","-1","1","0","","0","3","","","","","","","5ee95e0e8737a0304baac70a&order=2&STUDY_ID=61bb98616f28aedf5237274a","210","7","4","lose","no-go","0"
"pit-trial","263","1330584","0.0-215.0","battery-v0.2","","-1","b","elianto","#3366ff99","-1","-1","1","+10","","0","3","","","","","","","5ee95e0e8737a0304baac70a&order=2&STUDY_ID=61bb98616f28aedf5237274a","211","6","2","win","no-go","0"
"pit-trial","264","1335442","0.0-216.0","battery-v0.2","","-1","c","elianto","#f73b6a7A","32","-1","0","-10","","0","3","","","","","","","5ee95e0e8737a0304baac70a&order=2&STUDY_ID=61bb98616f28aedf5237274a","212","5","3","lose","go","0"
"pit-trial","265","1340297","0.0-217.0","battery-v0.2","","-1","x","elianto","#f73b6a7A","-1","-1","1","0","","0","3","","","","","","","5ee95e0e8737a0304baac70a&order=2&STUDY_ID=61bb98616f28aedf5237274a","213","8","4","lose","no-go","0"
"pit-trial","266","1345156","0.0-218.0","battery-v0.2","","-1","t","elianto","#f73b6a7A","-1","-1","1","0","","0","3","","","","","","","5ee95e0e8737a0304baac70a&order=2&STUDY_ID=61bb98616f28aedf5237274a","214","7","4","lose","no-go","0"
"pit-trial","267","1350010","0.0-219.0","battery-v0.2","","-1","c","elianto","#f73b6a7A","32","-1","0","0","","0","3","","","","","","","5ee95e0e8737a0304baac70a&order=2&STUDY_ID=61bb98616f28aedf5237274a","215","5","3","lose","go","1"
"pit-trial","268","1354864","0.0-220.0","battery-v0.2","","-1","b","elianto","#3366ff99","-1","-1","1","+10","","0","3","","","","","","","5ee95e0e8737a0304baac70a&order=2&STUDY_ID=61bb98616f28aedf5237274a","216","6","2","win","no-go","0"
"pit-trial","269","1359716","0.0-221.0","battery-v0.2","","-1","x","elianto","#f73b6a7A","-1","-1","1","-10","","0","3","","","","","","","5ee95e0e8737a0304baac70a&order=2&STUDY_ID=61bb98616f28aedf5237274a","217","8","4","lose","no-go","1"
"pit-trial","270","1364571","0.0-222.0","battery-v0.2","","-1","b","elianto","#3366ff99","-1","-1","1","+10","","0","3","","","","","","","5ee95e0e8737a0304baac70a&order=2&STUDY_ID=61bb98616f28aedf5237274a","218","6","2","win","no-go","0"
"pit-trial","271","1369428","0.0-223.0","battery-v0.2","","-1","t","elianto","#f73b6a7A","-1","-1","1","0","","0","3","","","","","","","5ee95e0e8737a0304baac70a&order=2&STUDY_ID=61bb98616f28aedf5237274a","219","7","4","lose","no-go","0"
"pit-trial","272","1374282","0.0-224.0","battery-v0.2","","-1","c","elianto","#f73b6a7A","32","-1","0","-10","","0","3","","","","","","","5ee95e0e8737a0304baac70a&order=2&STUDY_ID=61bb98616f28aedf5237274a","220","5","3","lose","go","0"
"pit-trial","273","1379140","0.0-225.0","battery-v0.2","","-1","f","elianto","#3366ff99","32","-1","0","0","","0","3","","","","","","","5ee95e0e8737a0304baac70a&order=2&STUDY_ID=61bb98616f28aedf5237274a","221","9","1","win","go","0"
"pit-trial","274","1383997","0.0-226.0","battery-v0.2","","-1","b","elianto","#3366ff99","-1","-1","1","+10","","0","3","","","","","","","5ee95e0e8737a0304baac70a&order=2&STUDY_ID=61bb98616f28aedf5237274a","222","6","2","win","no-go","0"
"pit-trial","275","1388853","0.0-227.0","battery-v0.2","","-1","x","elianto","#f73b6a7A","-1","-1","1","-10","","0","3","","","","","","","5ee95e0e8737a0304baac70a&order=2&STUDY_ID=61bb98616f28aedf5237274a","223","8","4","lose","no-go","1"
"pit-trial","276","1393710","0.0-228.0","battery-v0.2","","-1","n","elianto","#f73b6a7A","32","-1","0","0","","0","3","","","","","","","5ee95e0e8737a0304baac70a&order=2&STUDY_ID=61bb98616f28aedf5237274a","224","10","3","lose","go","1"
"pit-trial","277","1398566","0.0-229.0","battery-v0.2","","-1","f","elianto","#3366ff99","32","-1","0","0","","0","3","","","","","","","5ee95e0e8737a0304baac70a&order=2&STUDY_ID=61bb98616f28aedf5237274a","225","9","1","win","go","0"
"pit-trial","278","1403424","0.0-230.0","battery-v0.2","","-1","b","elianto","#3366ff99","-1","-1","1","+10","","0","3","","","","","","","5ee95e0e8737a0304baac70a&order=2&STUDY_ID=61bb98616f28aedf5237274a","226","6","2","win","no-go","0"
"pit-trial","279","1408279","0.0-231.0","battery-v0.2","","-1","n","elianto","#f73b6a7A","32","-1","0","-10","","0","3","","","","","","","5ee95e0e8737a0304baac70a&order=2&STUDY_ID=61bb98616f28aedf5237274a","227","10","3","lose","go","0"
"pit-trial","280","1413137","0.0-232.0","battery-v0.2","","-1","x","elianto","#f73b6a7A","-1","-1","1","0","","0","3","","","","","","","5ee95e0e8737a0304baac70a&order=2&STUDY_ID=61bb98616f28aedf5237274a","228","8","4","lose","no-go","0"
"pit-trial","281","1417994","0.0-233.0","battery-v0.2","","-1","x","elianto","#f73b6a7A","-1","-1","1","0","","0","3","","","","","","","5ee95e0e8737a0304baac70a&order=2&STUDY_ID=61bb98616f28aedf5237274a","229","8","4","lose","no-go","0"
"pit-trial","282","1422850","0.0-234.0","battery-v0.2","","-1","q","elianto","#3366ff99","32","-1","0","0","","0","3","","","","","","","5ee95e0e8737a0304baac70a&order=2&STUDY_ID=61bb98616f28aedf5237274a","230","11","1","win","go","0"
"pit-trial","283","1427705","0.0-235.0","battery-v0.2","","-1","f","elianto","#3366ff99","32","-1","0","0","","0","3","","","","","","","5ee95e0e8737a0304baac70a&order=2&STUDY_ID=61bb98616f28aedf5237274a","231","9","1","win","go","0"
"pit-trial","284","1432564","0.0-236.0","battery-v0.2","","-1","n","elianto","#f73b6a7A","32","-1","0","0","","0","3","","","","","","","5ee95e0e8737a0304baac70a&order=2&STUDY_ID=61bb98616f28aedf5237274a","232","10","3","lose","go","1"
"pit-trial","285","1437418","0.0-237.0","battery-v0.2","","-1","f","elianto","#3366ff99","32","-1","0","0","","0","3","","","","","","","5ee95e0e8737a0304baac70a&order=2&STUDY_ID=61bb98616f28aedf5237274a","233","9","1","win","go","0"
"pit-trial","286","1442276","0.0-238.0","battery-v0.2","","-1","q","elianto","#3366ff99","32","-1","0","0","","0","3","","","","","","","5ee95e0e8737a0304baac70a&order=2&STUDY_ID=61bb98616f28aedf5237274a","234","11","1","win","go","0"
"pit-trial","287","1447134","0.0-239.0","battery-v0.2","","-1","n","elianto","#f73b6a7A","32","-1","0","-10","","0","3","","","","","","","5ee95e0e8737a0304baac70a&order=2&STUDY_ID=61bb98616f28aedf5237274a","235","10","3","lose","go","0"
"pit-trial","288","1451988","0.0-240.0","battery-v0.2","","-1","x","elianto","#f73b6a7A","-1","-1","1","0","","0","3","","","","","","","5ee95e0e8737a0304baac70a&order=2&STUDY_ID=61bb98616f28aedf5237274a","236","8","4","lose","no-go","0"
"pit-trial","289","1456843","0.0-241.0","battery-v0.2","","-1","n","elianto","#f73b6a7A","32","-1","0","0","","0","3","","","","","","","5ee95e0e8737a0304baac70a&order=2&STUDY_ID=61bb98616f28aedf5237274a","237","10","3","lose","go","1"
"pit-trial","290","1461698","0.0-242.0","battery-v0.2","","-1","q","elianto","#3366ff99","32","-1","0","0","","0","3","","","","","","","5ee95e0e8737a0304baac70a&order=2&STUDY_ID=61bb98616f28aedf5237274a","238","11","1","win","go","0"
"pit-trial","291","1466556","0.0-243.0","battery-v0.2","","-1","f","elianto","#3366ff99","32","-1","0","0","","0","3","","","","","","","5ee95e0e8737a0304baac70a&order=2&STUDY_ID=61bb98616f28aedf5237274a","239","9","1","win","go","0"
"pit-trial","292","1471408","0.0-244.0","battery-v0.2","","-1","x","elianto","#f73b6a7A","-1","-1","1","0","","0","3","","","","","","","5ee95e0e8737a0304baac70a&order=2&STUDY_ID=61bb98616f28aedf5237274a","240","8","4","lose","no-go","0"
"pit-trial","293","1476266","0.0-245.0","battery-v0.2","","-1","q","elianto","#3366ff99","32","-1","0","0","","0","3","","","","","","","5ee95e0e8737a0304baac70a&order=2&STUDY_ID=61bb98616f28aedf5237274a","241","11","1","win","go","0"
"pit-trial","294","1481127","0.0-246.0","battery-v0.2","","-1","n","elianto","#f73b6a7A","32","-1","0","-10","","0","3","","","","","","","5ee95e0e8737a0304baac70a&order=2&STUDY_ID=61bb98616f28aedf5237274a","242","10","3","lose","go","0"
"pit-trial","295","1485979","0.0-247.0","battery-v0.2","","-1","f","elianto","#3366ff99","32","-1","0","0","","0","3","","","","","","","5ee95e0e8737a0304baac70a&order=2&STUDY_ID=61bb98616f28aedf5237274a","243","9","1","win","go","0"
"pit-trial","296","1490837","0.0-248.0","battery-v0.2","","-1","x","elianto","#f73b6a7A","-1","-1","1","-10","","0","3","","","","","","","5ee95e0e8737a0304baac70a&order=2&STUDY_ID=61bb98616f28aedf5237274a","244","8","4","lose","no-go","1"
"pit-trial","297","1495693","0.0-249.0","battery-v0.2","","-1","x","elianto","#f73b6a7A","-1","-1","1","0","","0","3","","","","","","","5ee95e0e8737a0304baac70a&order=2&STUDY_ID=61bb98616f28aedf5237274a","245","8","4","lose","no-go","0"
"pit-trial","298","1500551","0.0-250.0","battery-v0.2","","-1","q","elianto","#3366ff99","32","-1","0","0","","0","3","","","","","","","5ee95e0e8737a0304baac70a&order=2&STUDY_ID=61bb98616f28aedf5237274a","246","11","1","win","go","0"
"pit-trial","299","1505408","0.0-251.0","battery-v0.2","","-1","f","elianto","#3366ff99","32","-1","0","0","","0","3","","","","","","","5ee95e0e8737a0304baac70a&order=2&STUDY_ID=61bb98616f28aedf5237274a","247","9","1","win","go","0"
"pit-trial","300","1510262","0.0-252.0","battery-v0.2","","-1","n","elianto","#f73b6a7A","32","-1","0","-10","","0","3","","","","","","","5ee95e0e8737a0304baac70a&order=2&STUDY_ID=61bb98616f28aedf5237274a","248","10","3","lose","go","0"
"pit-trial","301","1515119","0.0-253.0","battery-v0.2","","-1","f","elianto","#3366ff99","32","-1","0","0","","0","3","","","","","","","5ee95e0e8737a0304baac70a&order=2&STUDY_ID=61bb98616f28aedf5237274a","249","9","1","win","go","0"
"pit-trial","302","1519976","0.0-254.0","battery-v0.2","","-1","n","elianto","#f73b6a7A","32","-1","0","-10","","0","3","","","","","","","5ee95e0e8737a0304baac70a&order=2&STUDY_ID=61bb98616f28aedf5237274a","250","10","3","lose","go","0"
"pit-trial","303","1524833","0.0-255.0","battery-v0.2","","-1","x","elianto","#f73b6a7A","-1","-1","1","-10","","0","3","","","","","","","5ee95e0e8737a0304baac70a&order=2&STUDY_ID=61bb98616f28aedf5237274a","251","8","4","lose","no-go","1"
"pit-trial","304","1529690","0.0-256.0","battery-v0.2","","-1","q","elianto","#3366ff99","32","-1","0","0","","0","3","","","","","","","5ee95e0e8737a0304baac70a&order=2&STUDY_ID=61bb98616f28aedf5237274a","252","11","1","win","go","0"
"pit-trial","305","1534544","0.0-257.0","battery-v0.2","","-1","q","elianto","#3366ff99","32","-1","0","0","","0","3","","","","","","","5ee95e0e8737a0304baac70a&order=2&STUDY_ID=61bb98616f28aedf5237274a","253","11","1","win","go","0"
"pit-trial","306","1539403","0.0-258.0","battery-v0.2","","-1","n","elianto","#f73b6a7A","32","-1","0","-10","","0","3","","","","","","","5ee95e0e8737a0304baac70a&order=2&STUDY_ID=61bb98616f28aedf5237274a","254","10","3","lose","go","0"
"pit-trial","307","1544262","0.0-259.0","battery-v0.2","","-1","f","elianto","#3366ff99","32","-1","0","0","","0","3","","","","","","","5ee95e0e8737a0304baac70a&order=2&STUDY_ID=61bb98616f28aedf5237274a","255","9","1","win","go","0"
"pit-trial","308","1549119","0.0-260.0","battery-v0.2","","-1","x","elianto","#f73b6a7A","-1","-1","1","0","","0","3","","","","","","","5ee95e0e8737a0304baac70a&order=2&STUDY_ID=61bb98616f28aedf5237274a","256","8","4","lose","no-go","0"
"pit-trial","309","1553975","0.0-261.0","battery-v0.2","","-1","x","elianto","#f73b6a7A","-1","-1","1","0","","0","3","","","","","","","5ee95e0e8737a0304baac70a&order=2&STUDY_ID=61bb98616f28aedf5237274a","257","8","4","lose","no-go","0"
"pit-trial","310","1558832","0.0-262.0","battery-v0.2","","-1","n","elianto","#f73b6a7A","32","-1","0","-10","","0","3","","","","","","","5ee95e0e8737a0304baac70a&order=2&STUDY_ID=61bb98616f28aedf5237274a","258","10","3","lose","go","0"
"pit-trial","311","1563687","0.0-263.0","battery-v0.2","","-1","q","elianto","#3366ff99","32","-1","0","0","","0","3","","","","","","","5ee95e0e8737a0304baac70a&order=2&STUDY_ID=61bb98616f28aedf5237274a","259","11","1","win","go","0"
"pit-trial","312","1568546","0.0-264.0","battery-v0.2","","-1","f","elianto","#3366ff99","32","-1","0","+10","","0","3","","","","","","","5ee95e0e8737a0304baac70a&order=2&STUDY_ID=61bb98616f28aedf5237274a","260","9","1","win","go","1"
