"trial_type","trial_index","time_elapsed","internal_node_id","task_version","success","view_history","rt","responses","num_errors","age","subject","participantId","rune","rune_set","hex","correct","choice","accuracy","outcome","keys","total_keys","block","practice","value","sub","trial","stimulus","robot","valence","action","sham","browser_interactions"
"pavlovia","0","7","0.0-0.0","battery-v0.2","","","","","","","","","","","","","","","","","","","","","","","","","","","",""
"fullscreen","1","3493","0.0-1.0","battery-v0.2","true","","","","","","","","","","","","","","","","","","","","","","","","","","",""
"pit-instructions","2","7514","0.0-2.0-0.0","battery-v0.2","","[{""page_index"":0,""viewing_time"":4005}]","4006","","","","","","","","","","","","","","","","","","","","","","","","",""
"pit-comprehension","3","11714","0.0-2.0-1.0-0.0","battery-v0.2","","","3957","[""shark""]","0","16","895","628","","","","","","","","","","","","","","","","","","","",""
"pit-instructions","4","13259","0.0-2.0-1.0-1.0","battery-v0.2","","[{""page_index"":0,""viewing_time"":1541}]","1541","","","","","","","","","","","","","","","","","","","","","","","","",""
"pit-comprehension","5","18024","0.0-2.0-2.0-0.0","battery-v0.2","","","4762","[""tiger""]","0","16","895","628","","","","","","","","","","","","","","","","","","","",""
"pit-instructions","6","19353","0.0-2.0-2.0-1.0","battery-v0.2","","[{""page_index"":0,""viewing_time"":1325}]","1326","","","","","","","","","","","","","","","","","","","","","","","","",""
"pit-instructions","7","118084","0.0-2.0-3.0","battery-v0.2","","[{""page_index"":0,""viewing_time"":8956},{""page_index"":1,""viewing_time"":6238},{""page_index"":2,""viewing_time"":6190},{""page_index"":3,""viewing_time"":5597},{""page_index"":4,""viewing_time"":6114},{""page_index"":5,""viewing_time"":5637},{""page_index"":6,""viewing_time"":6830},{""page_index"":7,""viewing_time"":6690},{""page_index"":8,""viewing_time"":6911},{""page_index"":9,""viewing_time"":9215},{""page_index"":10,""viewing_time"":7824},{""page_index"":11,""viewing_time"":9739.000000000015},{""page_index"":12,""viewing_time"":7168.999999999985},{""page_index"":13,""viewing_time"":5618}]","98728","","","","","","","","","","","","","","","","","","","","","","","","",""
"pit-trial","8","121642","0.0-2.0-4.0-0.0","battery-v0.2","","","701.0000000000146","","","16","895","628","&#9784;","elianto","#FFFFF080"," "," ","1","&#10004","[1552]","1","0","0","","","","","","","","",""
"pit-trial","9","125185","0.0-2.0-4.1-0.1","battery-v0.2","","","683.9999999999854","","","16","895","628","&#9784;","elianto","#FFFFF080"," "," ","1","&#10004","[1534]","1","0","0","","","","","","","","",""
"pit-trial","10","128694","0.0-2.0-4.2-0.2","battery-v0.2","","","649","","","16","895","628","&#9784;","elianto","#FFFFF080"," "," ","1","&#10004","[1500]","1","0","0","","","","","","","","",""
"pit-trial","11","131982","0.0-2.0-4.3-0.3","battery-v0.2","","","429.0000000000291","","","16","895","628","&#9784;","elianto","#FFFFF080"," "," ","1","&#10004","[1280.0000000000146]","1","0","0","","","","","","","","",""
"pit-trial","12","135250","0.0-2.0-4.4-0.4","battery-v0.2","","","410.0000000000291","","","16","895","628","&#9784;","elianto","#FFFFF080"," "," ","1","&#10004","[1261.000000000029]","1","0","0","","","","","","","","",""
"pit-instructions","13","157107","0.0-2.0-5.0","battery-v0.2","","[{""page_index"":0,""viewing_time"":5166},{""page_index"":1,""viewing_time"":5371},{""page_index"":2,""viewing_time"":4799},{""page_index"":3,""viewing_time"":6510}]","21846","","","","","","","","","","","","","","","","","","","","","","","","",""
"pit-trial","14","161966","0.0-2.0-6.0-0.0","battery-v0.2","","","-1","","","16","895","628","&#9854;","elianto","#FFFFF080","-1","-1","1","&#10004","[]","0","0","1","","","","","","","","",""
"pit-trial","15","166826","0.0-2.0-6.1-0.1","battery-v0.2","","","-1","","","16","895","628","&#9854;","elianto","#FFFFF080","-1","-1","1","&#10004","[]","0","0","1","","","","","","","","",""
"pit-trial","16","171683","0.0-2.0-6.2-0.2","battery-v0.2","","","-1","","","16","895","628","&#9854;","elianto","#FFFFF080","-1","-1","1","&#10004","[]","0","0","1","","","","","","","","",""
"pit-trial","17","176541","0.0-2.0-6.3-0.3","battery-v0.2","","","-1","","","16","895","628","&#9854;","elianto","#FFFFF080","-1","-1","1","&#10004","[]","0","0","1","","","","","","","","",""
"pit-trial","18","181402","0.0-2.0-6.4-0.4","battery-v0.2","","","-1","","","16","895","628","&#9854;","elianto","#FFFFF080","-1","-1","1","&#10004","[]","0","0","1","","","","","","","","",""
"pit-instructions","19","295803","0.0-2.0-7.0","battery-v0.2","","[{""page_index"":0,""viewing_time"":6068},{""page_index"":1,""viewing_time"":6837},{""page_index"":2,""viewing_time"":5841},{""page_index"":3,""viewing_time"":5798},{""page_index"":4,""viewing_time"":5909},{""page_index"":5,""viewing_time"":5211},{""page_index"":6,""viewing_time"":5164},{""page_index"":7,""viewing_time"":8989},{""page_index"":8,""viewing_time"":7305},{""page_index"":9,""viewing_time"":6054},{""page_index"":10,""viewing_time"":6090},{""page_index"":11,""viewing_time"":4916},{""page_index"":12,""viewing_time"":6662},{""page_index"":13,""viewing_time"":6991.000000000058},{""page_index"":14,""viewing_time"":6983.999999999942},{""page_index"":15,""viewing_time"":6065},{""page_index"":16,""viewing_time"":6172},{""page_index"":17,""viewing_time"":7351.000000000058}]","114408","","","","","","","","","","","","","","","","","","","","","","","","",""
"pit-trial","20","299201","0.0-2.0-8.0-0.0","battery-v0.2","","","540","","","16","895","628","&#9776;","elianto","#3366ff99"," "," ","1","+10","[1391]","1","0","1","","","","","","","","",""
"pit-trial","21","302516","0.0-2.0-8.0-1.0","battery-v0.2","","","457","","","16","895","628","&#9776;","elianto","#3366ff99"," "," ","1","+10","[1307]","1","0","1","","","","","","","","",""
"pit-trial","22","305683","0.0-2.0-8.0-2.0","battery-v0.2","","","309","","","16","895","628","&#9776;","elianto","#3366ff99"," "," ","1","+10","[1160]","1","0","1","","","","","","","","",""
"pit-trial","23","308910","0.0-2.0-8.0-3.0","battery-v0.2","","","371","","","16","895","628","&#9776;","elianto","#3366ff99"," "," ","1","0","[1220]","1","0","1","","","","","","","","",""
"pit-trial","24","312161","0.0-2.0-8.0-4.0","battery-v0.2","","","392","","","16","895","628","&#9776;","elianto","#3366ff99"," "," ","1","+10","[1243]","1","0","1","","","","","","","","",""
"call-function","25","312167","0.0-2.0-9.0","battery-v0.2","","","","","","","","","","","","","","","","","","","","","","","","","","","",""
"pit-instructions","26","357042","0.0-2.0-10.0","battery-v0.2","","[{""page_index"":0,""viewing_time"":5851},{""page_index"":1,""viewing_time"":7534},{""page_index"":2,""viewing_time"":9178},{""page_index"":3,""viewing_time"":9126},{""page_index"":4,""viewing_time"":13184}]","44874","","","","","","","","","","","","","","","","","","","","","","","","",""
"pit-trial","27","360495","0.0-2.0-11.0-0.0","battery-v0.2","","","598","","","16","895","628","&#9761;","elianto","#3366ff99","-1"," ","0","0","[1449]","1","0","2","","","","","","","","",""
"pit-trial","28","365352","0.0-2.0-11.0-1.0","battery-v0.2","","","-1","","","16","895","628","&#9761;","elianto","#3366ff99","-1","-1","1","+10","[]","0","0","2","","","","","","","","",""
"pit-trial","29","370211","0.0-2.0-11.0-2.0","battery-v0.2","","","-1","","","16","895","628","&#9761;","elianto","#3366ff99","-1","-1","1","+10","[]","0","0","2","","","","","","","","",""
"pit-trial","30","375069","0.0-2.0-11.0-3.0","battery-v0.2","","","-1","","","16","895","628","&#9761;","elianto","#3366ff99","-1","-1","1","0","[]","0","0","2","","","","","","","","",""
"pit-trial","31","379927","0.0-2.0-11.0-4.0","battery-v0.2","","","-1","","","16","895","628","&#9761;","elianto","#3366ff99","-1","-1","1","+10","[]","0","0","2","","","","","","","","",""
"call-function","32","379932","0.0-2.0-12.0","battery-v0.2","","","","","","","","","","","","","","","","","","","","","","","","","","","",""
"pit-instructions","33","410770","0.0-2.0-13.0","battery-v0.2","","[{""page_index"":0,""viewing_time"":4911},{""page_index"":1,""viewing_time"":7219.000000000058},{""page_index"":2,""viewing_time"":3770.999999999942},{""page_index"":3,""viewing_time"":10418},{""page_index"":4,""viewing_time"":4517}]","30837","","","","","","","","","","","","","","","","","","","","","","","","",""
"pit-trial","34","414214","0.0-2.0-14.0-0.0","battery-v0.2","","","587.0000000000582","","","16","895","628","&#9826;","elianto","#f73b6a7A","-1"," ","0","-10","[1438.0000000000582]","1","0","3","","","","","","","","",""
"pit-trial","35","419073","0.0-2.0-14.0-1.0","battery-v0.2","","","-1","","","16","895","628","&#9826;","elianto","#f73b6a7A","-1","-1","1","0","[]","0","0","3","","","","","","","","",""
"pit-trial","36","423931","0.0-2.0-14.0-2.0","battery-v0.2","","","-1","","","16","895","628","&#9826;","elianto","#f73b6a7A","-1","-1","1","0","[]","0","0","3","","","","","","","","",""
"pit-trial","37","428789","0.0-2.0-14.0-3.0","battery-v0.2","","","-1","","","16","895","628","&#9826;","elianto","#f73b6a7A","-1","-1","1","-10","[]","0","0","3","","","","","","","","",""
"pit-trial","38","433647","0.0-2.0-14.0-4.0","battery-v0.2","","","-1","","","16","895","628","&#9826;","elianto","#f73b6a7A","-1","-1","1","0","[]","0","0","3","","","","","","","","",""
"call-function","39","433652","0.0-2.0-15.0","battery-v0.2","","","","","","","","","","","","","","","","","","","","","","","","","","","",""
"pit-instructions","40","460146","0.0-2.0-16.0","battery-v0.2","","[{""page_index"":0,""viewing_time"":7325.000000000058},{""page_index"":1,""viewing_time"":9751.999999999942},{""page_index"":2,""viewing_time"":4676},{""page_index"":3,""viewing_time"":4739}]","26493.00000000006","","","","","","","","","","","","","","","","","","","","","","","","",""
"pit-trial","41","463617","0.0-2.0-17.0-0.0","battery-v0.2","","","610.9999999999418","","","16","895","628","&#9789;","elianto","#f73b6a7A"," "," ","1","0","[1461.9999999999418]","1","0","4","","","","","","","","",""
"pit-trial","42","466850","0.0-2.0-17.0-1.0","battery-v0.2","","","373.9999999999418","","","16","895","628","&#9789;","elianto","#f73b6a7A"," "," ","1","0","[1224.9999999999418]","1","0","4","","","","","","","","",""
"pit-trial","43","470214","0.0-2.0-17.0-2.0","battery-v0.2","","","507","","","16","895","628","&#9789;","elianto","#f73b6a7A"," "," ","1","0","[1358]","1","0","4","","","","","","","","",""
"pit-trial","44","473834","0.0-2.0-17.0-3.0","battery-v0.2","","","763","","","16","895","628","&#9789;","elianto","#f73b6a7A"," "," ","1","-10","[1614]","1","0","4","","","","","","","","",""
"pit-trial","45","477117","0.0-2.0-17.0-4.0","battery-v0.2","","","424","","","16","895","628","&#9789;","elianto","#f73b6a7A"," "," ","1","0","[1275]","1","0","4","","","","","","","","",""
"call-function","46","477122","0.0-2.0-18.0","battery-v0.2","","","","","","","","","","","","","","","","","","","","","","","","","","","",""
"pit-instructions","47","551874","0.0-2.0-19.0","battery-v0.2","","[{""page_index"":0,""viewing_time"":7880.999999999942},{""page_index"":1,""viewing_time"":6444},{""page_index"":2,""viewing_time"":14119},{""page_index"":3,""viewing_time"":7775},{""page_index"":4,""viewing_time"":8989},{""page_index"":5,""viewing_time"":8501},{""page_index"":6,""viewing_time"":9301},{""page_index"":7,""viewing_time"":7222},{""page_index"":8,""viewing_time"":4519}]","74750.99999999994","","","","","","","","","","","","","","","","","","","","","","","","",""
"pit-comprehension","48","558815","0.0-2.0-20.0-0.0","battery-v0.2","","","6934","[""SPACE""]","0","16","895","628","","","","","","","","","","","","","","","","","","","",""
"pit-instructions","49","561761","0.0-2.0-20.0-1.0","battery-v0.2","","[{""page_index"":0,""viewing_time"":2922}]","2923","","","","","","","","","","","","","","","","","","","","","","","","",""
"pit-comprehension","50","568248","0.0-2.0-21.0-0.0","battery-v0.2","","","6481","[""10""]","0","16","895","628","","","","","","","","","","","","","","","","","","","",""
"pit-instructions","51","569980","0.0-2.0-21.0-1.0","battery-v0.2","","[{""page_index"":0,""viewing_time"":1714.9999999998836}]","1714.9999999998836","","","","","","","","","","","","","","","","","","","","","","","","",""
"pit-comprehension","52","576739","0.0-2.0-22.0-0.0","battery-v0.2","","","6747","[""0""]","0","16","895","628","","","","","","","","","","","","","","","","","","","",""
"pit-instructions","53","578142","0.0-2.0-22.0-1.0","battery-v0.2","","[{""page_index"":0,""viewing_time"":1373}]","1374","","","","","","","","","","","","","","","","","","","","","","","","",""
"pit-comprehension","54","586732","0.0-2.0-23.0-0.0","battery-v0.2","","","8583","[""True""]","0","16","895","628","","","","","","","","","","","","","","","","","","","",""
"pit-instructions","55","588207","0.0-2.0-23.0-1.0","battery-v0.2","","[{""page_index"":0,""viewing_time"":1455}]","1455","","","","","","","","","","","","","","","","","","","","","","","","",""
"pit-comprehension","56","595644","0.0-2.0-24.0-0.0","battery-v0.2","","","7433","[""True""]","0","16","895","628","","","","","","","","","","","","","","","","","","","",""
"pit-instructions","57","597041","0.0-2.0-24.0-1.0","battery-v0.2","","[{""page_index"":0,""viewing_time"":1376.9999999998836}]","1377.9999999998836","","","","","","","","","","","","","","","","","","","","","","","","",""
"pit-comprehension","58","603461","0.0-2.0-25.0-0.0","battery-v0.2","","","6416","[""True""]","0","16","895","628","","","","","","","","","","","","","","","","","","","",""
"pit-instructions","59","605015","0.0-2.0-25.0-1.0","battery-v0.2","","[{""page_index"":0,""viewing_time"":1533.0000000001164}]","1533.0000000001164","","","","","","","","","","","","","","","","","","","","","","","","",""
"pit-comprehension","60","611005","0.0-2.0-26.0-0.0","battery-v0.2","","","5978","[""False""]","0","16","895","628","","","","","","","","","","","","","","","","","","","",""
"pit-instructions","61","612419","0.0-2.0-26.0-1.0","battery-v0.2","","[{""page_index"":0,""viewing_time"":1393.0000000001164}]","1394","","","","","","","","","","","","","","","","","","","","","","","","",""
"pit-instructions","62","629539","0.0-3.0","battery-v0.2","","[{""page_index"":0,""viewing_time"":3803},{""page_index"":1,""viewing_time"":5747},{""page_index"":2,""viewing_time"":7565.000000000116}]","17116","","","","","","","","","","","","","","","","","","","","","","","","",""
"pit-trial","63","632913","0.0-4.0","battery-v0.2","","","517","","","16","895","628","&#9733;","elianto","#3366ff99","-1"," ","0","0","[1367]","1","1","","","895","1","2","2","win","no-go","0","[]"
"pit-trial","64","636313","0.0-5.0","battery-v0.2","","","540.9999999998836","","","16","895","628","&#9752;","elianto","#f73b6a7A"," "," ","1","0","[1391.9999999998836]","1","1","","","895","2","3","3","lose","go","0","0"
"pit-trial","65","639747","0.0-6.0","battery-v0.2","","","575","","","16","895","628","&#9728;","elianto","#f73b6a7A","-1"," ","0","-10","[1426]","1","1","","","895","3","0","4","lose","no-go","0","0"
"pit-trial","66","644608","0.0-7.0","battery-v0.2","","","-1","","","16","895","628","&#9730;","elianto","#3366ff99"," ","-1","0","0","[]","0","1","","","895","4","1","1","win","go","0","0"
"pit-trial","67","648026","0.0-8.0","battery-v0.2","","","556.9999999998836","","","16","895","628","&#9733;","elianto","#3366ff99","-1"," ","0","0","[1407]","1","1","","","895","5","2","2","win","no-go","0","0"
"pit-trial","68","652827","0.0-9.0","battery-v0.2","","","1940.9999999998836","","","16","895","628","&#9728;","elianto","#f73b6a7A","-1"," ","0","-10","[2791]","1","1","","","895","6","0","4","lose","no-go","0","0"
"pit-trial","69","657688","0.0-10.0","battery-v0.2","","","-1","","","16","895","628","&#9730;","elianto","#3366ff99"," ","-1","0","0","[]","0","1","","","895","7","1","1","win","go","0","0"
"pit-trial","70","662548","0.0-11.0","battery-v0.2","","","-1","","","16","895","628","&#9752;","elianto","#f73b6a7A"," ","-1","0","-10","[]","0","1","","","895","8","3","3","lose","go","0","0"
"pit-trial","71","667410","0.0-12.0","battery-v0.2","","","-1","","","16","895","628","&#9752;","elianto","#f73b6a7A"," ","-1","0","-10","[3085]","1","1","","","895","9","3","3","lose","go","0","0"
"pit-trial","72","671145","0.0-13.0","battery-v0.2","","","874","","","16","895","628","&#9728;","elianto","#f73b6a7A","-1"," ","0","-10","[1725]","1","1","","","895","10","0","4","lose","no-go","0","0"
"pit-trial","73","674839","0.0-14.0","battery-v0.2","","","831.0000000001164","","","16","895","628","&#9733;","elianto","#3366ff99","-1"," ","0","0","[1682.0000000001164]","1","1","","","895","11","2","2","win","no-go","0","0"
"pit-trial","74","679088","0.0-15.0","battery-v0.2","","","1384","","","16","895","628","&#9730;","elianto","#3366ff99"," "," ","1","+10","[2237]","1","1","","","895","12","1","1","win","go","0","0"
"pit-trial","75","683382","0.0-16.0","battery-v0.2","","","1431","","","16","895","628","&#9730;","elianto","#3366ff99"," "," ","1","0","[2282.9999999998836]","1","1","","","895","13","1","1","win","go","1","0"
"pit-trial","76","687608","0.0-17.0","battery-v0.2","","","1364.9999999998836","","","16","895","628","&#9733;","elianto","#3366ff99","-1"," ","0","0","[2215]","1","1","","","895","14","2","2","win","no-go","0","0"
"pit-trial","77","692468","0.0-18.0","battery-v0.2","","","-1","","","16","895","628","&#9728;","elianto","#f73b6a7A","-1","-1","1","0","[]","0","1","","","895","15","0","4","lose","no-go","0","0"
"pit-trial","78","696613","0.0-19.0","battery-v0.2","","","1285","","","16","895","628","&#9752;","elianto","#f73b6a7A"," "," ","1","0","[2135]","1","1","","","895","16","3","3","lose","go","0","0"
"pit-trial","79","701184","0.0-20.0","battery-v0.2","","","1710","","","16","895","628","&#9730;","elianto","#3366ff99"," "," ","1","+10","[2561]","1","1","","","895","17","1","1","win","go","0","0"
"pit-trial","80","706046","0.0-21.0","battery-v0.2","","","-1","","","16","895","628","&#9733;","elianto","#3366ff99","-1","-1","1","+10","[]","0","1","","","895","18","2","2","win","no-go","0","0"
"pit-trial","81","710907","0.0-22.0","battery-v0.2","","","-1","","","16","895","628","&#9728;","elianto","#f73b6a7A","-1","-1","1","0","[]","0","1","","","895","19","0","4","lose","no-go","0","0"
"pit-trial","82","715768","0.0-23.0","battery-v0.2","","","-1","","","16","895","628","&#9752;","elianto","#f73b6a7A"," ","-1","0","-10","[]","0","1","","","895","20","3","3","lose","go","0","0"
"pit-instructions","83","727562","0.0-24.0","battery-v0.2","","[{""page_index"":0,""viewing_time"":5534},{""page_index"":1,""viewing_time"":6250}]","11785","","","","","","","","","","","","","","","","","","","","","","","","",""
"pit-trial","84","731059","0.0-25.0","battery-v0.2","","","632","","","16","895","628","a","elianto","#3366ff99"," "," ","1","+10","[1483]","1","2","","","895","21","2","1","win","go","0","0"
"pit-trial","85","734713","0.0-26.0","battery-v0.2","","","794.0000000001164","","","16","895","628","l","elianto","#3366ff99","-1"," ","0","0","[1644]","1","2","","","895","22","1","2","win","no-go","0","0"
"pit-trial","86","738719","0.0-27.0","battery-v0.2","","","1145","","","16","895","628","g","elianto","#f73b6a7A"," "," ","1","0","[1995.9999999998836]","1","2","","","895","23","3","3","lose","go","0","0"
"pit-trial","87","742373","0.0-28.0","battery-v0.2","","","792.0000000001164","","","16","895","628","u","elianto","#3366ff99","-1"," ","0","0","[1642]","1","2","","","895","24","0","2","win","no-go","0","0"
"pit-trial","88","747236","0.0-29.0","battery-v0.2","","","-1","","","16","895","628","l","elianto","#3366ff99","-1","-1","1","0","[]","0","2","","","895","25","1","2","win","no-go","1","0"
"pit-trial","89","751425","0.0-30.0","battery-v0.2","","","1329","","","16","895","628","g","elianto","#f73b6a7A"," "," ","1","-10","[2180]","1","2","","","895","26","3","3","lose","go","1","0"
"pit-trial","90","755024","0.0-31.0","battery-v0.2","","","738","","","16","895","628","a","elianto","#3366ff99"," "," ","1","+10","[1589]","1","2","","","895","27","2","1","win","go","0","0"
"pit-trial","91","758639","0.0-32.0","battery-v0.2","","","754","","","16","895","628","u","elianto","#3366ff99","-1"," ","0","0","[1605]","1","2","","","895","28","0","2","win","no-go","0","0"
"pit-trial","92","762273","0.0-33.0","battery-v0.2","","","772","","","16","895","628","a","elianto","#3366ff99"," "," ","1","+10","[1623]","1","2","","","895","29","2","1","win","go","0","0"
"pit-trial","93","767134","0.0-34.0","battery-v0.2","","","-1","","","16","895","628","g","elianto","#f73b6a7A"," ","-1","0","0","[]","0","2","","","895","30","3","3","lose","go","1","0"
"pit-trial","94","771995","0.0-35.0","battery-v0.2","","","-1","","","16","895","628","u","elianto","#3366ff99","-1","-1","1","+10","[]","0","2","","","895","31","0","2","win","no-go","0","0"
"pit-trial","95","775444","0.0-36.0","battery-v0.2","","","588.0000000001164","","","16","895","628","l","elianto","#3366ff99","-1"," ","0","0","[1439.0000000001164]","1","2","","","895","32","1","2","win","no-go","0","0"
"pit-trial","96","780305","0.0-37.0","battery-v0.2","","","-1","","","16","895","628","g","elianto","#f73b6a7A"," ","-1","0","-10","[]","0","2","","","895","33","3","3","lose","go","0","0"
"pit-trial","97","785166","0.0-38.0","battery-v0.2","","","-1","","","16","895","628","l","elianto","#3366ff99","-1","-1","1","+10","[]","0","2","","","895","34","1","2","win","no-go","0","0"
"pit-trial","98","788529","0.0-39.0","battery-v0.2","","","502","","","16","895","628","a","elianto","#3366ff99"," "," ","1","0","[1353]","1","2","","","895","35","2","1","win","go","1","0"
"pit-trial","99","793391","0.0-40.0","battery-v0.2","","","-1","","","16","895","628","u","elianto","#3366ff99","-1","-1","1","+10","[]","0","2","","","895","36","0","2","win","no-go","0","0"
"pit-trial","100","798252","0.0-41.0","battery-v0.2","","","-1","","","16","895","628","g","elianto","#f73b6a7A"," ","-1","0","-10","[]","0","2","","","895","37","3","3","lose","go","0","0"
"pit-trial","101","803113","0.0-42.0","battery-v0.2","","","-1","","","16","895","628","l","elianto","#3366ff99","-1","-1","1","0","[]","0","2","","","895","38","1","2","win","no-go","1","0"
"pit-trial","102","806408","0.0-43.0","battery-v0.2","","","434.9999999998836","","","16","895","628","a","elianto","#3366ff99"," "," ","1","+10","[1285]","1","2","","","895","39","2","1","win","go","0","0"
"pit-trial","103","811271","0.0-44.0","battery-v0.2","","","-1","","","16","895","628","u","elianto","#3366ff99","-1","-1","1","0","[]","0","2","","","895","40","0","2","win","no-go","1","0"
"pit-trial","104","816132","0.0-45.0","battery-v0.2","","","-1","","","16","895","628","g","elianto","#f73b6a7A"," ","-1","0","-10","[]","0","2","","","895","41","3","3","lose","go","0","0"
"pit-trial","105","820995","0.0-46.0","battery-v0.2","","","-1","","","16","895","628","l","elianto","#3366ff99","-1","-1","1","+10","[]","0","2","","","895","42","1","2","win","no-go","0","0"
"pit-trial","106","824442","0.0-47.0","battery-v0.2","","","586","","","16","895","628","a","elianto","#3366ff99"," "," ","1","0","[1437]","1","2","","","895","43","2","1","win","go","1","0"
"pit-trial","107","829303","0.0-48.0","battery-v0.2","","","-1","","","16","895","628","u","elianto","#3366ff99","-1","-1","1","+10","[]","0","2","","","895","44","0","2","win","no-go","0","0"
"pit-trial","108","834164","0.0-49.0","battery-v0.2","","","-1","","","16","895","628","l","elianto","#3366ff99","-1","-1","1","+10","[]","0","2","","","895","45","1","2","win","no-go","0","0"
"pit-trial","109","837590","0.0-50.0","battery-v0.2","","","560","","","16","895","628","g","elianto","#f73b6a7A"," "," ","1","0","[1411]","1","2","","","895","46","3","3","lose","go","0","0"
"pit-trial","110","842452","0.0-51.0","battery-v0.2","","","-1","","","16","895","628","u","elianto","#3366ff99","-1","-1","1","0","[]","0","2","","","895","47","0","2","win","no-go","1","0"
"pit-trial","111","845917","0.0-52.0","battery-v0.2","","","605","","","16","895","628","a","elianto","#3366ff99"," "," ","1","+10","[1455]","1","2","","","895","48","2","1","win","go","0","0"
"pit-trial","112","849383","0.0-53.0","battery-v0.2","","","604","","","16","895","628","a","elianto","#3366ff99"," "," ","1","+10","[1455]","1","2","","","895","49","2","1","win","go","0","0"
"pit-trial","113","853345","0.0-54.0","battery-v0.2","","","1101","","","16","895","628","g","elianto","#f73b6a7A"," "," ","1","-10","[1952]","1","2","","","895","50","3","3","lose","go","1","0"
"pit-trial","114","858206","0.0-55.0","battery-v0.2","","","-1","","","16","895","628","u","elianto","#3366ff99","-1","-1","1","+10","[]","0","2","","","895","51","0","2","win","no-go","0","0"
"pit-trial","115","863068","0.0-56.0","battery-v0.2","","","-1","","","16","895","628","l","elianto","#3366ff99","-1","-1","1","0","[]","0","2","","","895","52","1","2","win","no-go","1","0"
"pit-trial","116","867237","0.0-57.0","battery-v0.2","","","1309","","","16","895","628","s","elianto","#f73b6a7A"," "," ","1","0","[2160]","1","2","","","895","53","5","3","lose","go","0","0"
"pit-trial","117","871194","0.0-58.0","battery-v0.2","","","1097","","","16","895","628","p","elianto","#f73b6a7A","-1"," ","0","-10","[1947]","1","2","","","895","54","4","4","lose","no-go","0","0"
"pit-trial","118","874779","0.0-59.0","battery-v0.2","","","724","","","16","895","628","a","elianto","#3366ff99"," "," ","1","+10","[1575]","1","2","","","895","55","2","1","win","go","0","0"
"pit-trial","119","879640","0.0-60.0","battery-v0.2","","","-1","","","16","895","628","u","elianto","#3366ff99","-1","-1","1","+10","[]","0","2","","","895","56","0","2","win","no-go","0","0"
"pit-trial","120","883292","0.0-61.0","battery-v0.2","","","790","","","16","895","628","a","elianto","#3366ff99"," "," ","1","+10","[1641]","1","2","","","895","57","2","1","win","go","0","0"
"pit-trial","121","888154","0.0-62.0","battery-v0.2","","","-1","","","16","895","628","s","elianto","#f73b6a7A"," ","-1","0","-10","[]","0","2","","","895","58","5","3","lose","go","0","0"
"pit-trial","122","893015","0.0-63.0","battery-v0.2","","","-1","","","16","895","628","p","elianto","#f73b6a7A","-1","-1","1","0","[]","0","2","","","895","59","4","4","lose","no-go","0","0"
"pit-trial","123","897876","0.0-64.0","battery-v0.2","","","-1","","","16","895","628","u","elianto","#3366ff99","-1","-1","1","+10","[]","0","2","","","895","60","0","2","win","no-go","0","0"
"pit-trial","124","901619","0.0-65.0","battery-v0.2","","","881","","","16","895","628","w","elianto","#3366ff99","-1"," ","0","0","[1732]","1","2","","","895","61","6","2","win","no-go","0","0"
"pit-trial","125","905712","0.0-66.0","battery-v0.2","","","1232","","","16","895","628","s","elianto","#f73b6a7A"," "," ","1","0","[2083]","1","2","","","895","62","5","3","lose","go","0","0"
"pit-trial","126","909163","0.0-67.0","battery-v0.2","","","591","","","16","895","628","a","elianto","#3366ff99"," "," ","1","+10","[1440]","1","2","","","895","63","2","1","win","go","0","0"
"pit-trial","127","914023","0.0-68.0","battery-v0.2","","","-1","","","16","895","628","p","elianto","#f73b6a7A","-1","-1","1","0","[]","0","2","","","895","64","4","4","lose","no-go","0","0"
"pit-trial","128","918885","0.0-69.0","battery-v0.2","","","-1","","","16","895","628","p","elianto","#f73b6a7A","-1","-1","1","0","[]","0","2","","","895","65","4","4","lose","no-go","0","0"
"pit-trial","129","922506","0.0-70.0","battery-v0.2","","","758","","","16","895","628","s","elianto","#f73b6a7A"," "," ","1","0","[1609]","1","2","","","895","66","5","3","lose","go","0","0"
"pit-trial","130","926163","0.0-71.0","battery-v0.2","","","796.9999999998836","","","16","895","628","w","elianto","#3366ff99","-1"," ","0","0","[1647]","1","2","","","895","67","6","2","win","no-go","0","0"
"pit-trial","131","929778","0.0-72.0","battery-v0.2","","","753","","","16","895","628","a","elianto","#3366ff99"," "," ","1","0","[1604]","1","2","","","895","68","2","1","win","go","1","0"
"pit-trial","132","934639","0.0-73.0","battery-v0.2","","","-1","","","16","895","628","p","elianto","#f73b6a7A","-1","-1","1","0","[]","0","2","","","895","69","4","4","lose","no-go","0","0"
"pit-trial","133","938783","0.0-74.0","battery-v0.2","","","1284","","","16","895","628","s","elianto","#f73b6a7A"," "," ","1","0","[2135]","1","2","","","895","70","5","3","lose","go","0","0"
"pit-trial","134","942934","0.0-75.0","battery-v0.2","","","1290.0000000001164","","","16","895","628","e","elianto","#f73b6a7A","-1"," ","0","0","[2141.0000000001164]","1","2","","","895","71","7","4","lose","no-go","1","0"
"pit-trial","135","947795","0.0-76.0","battery-v0.2","","","-1","","","16","895","628","w","elianto","#3366ff99","-1","-1","1","+10","[]","0","2","","","895","72","6","2","win","no-go","0","0"
"pit-trial","136","951562","0.0-77.0","battery-v0.2","","","905","","","16","895","628","s","elianto","#f73b6a7A"," "," ","1","0","[1756]","1","2","","","895","73","5","3","lose","go","0","0"
"pit-trial","137","956423","0.0-78.0","battery-v0.2","","","-1","","","16","895","628","p","elianto","#f73b6a7A","-1","-1","1","0","[]","0","2","","","895","74","4","4","lose","no-go","0","0"
"pit-trial","138","960979","0.0-79.0","battery-v0.2","","","1696","","","16","895","628","e","elianto","#f73b6a7A","-1"," ","0","-10","[2545.9999999998836]","1","2","","","895","75","7","4","lose","no-go","0","0"
"pit-trial","139","965840","0.0-80.0","battery-v0.2","","","-1","","","16","895","628","w","elianto","#3366ff99","-1","-1","1","+10","[]","0","2","","","895","76","6","2","win","no-go","0","0"
"pit-trial","140","969672","0.0-81.0","battery-v0.2","","","971","","","16","895","628","s","elianto","#f73b6a7A"," "," ","1","-10","[1821]","1","2","","","895","77","5","3","lose","go","1","0"
"pit-trial","141","974534","0.0-82.0","battery-v0.2","","","-1","","","16","895","628","p","elianto","#f73b6a7A","-1","-1","1","-10","[]","0","2","","","895","78","4","4","lose","no-go","1","0"
"pit-trial","142","979396","0.0-83.0","battery-v0.2","","","-1","","","16","895","628","w","elianto","#3366ff99","-1","-1","1","0","[]","0","2","","","895","79","6","2","win","no-go","1","0"
"pit-trial","143","984257","0.0-84.0","battery-v0.2","","","-1","","","16","895","628","e","elianto","#f73b6a7A","-1","-1","1","0","[]","0","2","","","895","80","7","4","lose","no-go","0","0"
"pit-trial","144","987880","0.0-85.0","battery-v0.2","","","762.0000000001164","","","16","895","628","s","elianto","#f73b6a7A"," "," ","1","0","[1613.0000000001164]","1","2","","","895","81","5","3","lose","go","0","0"
"pit-trial","145","992742","0.0-86.0","battery-v0.2","","","-1","","","16","895","628","e","elianto","#f73b6a7A","-1","-1","1","-10","[]","0","2","","","895","82","7","4","lose","no-go","1","0"
"pit-trial","146","997604","0.0-87.0","battery-v0.2","","","-1","","","16","895","628","p","elianto","#f73b6a7A","-1","-1","1","0","[]","0","2","","","895","83","4","4","lose","no-go","0","0"
"pit-trial","147","1002467","0.0-88.0","battery-v0.2","","","-1","","","16","895","628","w","elianto","#3366ff99","-1","-1","1","0","[]","0","2","","","895","84","6","2","win","no-go","1","0"
"pit-trial","148","1006265","0.0-89.0","battery-v0.2","","","937","","","16","895","628","e","elianto","#f73b6a7A","-1"," ","0","-10","[1787.0000000001164]","1","2","","","895","85","7","4","lose","no-go","0","0"
"pit-trial","149","1011125","0.0-90.0","battery-v0.2","","","-1","","","16","895","628","w","elianto","#3366ff99","-1","-1","1","+10","[]","0","2","","","895","86","6","2","win","no-go","0","0"
"pit-trial","150","1015986","0.0-91.0","battery-v0.2","","","-1","","","16","895","628","p","elianto","#f73b6a7A","-1","-1","1","-10","[]","0","2","","","895","87","4","4","lose","no-go","1","0"
"pit-trial","151","1019737","0.0-92.0","battery-v0.2","","","891","","","16","895","628","s","elianto","#f73b6a7A"," "," ","1","0","[1740.9999999998836]","1","2","","","895","88","5","3","lose","go","0","0"
"pit-trial","152","1024598","0.0-93.0","battery-v0.2","","","-1","","","16","895","628","e","elianto","#f73b6a7A","-1","-1","1","0","[]","0","2","","","895","89","7","4","lose","no-go","0","0"
"pit-trial","153","1029459","0.0-94.0","battery-v0.2","","","-1","","","16","895","628","w","elianto","#3366ff99","-1","-1","1","+10","[]","0","2","","","895","90","6","2","win","no-go","0","0"
"pit-trial","154","1034319","0.0-95.0","battery-v0.2","","","-1","","","16","895","628","p","elianto","#f73b6a7A","-1","-1","1","0","[]","0","2","","","895","91","4","4","lose","no-go","0","0"
"pit-trial","155","1038024","0.0-96.0","battery-v0.2","","","845","","","16","895","628","s","elianto","#f73b6a7A"," "," ","1","-10","[1694.9999999998836]","1","2","","","895","92","5","3","lose","go","1","0"
"pit-trial","156","1042065","0.0-97.0","battery-v0.2","","","1181","","","16","895","628","k","elianto","#f73b6a7A","-1"," ","0","-10","[2030.9999999998836]","1","2","","","895","93","8","4","lose","no-go","0","0"
"pit-trial","157","1046926","0.0-98.0","battery-v0.2","","","-1","","","16","895","628","e","elianto","#f73b6a7A","-1","-1","1","0","[]","0","2","","","895","94","7","4","lose","no-go","0","0"
"pit-trial","158","1050577","0.0-99.0","battery-v0.2","","","791","","","16","895","628","s","elianto","#f73b6a7A"," "," ","1","0","[1641]","1","2","","","895","95","5","3","lose","go","0","0"
"pit-trial","159","1055439","0.0-100.0","battery-v0.2","","","-1","","","16","895","628","w","elianto","#3366ff99","-1","-1","1","+10","[]","0","2","","","895","96","6","2","win","no-go","0","0"
"pit-trial","160","1060300","0.0-101.0","battery-v0.2","","","-1","","","16","895","628","e","elianto","#f73b6a7A","-1","-1","1","0","[]","0","2","","","895","97","7","4","lose","no-go","0","0"
"pit-trial","161","1064474","0.0-102.0","battery-v0.2","","","1312.0000000002328","","","16","895","628","k","elianto","#f73b6a7A","-1"," ","0","0","[2163.000000000233]","1","2","","","895","98","8","4","lose","no-go","1","0"
"pit-trial","162","1068006","0.0-103.0","battery-v0.2","","","671","","","16","895","628","s","elianto","#f73b6a7A"," "," ","1","0","[1522]","1","2","","","895","99","5","3","lose","go","0","0"
"pit-trial","163","1072867","0.0-104.0","battery-v0.2","","","-1","","","16","895","628","w","elianto","#3366ff99","-1","-1","1","+10","[]","0","2","","","895","100","6","2","win","no-go","0","0"
"pit-trial","164","1077728","0.0-105.0","battery-v0.2","","","-1","","","16","895","628","d","elianto","#3366ff99"," ","-1","0","+10","[]","0","2","","","895","101","9","1","win","go","1","0"
"pit-trial","165","1082589","0.0-106.0","battery-v0.2","","","-1","","","16","895","628","w","elianto","#3366ff99","-1","-1","1","+10","[]","0","2","","","895","102","6","2","win","no-go","0","0"
"pit-trial","166","1086714","0.0-107.0","battery-v0.2","","","1263.0000000002328","","","16","895","628","k","elianto","#f73b6a7A","-1"," ","0","-10","[2114.000000000233]","1","2","","","895","103","8","4","lose","no-go","0","0"
"pit-trial","167","1090466","0.0-108.0","battery-v0.2","","","891","","","16","895","628","j","elianto","#f73b6a7A"," "," ","1","0","[1741.9999999997672]","1","2","","","895","104","10","3","lose","go","0","0"
"pit-trial","168","1095328","0.0-109.0","battery-v0.2","","","-1","","","16","895","628","w","elianto","#3366ff99","-1","-1","1","+10","[]","0","2","","","895","105","6","2","win","no-go","0","0"
"pit-trial","169","1099505","0.0-110.0","battery-v0.2","","","1316","","","16","895","628","d","elianto","#3366ff99"," "," ","1","0","[2166.999999999767]","1","2","","","895","106","9","1","win","go","1","0"
"pit-trial","170","1104366","0.0-111.0","battery-v0.2","","","-1","","","16","895","628","j","elianto","#f73b6a7A"," ","-1","0","0","[]","0","2","","","895","107","10","3","lose","go","1","0"
"pit-trial","171","1109231","0.0-112.0","battery-v0.2","","","-1","","","16","895","628","k","elianto","#f73b6a7A","-1","-1","1","-10","[]","0","2","","","895","108","8","4","lose","no-go","1","0"
"pit-trial","172","1112992","0.0-113.0","battery-v0.2","","","899","","","16","895","628","v","elianto","#3366ff99"," "," ","1","+10","[1750]","1","2","","","895","109","11","1","win","go","0","0"
"pit-trial","173","1117853","0.0-114.0","battery-v0.2","","","-1","","","16","895","628","j","elianto","#f73b6a7A"," ","-1","0","-10","[]","0","2","","","895","110","10","3","lose","go","0","0"
"pit-trial","174","1122714","0.0-115.0","battery-v0.2","","","-1","","","16","895","628","k","elianto","#f73b6a7A","-1","-1","1","0","[]","0","2","","","895","111","8","4","lose","no-go","0","0"
"pit-trial","175","1126675","0.0-116.0","battery-v0.2","","","1102","","","16","895","628","d","elianto","#3366ff99"," "," ","1","0","[1952.9999999997672]","1","2","","","895","112","9","1","win","go","1","0"
"pit-trial","176","1130515","0.0-117.0","battery-v0.2","","","979","","","16","895","628","v","elianto","#3366ff99"," "," ","1","+10","[1830]","1","2","","","895","113","11","1","win","go","0","0"
"pit-trial","177","1134671","0.0-118.0","battery-v0.2","","","1294","","","16","895","628","j","elianto","#f73b6a7A"," "," ","1","0","[2145]","1","2","","","895","114","10","3","lose","go","0","0"
"pit-trial","178","1138185","0.0-119.0","battery-v0.2","","","652","","","16","895","628","d","elianto","#3366ff99"," "," ","1","+10","[1503]","1","2","","","895","115","9","1","win","go","0","0"
"pit-trial","179","1143046","0.0-120.0","battery-v0.2","","","-1","","","16","895","628","k","elianto","#f73b6a7A","-1","-1","1","0","[]","0","2","","","895","116","8","4","lose","no-go","0","0"
"pit-trial","180","1146717","0.0-121.0","battery-v0.2","","","809","","","16","895","628","j","elianto","#f73b6a7A"," "," ","1","0","[1659]","1","2","","","895","117","10","3","lose","go","0","0"
"pit-trial","181","1151579","0.0-122.0","battery-v0.2","","","-1","","","16","895","628","k","elianto","#f73b6a7A","-1","-1","1","-10","[]","0","2","","","895","118","8","4","lose","no-go","1","0"
"pit-trial","182","1155471","0.0-123.0","battery-v0.2","","","1031","","","16","895","628","v","elianto","#3366ff99"," "," ","1","+10","[1882]","1","2","","","895","119","11","1","win","go","0","0"
"pit-trial","183","1159266","0.0-124.0","battery-v0.2","","","935","","","16","895","628","d","elianto","#3366ff99"," "," ","1","+10","[1785]","1","2","","","895","120","9","1","win","go","0","0"
"pit-trial","184","1162821","0.0-125.0","battery-v0.2","","","693","","","16","895","628","j","elianto","#f73b6a7A"," "," ","1","0","[1544]","1","2","","","895","121","10","3","lose","go","0","0"
"pit-trial","185","1166480","0.0-126.0","battery-v0.2","","","797","","","16","895","628","v","elianto","#3366ff99"," "," ","1","+10","[1650]","1","2","","","895","122","11","1","win","go","0","0"
"pit-trial","186","1171341","0.0-127.0","battery-v0.2","","","-1","","","16","895","628","k","elianto","#f73b6a7A","-1","-1","1","0","[]","0","2","","","895","123","8","4","lose","no-go","0","0"
"pit-trial","187","1174961","0.0-128.0","battery-v0.2","","","758","","","16","895","628","d","elianto","#3366ff99"," "," ","1","+10","[1609]","1","2","","","895","124","9","1","win","go","0","0"
"pit-trial","188","1179822","0.0-129.0","battery-v0.2","","","-1","","","16","895","628","k","elianto","#f73b6a7A","-1","-1","1","0","[]","0","2","","","895","125","8","4","lose","no-go","0","0"
"pit-trial","189","1183456","0.0-130.0","battery-v0.2","","","774","","","16","895","628","d","elianto","#3366ff99"," "," ","1","+10","[1625]","1","2","","","895","126","9","1","win","go","0","0"
"pit-trial","190","1187501","0.0-131.0","battery-v0.2","","","1181.9999999997672","","","16","895","628","j","elianto","#f73b6a7A"," "," ","1","-10","[2033]","1","2","","","895","127","10","3","lose","go","1","0"
"pit-trial","191","1190984","0.0-132.0","battery-v0.2","","","623","","","16","895","628","v","elianto","#3366ff99"," "," ","1","+10","[1472.9999999997672]","1","2","","","895","128","11","1","win","go","0","0"
"pit-trial","192","1194630","0.0-133.0","battery-v0.2","","","786","","","16","895","628","v","elianto","#3366ff99"," "," ","1","+10","[1637]","1","2","","","895","129","11","1","win","go","0","0"
"pit-trial","193","1199491","0.0-134.0","battery-v0.2","","","-1","","","16","895","628","k","elianto","#f73b6a7A","-1","-1","1","0","[]","0","2","","","895","130","8","4","lose","no-go","0","0"
"pit-trial","194","1202960","0.0-135.0","battery-v0.2","","","609","","","16","895","628","d","elianto","#3366ff99"," "," ","1","0","[1459]","1","2","","","895","131","9","1","win","go","1","0"
"pit-trial","195","1206737","0.0-136.0","battery-v0.2","","","917","","","16","895","628","j","elianto","#f73b6a7A"," "," ","1","0","[1767]","1","2","","","895","132","10","3","lose","go","0","0"
"pit-trial","196","1210167","0.0-137.0","battery-v0.2","","","569.9999999997672","","","16","895","628","v","elianto","#3366ff99"," "," ","1","+10","[1421]","1","2","","","895","133","11","1","win","go","0","0"
"pit-trial","197","1215029","0.0-138.0","battery-v0.2","","","-1","","","16","895","628","k","elianto","#f73b6a7A","-1","-1","1","-10","[]","0","2","","","895","134","8","4","lose","no-go","1","0"
"pit-trial","198","1218510","0.0-139.0","battery-v0.2","","","619","","","16","895","628","d","elianto","#3366ff99"," "," ","1","+10","[1469.9999999997672]","1","2","","","895","135","9","1","win","go","0","0"
"pit-trial","199","1222355","0.0-140.0","battery-v0.2","","","984","","","16","895","628","j","elianto","#f73b6a7A"," "," ","1","0","[1835]","1","2","","","895","136","10","3","lose","go","0","0"
"pit-trial","200","1225762","0.0-141.0","battery-v0.2","","","547","","","16","895","628","v","elianto","#3366ff99"," "," ","1","+10","[1397]","1","2","","","895","137","11","1","win","go","0","0"
"pit-trial","201","1230626","0.0-142.0","battery-v0.2","","","-1","","","16","895","628","k","elianto","#f73b6a7A","-1","-1","1","0","[]","0","2","","","895","138","8","4","lose","no-go","0","0"
"pit-trial","202","1234243","0.0-143.0","battery-v0.2","","","753","","","16","895","628","j","elianto","#f73b6a7A"," "," ","1","0","[1605.0000000002328]","1","2","","","895","139","10","3","lose","go","0","0"
"pit-trial","203","1237822","0.0-144.0","battery-v0.2","","","718","","","16","895","628","d","elianto","#3366ff99"," "," ","1","+10","[1568.9999999997672]","1","2","","","895","140","9","1","win","go","0","0"
"pit-instructions","204","1255530","0.0-145.0","battery-v0.2","","[{""page_index"":0,""viewing_time"":9218.000000000233},{""page_index"":1,""viewing_time"":8481.999999999767}]","17700","","","","","","","","","","","","","","","","","","","","","","","","",""
"pit-trial","205","1258993","0.0-146.0","battery-v0.2","","","606","","","16","895","628","n","elianto","#f73b6a7A"," "," ","1","-10","[1457]","1","3","","","895","141","1","3","lose","go","1","0"
"pit-trial","206","1262569","0.0-147.0","battery-v0.2","","","713.0000000002328","","","16","895","628","q","elianto","#3366ff99","-1"," ","0","0","[1565.0000000002328]","1","3","","","895","142","0","2","win","no-go","0","0"
"pit-trial","207","1266066","0.0-148.0","battery-v0.2","","","636","","","16","895","628","x","elianto","#3366ff99"," "," ","1","+10","[1487]","1","3","","","895","143","3","1","win","go","0","0"
"pit-trial","208","1269563","0.0-149.0","battery-v0.2","","","635","","","16","895","628","f","elianto","#f73b6a7A","-1"," ","0","-10","[1486]","1","3","","","895","144","2","4","lose","no-go","0","0"
"pit-trial","209","1274424","0.0-150.0","battery-v0.2","","","-1","","","16","895","628","f","elianto","#f73b6a7A","-1","-1","1","-10","[]","0","3","","","895","145","2","4","lose","no-go","1","0"
"pit-trial","210","1279285","0.0-151.0","battery-v0.2","","","-1","","","16","895","628","n","elianto","#f73b6a7A"," ","-1","0","0","[]","0","3","","","895","146","1","3","lose","go","1","0"
"pit-trial","211","1282995","0.0-152.0","battery-v0.2","","","849.9999999997672","","","16","895","628","q","elianto","#3366ff99","-1"," ","0","0","[1700]","1","3","","","895","147","0","2","win","no-go","0","0"
"pit-trial","212","1286683","0.0-153.0","battery-v0.2","","","827","","","16","895","628","x","elianto","#3366ff99"," "," ","1","+10","[1678]","1","3","","","895","148","3","1","win","go","0","0"
"pit-trial","213","1291544","0.0-154.0","battery-v0.2","","","-1","","","16","895","628","q","elianto","#3366ff99","-1","-1","1","0","[]","0","3","","","895","149","0","2","win","no-go","1","0"
"pit-trial","214","1295060","0.0-155.0","battery-v0.2","","","655","","","16","895","628","x","elianto","#3366ff99"," "," ","1","+10","[1506]","1","3","","","895","150","3","1","win","go","0","0"
"pit-trial","215","1299921","0.0-156.0","battery-v0.2","","","-1","","","16","895","628","n","elianto","#f73b6a7A"," ","-1","0","-10","[]","0","3","","","895","151","1","3","lose","go","0","0"
"pit-trial","216","1304783","0.0-157.0","battery-v0.2","","","-1","","","16","895","628","f","elianto","#f73b6a7A","-1","-1","1","0","[]","0","3","","","895","152","2","4","lose","no-go","0","0"
"pit-trial","217","1308202","0.0-158.0","battery-v0.2","","","557","","","16","895","628","n","elianto","#f73b6a7A"," "," ","1","0","[1409]","1","3","","","895","153","1","3","lose","go","0","0"
"pit-trial","218","1313063","0.0-159.0","battery-v0.2","","","-1","","","16","895","628","q","elianto","#3366ff99","-1","-1","1","+10","[]","0","3","","","895","154","0","2","win","no-go","0","0"
"pit-trial","219","1317202","0.0-160.0","battery-v0.2","","","1279","","","16","895","628","f","elianto","#f73b6a7A","-1"," ","0","-10","[2128]","1","3","","","895","155","2","4","lose","no-go","0","0"
"pit-trial","220","1320548","0.0-161.0","battery-v0.2","","","486","","","16","895","628","x","elianto","#3366ff99"," "," ","1","+10","[1336]","1","3","","","895","156","3","1","win","go","0","0"
"pit-trial","221","1324270","0.0-162.0","battery-v0.2","","","861.0000000002328","","","16","895","628","x","elianto","#3366ff99"," "," ","1","+10","[1712]","1","3","","","895","157","3","1","win","go","0","0"
"pit-trial","222","1327638","0.0-163.0","battery-v0.2","","","507","","","16","895","628","n","elianto","#f73b6a7A"," "," ","1","-10","[1356.9999999997672]","1","3","","","895","158","1","3","lose","go","1","0"
"pit-trial","223","1332499","0.0-164.0","battery-v0.2","","","-1","","","16","895","628","q","elianto","#3366ff99","-1","-1","1","0","[]","0","3","","","895","159","0","2","win","no-go","1","0"
"pit-trial","224","1337360","0.0-165.0","battery-v0.2","","","-1","","","16","895","628","f","elianto","#f73b6a7A","-1","-1","1","0","[]","0","3","","","895","160","2","4","lose","no-go","0","0"
"pit-trial","225","1342221","0.0-166.0","battery-v0.2","","","-1","","","16","895","628","f","elianto","#f73b6a7A","-1","-1","1","0","[]","0","3","","","895","161","2","4","lose","no-go","0","0"
"pit-trial","226","1345551","0.0-167.0","battery-v0.2","","","468","","","16","895","628","x","elianto","#3366ff99"," "," ","1","+10","[1318.9999999997672]","1","3","","","895","162","3","1","win","go","0","0"
"pit-trial","227","1349090","0.0-168.0","battery-v0.2","","","678","","","16","895","628","n","elianto","#f73b6a7A"," "," ","1","0","[1529]","1","3","","","895","163","1","3","lose","go","0","0"
"pit-trial","228","1353951","0.0-169.0","battery-v0.2","","","-1","","","16","895","628","q","elianto","#3366ff99","-1","-1","1","0","[]","0","3","","","895","164","0","2","win","no-go","1","0"
"pit-trial","229","1358813","0.0-170.0","battery-v0.2","","","-1","","","16","895","628","f","elianto","#f73b6a7A","-1","-1","1","0","[]","0","3","","","895","165","2","4","lose","no-go","0","0"
"pit-trial","230","1363674","0.0-171.0","battery-v0.2","","","-1","","","16","895","628","q","elianto","#3366ff99","-1","-1","1","+10","[]","0","3","","","895","166","0","2","win","no-go","0","0"
"pit-trial","231","1367547","0.0-172.0","battery-v0.2","","","1012","","","16","895","628","n","elianto","#f73b6a7A"," "," ","1","-10","[1862]","1","3","","","895","167","1","3","lose","go","1","0"
"pit-trial","232","1370820","0.0-173.0","battery-v0.2","","","414","","","16","895","628","x","elianto","#3366ff99"," "," ","1","+10","[1264]","1","3","","","895","168","3","1","win","go","0","0"
"pit-trial","233","1375681","0.0-174.0","battery-v0.2","","","-1","","","16","895","628","q","elianto","#3366ff99","-1","-1","1","0","[]","0","3","","","895","169","0","2","win","no-go","1","0"
"pit-trial","234","1379217","0.0-175.0","battery-v0.2","","","675","","","16","895","628","x","elianto","#3366ff99"," "," ","1","+10","[1524]","1","3","","","895","170","3","1","win","go","0","0"
"pit-trial","235","1384079","0.0-176.0","battery-v0.2","","","-1","","","16","895","628","f","elianto","#f73b6a7A","-1","-1","1","-10","[]","0","3","","","895","171","2","4","lose","no-go","1","0"
"pit-trial","236","1387775","0.0-177.0","battery-v0.2","","","837","","","16","895","628","n","elianto","#f73b6a7A"," "," ","1","0","[1687]","1","3","","","895","172","1","3","lose","go","0","0"
"pit-trial","237","1392638","0.0-178.0","battery-v0.2","","","-1","","","16","895","628","f","elianto","#f73b6a7A","-1","-1","1","0","[]","0","3","","","895","173","2","4","lose","no-go","0","0"
"pit-trial","238","1396407","0.0-179.0","battery-v0.2","","","908","","","16","895","628","n","elianto","#f73b6a7A"," "," ","1","-10","[1760]","1","3","","","895","174","1","3","lose","go","1","0"
"pit-trial","239","1400421","0.0-180.0","battery-v0.2","","","1147","","","16","895","628","b","elianto","#f73b6a7A","-1"," ","0","-10","[1997]","1","3","","","895","175","5","4","lose","no-go","0","0"
"pit-trial","240","1404043","0.0-181.0","battery-v0.2","","","759","","","16","895","628","t","elianto","#f73b6a7A"," "," ","1","0","[1609.9999999997672]","1","3","","","895","176","4","3","lose","go","0","0"
"pit-trial","241","1408904","0.0-182.0","battery-v0.2","","","-1","","","16","895","628","b","elianto","#f73b6a7A","-1","-1","1","0","[]","0","3","","","895","177","5","4","lose","no-go","0","0"
"pit-trial","242","1412939","0.0-183.0","battery-v0.2","","","1175","","","16","895","628","n","elianto","#f73b6a7A"," "," ","1","0","[2024.9999999997672]","1","3","","","895","178","1","3","lose","go","0","0"
"pit-trial","243","1417801","0.0-184.0","battery-v0.2","","","-1","","","16","895","628","f","elianto","#f73b6a7A","-1","-1","1","-10","[]","0","3","","","895","179","2","4","lose","no-go","1","0"
"pit-trial","244","1421436","0.0-185.0","battery-v0.2","","","775","","","16","895","628","t","elianto","#f73b6a7A"," "," ","1","0","[1625]","1","3","","","895","180","4","3","lose","go","0","0"
"pit-trial","245","1426297","0.0-186.0","battery-v0.2","","","-1","","","16","895","628","b","elianto","#f73b6a7A","-1","-1","1","0","[]","0","3","","","895","181","5","4","lose","no-go","0","0"
"pit-trial","246","1430204","0.0-187.0","battery-v0.2","","","1046","","","16","895","628","c","elianto","#3366ff99","-1"," ","0","+10","[1897]","1","3","","","895","182","6","2","win","no-go","1","0"
"pit-trial","247","1435066","0.0-188.0","battery-v0.2","","","-1","","","16","895","628","f","elianto","#f73b6a7A","-1","-1","1","0","[]","0","3","","","895","183","2","4","lose","no-go","0","0"
"pit-trial","248","1438629","0.0-189.0","battery-v0.2","","","703","","","16","895","628","t","elianto","#f73b6a7A"," "," ","1","0","[1553]","1","3","","","895","184","4","3","lose","go","0","0"
"pit-trial","249","1443490","0.0-190.0","battery-v0.2","","","-1","","","16","895","628","b","elianto","#f73b6a7A","-1","-1","1","-10","[]","0","3","","","895","185","5","4","lose","no-go","1","0"
"pit-trial","250","1447197","0.0-191.0","battery-v0.2","","","845","","","16","895","628","c","elianto","#3366ff99","-1"," ","0","0","[1695.9999999997672]","1","3","","","895","186","6","2","win","no-go","0","0"
"pit-trial","251","1450715","0.0-192.0","battery-v0.2","","","656","","","16","895","628","t","elianto","#f73b6a7A"," "," ","1","0","[1507]","1","3","","","895","187","4","3","lose","go","0","0"
"pit-trial","252","1455575","0.0-193.0","battery-v0.2","","","-1","","","16","895","628","f","elianto","#f73b6a7A","-1","-1","1","0","[]","0","3","","","895","188","2","4","lose","no-go","0","0"
"pit-trial","253","1460437","0.0-194.0","battery-v0.2","","","-1","","","16","895","628","b","elianto","#f73b6a7A","-1","-1","1","-10","[]","0","3","","","895","189","5","4","lose","no-go","1","0"
"pit-trial","254","1464768","0.0-195.0","battery-v0.2","","","1470","","","16","895","628","z","elianto","#3366ff99"," "," ","1","0","[2321]","1","3","","","895","190","7","1","win","go","1","0"
"pit-trial","255","1468554","0.0-196.0","battery-v0.2","","","925","","","16","895","628","c","elianto","#3366ff99","-1"," ","0","0","[1776]","1","3","","","895","191","6","2","win","no-go","0","0"
"pit-trial","256","1472053","0.0-197.0","battery-v0.2","","","638","","","16","895","628","t","elianto","#f73b6a7A"," "," ","1","-10","[1488]","1","3","","","895","192","4","3","lose","go","1","0"
"pit-trial","257","1476915","0.0-198.0","battery-v0.2","","","-1","","","16","895","628","z","elianto","#3366ff99"," ","-1","0","0","[]","0","3","","","895","193","7","1","win","go","0","0"
"pit-trial","258","1480387","0.0-199.0","battery-v0.2","","","612","","","16","895","628","t","elianto","#f73b6a7A"," "," ","1","0","[1463]","1","3","","","895","194","4","3","lose","go","0","0"
"pit-trial","259","1485248","0.0-200.0","battery-v0.2","","","-1","","","16","895","628","b","elianto","#f73b6a7A","-1","-1","1","0","[]","0","3","","","895","195","5","4","lose","no-go","0","0"
"pit-trial","260","1490109","0.0-201.0","battery-v0.2","","","-1","","","16","895","628","c","elianto","#3366ff99","-1","-1","1","+10","[]","0","3","","","895","196","6","2","win","no-go","0","0"
"pit-trial","261","1493667","0.0-202.0","battery-v0.2","","","699","","","16","895","628","t","elianto","#f73b6a7A"," "," ","1","-10","[1549]","1","3","","","895","197","4","3","lose","go","1","0"
"pit-trial","262","1498528","0.0-203.0","battery-v0.2","","","-1","","","16","895","628","b","elianto","#f73b6a7A","-1","-1","1","0","[]","0","3","","","895","198","5","4","lose","no-go","0","0"
"pit-trial","263","1503390","0.0-204.0","battery-v0.2","","","-1","","","16","895","628","c","elianto","#3366ff99","-1","-1","1","+10","[]","0","3","","","895","199","6","2","win","no-go","0","0"
"pit-trial","264","1507129","0.0-205.0","battery-v0.2","","","877","","","16","895","628","z","elianto","#3366ff99"," "," ","1","+10","[1728]","1","3","","","895","200","7","1","win","go","0","0"
"pit-trial","265","1511990","0.0-206.0","battery-v0.2","","","-1","","","16","895","628","c","elianto","#3366ff99","-1","-1","1","+10","[]","0","3","","","895","201","6","2","win","no-go","0","0"
"pit-trial","266","1515562","0.0-207.0","battery-v0.2","","","709","","","16","895","628","z","elianto","#3366ff99"," "," ","1","+10","[1560]","1","3","","","895","202","7","1","win","go","0","0"
"pit-trial","267","1519272","0.0-208.0","battery-v0.2","","","850","","","16","895","628","t","elianto","#f73b6a7A"," "," ","1","0","[1700]","1","3","","","895","203","4","3","lose","go","0","0"
"pit-trial","268","1524134","0.0-209.0","battery-v0.2","","","-1","","","16","895","628","b","elianto","#f73b6a7A","-1","-1","1","0","[]","0","3","","","895","204","5","4","lose","no-go","0","0"
"pit-trial","269","1528542","0.0-210.0","battery-v0.2","","","1546","","","16","895","628","z","elianto","#3366ff99"," "," ","1","0","[2396]","1","3","","","895","205","7","1","win","go","1","0"
"pit-trial","270","1533403","0.0-211.0","battery-v0.2","","","-1","","","16","895","628","c","elianto","#3366ff99","-1","-1","1","+10","[]","0","3","","","895","206","6","2","win","no-go","0","0"
"pit-trial","271","1536916","0.0-212.0","battery-v0.2","","","651","","","16","895","628","t","elianto","#f73b6a7A"," "," ","1","-10","[1501.9999999997672]","1","3","","","895","207","4","3","lose","go","1","0"
"pit-trial","272","1541777","0.0-213.0","battery-v0.2","","","-1","","","16","895","628","b","elianto","#f73b6a7A","-1","-1","1","0","[]","0","3","","","895","208","5","4","lose","no-go","0","0"
"pit-trial","273","1546639","0.0-214.0","battery-v0.2","","","-1","","","16","895","628","b","elianto","#f73b6a7A","-1","-1","1","0","[]","0","3","","","895","209","5","4","lose","no-go","0","0"
"pit-trial","274","1551500","0.0-215.0","battery-v0.2","","","-1","","","16","895","628","c","elianto","#3366ff99","-1","-1","1","+10","[]","0","3","","","895","210","6","2","win","no-go","0","0"
"pit-trial","275","1554890","0.0-216.0","battery-v0.2","","","529","","","16","895","628","z","elianto","#3366ff99"," "," ","1","+10","[1379]","1","3","","","895","211","7","1","win","go","0","0"
"pit-trial","276","1558428","0.0-217.0","battery-v0.2","","","676.9999999997672","","","16","895","628","t","elianto","#f73b6a7A"," "," ","1","0","[1528]","1","3","","","895","212","4","3","lose","go","0","0"
"pit-trial","277","1563289","0.0-218.0","battery-v0.2","","","-1","","","16","895","628","c","elianto","#3366ff99","-1","-1","1","+10","[]","0","3","","","895","213","6","2","win","no-go","0","0"
"pit-trial","278","1567181","0.0-219.0","battery-v0.2","","","1032","","","16","895","628","h","elianto","#3366ff99"," "," ","1","+10","[1882]","1","3","","","895","214","8","1","win","go","0","0"
"pit-trial","279","1570919","0.0-220.0","battery-v0.2","","","878","","","16","895","628","t","elianto","#f73b6a7A"," "," ","1","0","[1729]","1","3","","","895","215","4","3","lose","go","0","0"
"pit-trial","280","1575278","0.0-221.0","battery-v0.2","","","1496","","","16","895","628","z","elianto","#3366ff99"," "," ","1","+10","[2347]","1","3","","","895","216","7","1","win","go","0","0"
"pit-trial","281","1578960","0.0-222.0","battery-v0.2","","","820","","","16","895","628","t","elianto","#f73b6a7A"," "," ","1","0","[1670.9999999997672]","1","3","","","895","217","4","3","lose","go","0","0"
"pit-trial","282","1583821","0.0-223.0","battery-v0.2","","","-1","","","16","895","628","c","elianto","#3366ff99","-1","-1","1","+10","[]","0","3","","","895","218","6","2","win","no-go","0","0"
"pit-trial","283","1587597","0.0-224.0","battery-v0.2","","","916","","","16","895","628","h","elianto","#3366ff99"," "," ","1","+10","[1767]","1","3","","","895","219","8","1","win","go","0","0"
"pit-trial","284","1591220","0.0-225.0","battery-v0.2","","","761","","","16","895","628","z","elianto","#3366ff99"," "," ","1","+10","[1613]","1","3","","","895","220","7","1","win","go","0","0"
"pit-trial","285","1594869","0.0-226.0","battery-v0.2","","","789","","","16","895","628","z","elianto","#3366ff99"," "," ","1","+10","[1638.9999999997672]","1","3","","","895","221","7","1","win","go","0","0"
"pit-trial","286","1599731","0.0-227.0","battery-v0.2","","","-1","","","16","895","628","c","elianto","#3366ff99","-1","-1","1","+10","[]","0","3","","","895","222","6","2","win","no-go","0","0"
"pit-trial","287","1604566","0.0-228.0","battery-v0.2","","","1973","","","16","895","628","y","elianto","#3366ff99","-1"," ","0","0","[2824]","1","3","","","895","223","9","2","win","no-go","0","0"
"pit-trial","288","1608819","0.0-229.0","battery-v0.2","","","1393","","","16","895","628","h","elianto","#3366ff99"," "," ","1","+10","[2244]","1","3","","","895","224","8","1","win","go","0","0"
"pit-trial","289","1612389","0.0-230.0","battery-v0.2","","","709","","","16","895","628","z","elianto","#3366ff99"," "," ","1","+10","[1559]","1","3","","","895","225","7","1","win","go","0","0"
"pit-trial","290","1617251","0.0-231.0","battery-v0.2","","","-1","","","16","895","628","c","elianto","#3366ff99","-1","-1","1","+10","[]","0","3","","","895","226","6","2","win","no-go","0","0"
"pit-trial","291","1622114","0.0-232.0","battery-v0.2","","","-1","","","16","895","628","y","elianto","#3366ff99","-1","-1","1","0","[]","0","3","","","895","227","9","2","win","no-go","1","0"
"pit-trial","292","1626027","0.0-233.0","battery-v0.2","","","1052","","","16","895","628","h","elianto","#3366ff99"," "," ","1","0","[1903]","1","3","","","895","228","8","1","win","go","1","0"
"pit-trial","293","1630064","0.0-234.0","battery-v0.2","","","1177","","","16","895","628","r","elianto","#f73b6a7A"," "," ","1","0","[2027]","1","3","","","895","229","10","3","lose","go","0","0"
"pit-trial","294","1633931","0.0-235.0","battery-v0.2","","","1006","","","16","895","628","m","elianto","#f73b6a7A","-1"," ","0","-10","[1857]","1","3","","","895","230","11","4","lose","no-go","0","0"
"pit-trial","295","1638152","0.0-236.0","battery-v0.2","","","1360","","","16","895","628","y","elianto","#3366ff99","-1"," ","0","0","[2211]","1","3","","","895","231","9","2","win","no-go","0","0"
"pit-trial","296","1642053","0.0-237.0","battery-v0.2","","","1039","","","16","895","628","h","elianto","#3366ff99"," "," ","1","0","[1890]","1","3","","","895","232","8","1","win","go","1","0"
"pit-trial","297","1646915","0.0-238.0","battery-v0.2","","","-1","","","16","895","628","m","elianto","#f73b6a7A","-1","-1","1","0","[]","0","3","","","895","233","11","4","lose","no-go","0","0"
"pit-trial","298","1650808","0.0-239.0","battery-v0.2","","","1032","","","16","895","628","y","elianto","#3366ff99","-1"," ","0","+10","[1883]","1","3","","","895","234","9","2","win","no-go","1","0"
"pit-trial","299","1655174","0.0-240.0","battery-v0.2","","","1504","","","16","895","628","r","elianto","#f73b6a7A"," "," ","1","0","[2355]","1","3","","","895","235","10","3","lose","go","0","0"
"pit-trial","300","1658840","0.0-241.0","battery-v0.2","","","806","","","16","895","628","h","elianto","#3366ff99"," "," ","1","+10","[1657]","1","3","","","895","236","8","1","win","go","0","0"
"pit-trial","301","1662564","0.0-242.0","battery-v0.2","","","861","","","16","895","628","r","elianto","#f73b6a7A"," "," ","1","0","[1714]","1","3","","","895","237","10","3","lose","go","0","0"
"pit-trial","302","1665944","0.0-243.0","battery-v0.2","","","520","","","16","895","628","y","elianto","#3366ff99","-1"," ","0","0","[1370]","1","3","","","895","238","9","2","win","no-go","0","0"
"pit-trial","303","1670805","0.0-244.0","battery-v0.2","","","-1","","","16","895","628","m","elianto","#f73b6a7A","-1","-1","1","0","[]","0","3","","","895","239","11","4","lose","no-go","0","0"
"pit-trial","304","1674373","0.0-245.0","battery-v0.2","","","708","","","16","895","628","h","elianto","#3366ff99"," "," ","1","+10","[1558]","1","3","","","895","240","8","1","win","go","0","0"
"pit-trial","305","1679234","0.0-246.0","battery-v0.2","","","-1","","","16","895","628","m","elianto","#f73b6a7A","-1","-1","1","0","[]","0","3","","","895","241","11","4","lose","no-go","0","0"
"pit-trial","306","1682861","0.0-247.0","battery-v0.2","","","763","","","16","895","628","r","elianto","#f73b6a7A"," "," ","1","0","[1616]","1","3","","","895","242","10","3","lose","go","0","0"
"pit-trial","307","1686526","0.0-248.0","battery-v0.2","","","804","","","16","895","628","h","elianto","#3366ff99"," "," ","1","+10","[1654]","1","3","","","895","243","8","1","win","go","0","0"
"pit-trial","308","1690021","0.0-249.0","battery-v0.2","","","633","","","16","895","628","y","elianto","#3366ff99","-1"," ","0","0","[1482.9999999997672]","1","3","","","895","244","9","2","win","no-go","0","0"
"pit-trial","309","1693570","0.0-250.0","battery-v0.2","","","686.9999999997672","","","16","895","628","r","elianto","#f73b6a7A"," "," ","1","0","[1538]","1","3","","","895","245","10","3","lose","go","0","0"
"pit-trial","310","1697026","0.0-251.0","battery-v0.2","","","593","","","16","895","628","y","elianto","#3366ff99","-1"," ","0","+10","[1444]","1","3","","","895","246","9","2","win","no-go","1","0"
"pit-trial","311","1701888","0.0-252.0","battery-v0.2","","","-1","","","16","895","628","m","elianto","#f73b6a7A","-1","-1","1","0","[]","0","3","","","895","247","11","4","lose","no-go","0","0"
"pit-trial","312","1705350","0.0-253.0","battery-v0.2","","","602","","","16","895","628","h","elianto","#3366ff99"," "," ","1","0","[1452]","1","3","","","895","248","8","1","win","go","1","0"
"pit-trial","313","1710211","0.0-254.0","battery-v0.2","","","-1","","","16","895","628","m","elianto","#f73b6a7A","-1","-1","1","0","[]","0","3","","","895","249","11","4","lose","no-go","0","0"
"pit-trial","314","1713663","0.0-255.0","battery-v0.2","","","590","","","16","895","628","y","elianto","#3366ff99","-1"," ","0","0","[1441]","1","3","","","895","250","9","2","win","no-go","0","0"
"pit-trial","315","1717256","0.0-256.0","battery-v0.2","","","732","","","16","895","628","r","elianto","#f73b6a7A"," "," ","1","0","[1581.9999999997672]","1","3","","","895","251","10","3","lose","go","0","0"
"pit-trial","316","1720728","0.0-257.0","battery-v0.2","","","611","","","16","895","628","h","elianto","#3366ff99"," "," ","1","+10","[1461]","1","3","","","895","252","8","1","win","go","0","0"
"pit-trial","317","1725589","0.0-258.0","battery-v0.2","","","-1","","","16","895","628","m","elianto","#f73b6a7A","-1","-1","1","0","[]","0","3","","","895","253","11","4","lose","no-go","0","0"
"pit-trial","318","1729020","0.0-259.0","battery-v0.2","","","568","","","16","895","628","y","elianto","#3366ff99","-1"," ","0","0","[1419.0000000002328]","1","3","","","895","254","9","2","win","no-go","0","0"
"pit-trial","319","1732419","0.0-260.0","battery-v0.2","","","538","","","16","895","628","h","elianto","#3366ff99"," "," ","1","+10","[1389]","1","3","","","895","255","8","1","win","go","0","0"
"pit-trial","320","1735990","0.0-261.0","battery-v0.2","","","711.9999999997672","","","16","895","628","r","elianto","#f73b6a7A"," "," ","1","0","[1563]","1","3","","","895","256","10","3","lose","go","0","0"
"pit-trial","321","1740849","0.0-262.0","battery-v0.2","","","-1","","","16","895","628","m","elianto","#f73b6a7A","-1","-1","1","-10","[]","0","3","","","895","257","11","4","lose","no-go","1","0"
"pit-trial","322","1744222","0.0-263.0","battery-v0.2","","","511","","","16","895","628","y","elianto","#3366ff99","-1"," ","0","0","[1363]","1","3","","","895","258","9","2","win","no-go","0","0"
"pit-trial","323","1747659","0.0-264.0","battery-v0.2","","","577","","","16","895","628","h","elianto","#3366ff99"," "," ","1","+10","[1427.0000000002328]","1","3","","","895","259","8","1","win","go","0","0"
"pit-trial","324","1751414","0.0-265.0","battery-v0.2","","","896","","","16","895","628","r","elianto","#f73b6a7A"," "," ","1","0","[1745.9999999997672]","1","3","","","895","260","10","3","lose","go","0","0"
"pit-instructions","325","1760926","0.0-266.0","battery-v0.2","","[{""page_index"":0,""viewing_time"":9503.000000000233}]","9504","","","","","","","","","","","","","","","","","","","","","","","","",""
