"trial_type","trial_index","time_elapsed","internal_node_id","task_version","success","view_history","rt","rune","rune_set","hex","correct","choice","accuracy","outcome","keys","total_keys","block","practice","subject","participantId","value","responses","num_errors","sub","trial","stimulus","robot","valence","action","sham"
"pavlovia","0","97","0.0-0.0","battery-v0.2","","","","","","","","","","","","","","","","","","","","","","","","","",""
"fullscreen","1","3911","0.0-1.0","battery-v0.2","true","","","","","","","","","","","","","","","","","","","","","","","","",""
"pit-instructions","2","56130","0.0-2.0-0.0","battery-v0.2","","[{""page_index"":0,""viewing_time"":2672.800000011921},{""page_index"":1,""viewing_time"":4719.5},{""page_index"":2,""viewing_time"":3247.699999988079},{""page_index"":3,""viewing_time"":1368},{""page_index"":4,""viewing_time"":1457.1000000089407},{""page_index"":3,""viewing_time"":2806.5},{""page_index"":4,""viewing_time"":2252.0999999940395},{""page_index"":5,""viewing_time"":1938.2000000029802},{""page_index"":6,""viewing_time"":2054.2000000029802},{""page_index"":7,""viewing_time"":2297.0999999940395},{""page_index"":8,""viewing_time"":5267},{""page_index"":9,""viewing_time"":1755.1000000089407},{""page_index"":10,""viewing_time"":4455.399999991059},{""page_index"":11,""viewing_time"":2610.2000000029802},{""page_index"":12,""viewing_time"":1806.0999999940395},{""page_index"":11,""viewing_time"":238.90000000596046},{""page_index"":10,""viewing_time"":808.7999999970198},{""page_index"":11,""viewing_time"":515.2000000029802},{""page_index"":12,""viewing_time"":4914},{""page_index"":13,""viewing_time"":3124.2999999970198},{""page_index"":14,""viewing_time"":1900}]","52209.60000000894","","","","","","","","","","","","","","","","","","","","","","",""
"pit-trial","3","59556","0.0-2.0-1.0-0.0","battery-v0.2","","","554.2000000029802","&#9784;","elianto","#FFFFF080","32","32","1","&#10004","1407.5999999940395","1","0","0","60fd9268c761e54a9b5cc483&order=&STUDY_ID=61f02a8661f82b834564f044","999","","","","","","","","","",""
"pit-trial","4","63029","0.0-2.0-1.1-0.1","battery-v0.2","","","603.6000000089407","&#9784;","elianto","#FFFFF080","32","32","1","&#10004","1461.2999999970198","1","0","0","60fd9268c761e54a9b5cc483&order=&STUDY_ID=61f02a8661f82b834564f044","999","","","","","","","","","",""
"pit-trial","5","66413","0.0-2.0-1.2-0.2","battery-v0.2","","","510.80000001192093","&#9784;","elianto","#FFFFF080","32","32","1","&#10004","1371.2999999970198","1","0","0","60fd9268c761e54a9b5cc483&order=&STUDY_ID=61f02a8661f82b834564f044","999","","","","","","","","","",""
"pit-trial","6","69752","0.0-2.0-1.3-0.3","battery-v0.2","","","476.40000000596046","&#9784;","elianto","#FFFFF080","32","32","1","&#10004","1327.2999999970198","1","0","0","60fd9268c761e54a9b5cc483&order=&STUDY_ID=61f02a8661f82b834564f044","999","","","","","","","","","",""
"pit-trial","7","73004","0.0-2.0-1.4-0.4","battery-v0.2","","","382.1000000089407","&#9784;","elianto","#FFFFF080","32","32","1","&#10004","1241.2000000029802","1","0","0","60fd9268c761e54a9b5cc483&order=&STUDY_ID=61f02a8661f82b834564f044","999","","","","","","","","","",""
"pit-instructions","8","80740","0.0-2.0-2.0","battery-v0.2","","[{""page_index"":0,""viewing_time"":2200.5},{""page_index"":1,""viewing_time"":1447.6000000089407},{""page_index"":2,""viewing_time"":2690.8999999910593},{""page_index"":3,""viewing_time"":1386.2999999970198}]","7726.29999999702","","","","","","","","","","","","","","","","","","","","","","",""
"pit-trial","9","85602","0.0-2.0-3.0-0.0","battery-v0.2","","","-1","&#9854;","elianto","#FFFFF080","-1","-1","1","&#10004","","0","0","1","60fd9268c761e54a9b5cc483&order=&STUDY_ID=61f02a8661f82b834564f044","999","","","","","","","","","",""
"pit-trial","10","90476","0.0-2.0-3.1-0.1","battery-v0.2","","","-1","&#9854;","elianto","#FFFFF080","-1","-1","1","&#10004","","0","0","1","60fd9268c761e54a9b5cc483&order=&STUDY_ID=61f02a8661f82b834564f044","999","","","","","","","","","",""
"pit-trial","11","95345","0.0-2.0-3.2-0.2","battery-v0.2","","","-1","&#9854;","elianto","#FFFFF080","-1","-1","1","&#10004","","0","0","1","60fd9268c761e54a9b5cc483&order=&STUDY_ID=61f02a8661f82b834564f044","999","","","","","","","","","",""
"pit-trial","12","100217","0.0-2.0-3.3-0.3","battery-v0.2","","","-1","&#9854;","elianto","#FFFFF080","-1","-1","1","&#10004","","0","0","1","60fd9268c761e54a9b5cc483&order=&STUDY_ID=61f02a8661f82b834564f044","999","","","","","","","","","",""
"pit-trial","13","105089","0.0-2.0-3.4-0.4","battery-v0.2","","","-1","&#9854;","elianto","#FFFFF080","-1","-1","1","&#10004","","0","0","1","60fd9268c761e54a9b5cc483&order=&STUDY_ID=61f02a8661f82b834564f044","999","","","","","","","","","",""
"pit-instructions","14","142517","0.0-2.0-4.0","battery-v0.2","","[{""page_index"":0,""viewing_time"":3002.199999988079},{""page_index"":1,""viewing_time"":2414.800000011921},{""page_index"":2,""viewing_time"":1627.699999988079},{""page_index"":3,""viewing_time"":3094.9000000059605},{""page_index"":4,""viewing_time"":1505.4000000059605},{""page_index"":5,""viewing_time"":1741},{""page_index"":6,""viewing_time"":1880.5},{""page_index"":7,""viewing_time"":3057.0999999940395},{""page_index"":8,""viewing_time"":1964},{""page_index"":9,""viewing_time"":1420.0999999940395},{""page_index"":10,""viewing_time"":1150.6000000089407},{""page_index"":11,""viewing_time"":933.7999999970198},{""page_index"":12,""viewing_time"":2324.5999999940395},{""page_index"":13,""viewing_time"":1971.5},{""page_index"":14,""viewing_time"":1979.1000000089407},{""page_index"":15,""viewing_time"":1728.5999999940395},{""page_index"":16,""viewing_time"":3678.2000000029802},{""page_index"":17,""viewing_time"":1944.0999999940395}]","37419.09999999404","","","","","","","","","","","","","","","","","","","","","","",""
"pit-trial","15","146004","0.0-2.0-5.0-0.0","battery-v0.2","","","607.3000000119209","&#9776;","elianto","#3366ff99","32","32","1","+10","1464.0999999940395","1","0","1","60fd9268c761e54a9b5cc483&order=&STUDY_ID=61f02a8661f82b834564f044","999","","","","","","","","","",""
"pit-trial","16","149430","0.0-2.0-5.0-1.0","battery-v0.2","","","551.5999999940395","&#9776;","elianto","#3366ff99","32","32","1","+10","1406.7000000029802","1","0","1","60fd9268c761e54a9b5cc483&order=&STUDY_ID=61f02a8661f82b834564f044","999","","","","","","","","","",""
"pit-trial","17","152816","0.0-2.0-5.0-2.0","battery-v0.2","","","514.6999999880791","&#9776;","elianto","#3366ff99","32","32","1","+10","1367.2000000029802","1","0","1","60fd9268c761e54a9b5cc483&order=&STUDY_ID=61f02a8661f82b834564f044","999","","","","","","","","","",""
"pit-trial","18","156288","0.0-2.0-5.0-3.0","battery-v0.2","","","607.5","&#9776;","elianto","#3366ff99","32","32","1","0","1460.0999999940395","1","0","1","60fd9268c761e54a9b5cc483&order=&STUDY_ID=61f02a8661f82b834564f044","999","","","","","","","","","",""
"pit-trial","19","159683","0.0-2.0-5.0-4.0","battery-v0.2","","","517.2000000029802","&#9776;","elianto","#3366ff99","32","32","1","+10","1376.7000000029802","1","0","1","60fd9268c761e54a9b5cc483&order=&STUDY_ID=61f02a8661f82b834564f044","999","","","","","","","","","",""
"call-function","20","159687","0.0-2.0-6.0","battery-v0.2","","","","","","","","","","","","","","","","","","","","","","","","","",""
"pit-instructions","21","216437","0.0-2.0-7.0","battery-v0.2","","[{""page_index"":0,""viewing_time"":39414.5},{""page_index"":1,""viewing_time"":1485.2000000029802},{""page_index"":2,""viewing_time"":2561.6000000089407},{""page_index"":3,""viewing_time"":5555.5999999940395},{""page_index"":4,""viewing_time"":2292.5},{""page_index"":5,""viewing_time"":5436.29999999702}]","56747","","","","","","","","","","","","","","","","","","","","","","",""
"pit-trial","22","221303","0.0-2.0-8.0-0.0","battery-v0.2","","","-1","&#9761;","elianto","#3366ff99","-1","-1","1","+10","","0","0","2","60fd9268c761e54a9b5cc483&order=&STUDY_ID=61f02a8661f82b834564f044","999","","","","","","","","","",""
"pit-trial","23","226173","0.0-2.0-8.0-1.0","battery-v0.2","","","-1","&#9761;","elianto","#3366ff99","-1","-1","1","+10","","0","0","2","60fd9268c761e54a9b5cc483&order=&STUDY_ID=61f02a8661f82b834564f044","999","","","","","","","","","",""
"pit-trial","24","231035","0.0-2.0-8.0-2.0","battery-v0.2","","","-1","&#9761;","elianto","#3366ff99","-1","-1","1","+10","","0","0","2","60fd9268c761e54a9b5cc483&order=&STUDY_ID=61f02a8661f82b834564f044","999","","","","","","","","","",""
"pit-trial","25","235907","0.0-2.0-8.0-3.0","battery-v0.2","","","-1","&#9761;","elianto","#3366ff99","-1","-1","1","0","","0","0","2","60fd9268c761e54a9b5cc483&order=&STUDY_ID=61f02a8661f82b834564f044","999","","","","","","","","","",""
"pit-trial","26","240772","0.0-2.0-8.0-4.0","battery-v0.2","","","-1","&#9761;","elianto","#3366ff99","-1","-1","1","+10","","0","0","2","60fd9268c761e54a9b5cc483&order=&STUDY_ID=61f02a8661f82b834564f044","999","","","","","","","","","",""
"call-function","27","240779","0.0-2.0-9.0","battery-v0.2","","","","","","","","","","","","","","","","","","","","","","","","","",""
"pit-instructions","28","287922","0.0-2.0-10.0","battery-v0.2","","[{""page_index"":0,""viewing_time"":40211.5},{""page_index"":1,""viewing_time"":1917},{""page_index"":2,""viewing_time"":1477.3999999910593},{""page_index"":3,""viewing_time"":2323.2999999970198},{""page_index"":4,""viewing_time"":1211.300000011921}]","47141.5","","","","","","","","","","","","","","","","","","","","","","",""
"pit-trial","29","291227","0.0-2.0-11.0-0.0","battery-v0.2","","","439.90000000596046","&#9826;","elianto","#f73b6a7A","-1","32","0","-10","1293","1","0","3","60fd9268c761e54a9b5cc483&order=&STUDY_ID=61f02a8661f82b834564f044","999","","","","","","","","","",""
"pit-trial","30","296091","0.0-2.0-11.0-1.0","battery-v0.2","","","-1","&#9826;","elianto","#f73b6a7A","-1","-1","1","0","","0","0","3","60fd9268c761e54a9b5cc483&order=&STUDY_ID=61f02a8661f82b834564f044","999","","","","","","","","","",""
"pit-trial","31","300955","0.0-2.0-11.0-2.0","battery-v0.2","","","-1","&#9826;","elianto","#f73b6a7A","-1","-1","1","0","","0","0","3","60fd9268c761e54a9b5cc483&order=&STUDY_ID=61f02a8661f82b834564f044","999","","","","","","","","","",""
"pit-trial","32","305818","0.0-2.0-11.0-3.0","battery-v0.2","","","-1","&#9826;","elianto","#f73b6a7A","-1","-1","1","-10","","0","0","3","60fd9268c761e54a9b5cc483&order=&STUDY_ID=61f02a8661f82b834564f044","999","","","","","","","","","",""
"pit-trial","33","310683","0.0-2.0-11.0-4.0","battery-v0.2","","","-1","&#9826;","elianto","#f73b6a7A","-1","-1","1","0","","0","0","3","60fd9268c761e54a9b5cc483&order=&STUDY_ID=61f02a8661f82b834564f044","999","","","","","","","","","",""
"call-function","34","310687","0.0-2.0-12.0","battery-v0.2","","","","","","","","","","","","","","","","","","","","","","","","","",""
"pit-instructions","35","336472","0.0-2.0-13.0","battery-v0.2","","[{""page_index"":0,""viewing_time"":23054.90000000596},{""page_index"":1,""viewing_time"":1406.5999999940395},{""page_index"":2,""viewing_time"":554.2000000029802},{""page_index"":3,""viewing_time"":765.9000000059605}]","25782.79999999702","","","","","","","","","","","","","","","","","","","","","","",""
"pit-trial","36","339764","0.0-2.0-14.0-0.0","battery-v0.2","","","421.09999999403954","&#9789;","elianto","#f73b6a7A","32","32","1","0","1277.7999999970198","1","0","4","60fd9268c761e54a9b5cc483&order=&STUDY_ID=61f02a8661f82b834564f044","999","","","","","","","","","",""
"pit-trial","37","343053","0.0-2.0-14.0-1.0","battery-v0.2","","","412.8999999910593","&#9789;","elianto","#f73b6a7A","32","32","1","0","1275","1","0","4","60fd9268c761e54a9b5cc483&order=&STUDY_ID=61f02a8661f82b834564f044","999","","","","","","","","","",""
"pit-trial","38","346357","0.0-2.0-14.0-2.0","battery-v0.2","","","440.30000001192093","&#9789;","elianto","#f73b6a7A","32","32","1","0","1291.2999999970198","1","0","4","60fd9268c761e54a9b5cc483&order=&STUDY_ID=61f02a8661f82b834564f044","999","","","","","","","","","",""
"pit-trial","39","349519","0.0-2.0-14.0-3.0","battery-v0.2","","","299.6000000089407","&#9789;","elianto","#f73b6a7A","32","32","1","-10","1153.1000000089407","1","0","4","60fd9268c761e54a9b5cc483&order=&STUDY_ID=61f02a8661f82b834564f044","999","","","","","","","","","",""
"pit-trial","40","352728","0.0-2.0-14.0-4.0","battery-v0.2","","","342.20000000298023","&#9789;","elianto","#f73b6a7A","32","32","1","0","1193.1000000089407","1","0","4","60fd9268c761e54a9b5cc483&order=&STUDY_ID=61f02a8661f82b834564f044","999","","","","","","","","","",""
"call-function","41","352731","0.0-2.0-15.0","battery-v0.2","","","","","","","","","","","","","","","","","","","","","","","","","",""
"pit-instructions","42","392876","0.0-2.0-16.0","battery-v0.2","","[{""page_index"":0,""viewing_time"":2707.4000000059605},{""page_index"":1,""viewing_time"":1621.7999999970198},{""page_index"":2,""viewing_time"":2526.4000000059605},{""page_index"":3,""viewing_time"":7681.0999999940395},{""page_index"":4,""viewing_time"":6242.0999999940395},{""page_index"":5,""viewing_time"":1408.9000000059605},{""page_index"":6,""viewing_time"":2605.9000000059605},{""page_index"":7,""viewing_time"":1392},{""page_index"":8,""viewing_time"":13957.199999988079}]","40143.90000000596","","","","","","","","","","","","","","","","","","","","","","",""
"pit-comprehension","43","397330","0.0-2.0-17.0-0.0","battery-v0.2","","","4444.4000000059605","","","","","","","","","","","","","","","SPACE","0","","","","","","",""
"pit-instructions","44","408876","0.0-2.0-17.0-1.0","battery-v0.2","","[{""page_index"":0,""viewing_time"":11434.70000000298}]","11435.5","","","","","","","","","","","","","","","","","","","","","","",""
"pit-comprehension","45","412111","0.0-2.0-18.0-0.0","battery-v0.2","","","3226.5999999940395","","","","","","","","","","","","","","","10","0","","","","","","",""
"pit-instructions","46","414201","0.0-2.0-18.0-1.0","battery-v0.2","","[{""page_index"":0,""viewing_time"":2041.4000000059605}]","2042.300000011921","","","","","","","","","","","","","","","","","","","","","","",""
"pit-comprehension","47","424057","0.0-2.0-19.0-0.0","battery-v0.2","","","9847.800000011921","","","","","","","","","","","","","","","0","0","","","","","","",""
"pit-instructions","48","425403","0.0-2.0-19.0-1.0","battery-v0.2","","[{""page_index"":0,""viewing_time"":1288}]","1289.2999999970198","","","","","","","","","","","","","","","","","","","","","","",""
"pit-comprehension","49","431675","0.0-2.0-20.0-0.0","battery-v0.2","","","6265.5","","","","","","","","","","","","","","","True","0","","","","","","",""
"pit-instructions","50","433099","0.0-2.0-20.0-1.0","battery-v0.2","","[{""page_index"":0,""viewing_time"":1371}]","1372.0999999940395","","","","","","","","","","","","","","","","","","","","","","",""
"pit-comprehension","51","438952","0.0-2.0-21.0-0.0","battery-v0.2","","","5845.20000000298","","","","","","","","","","","","","","","True","0","","","","","","",""
"pit-instructions","52","440453","0.0-2.0-21.0-1.0","battery-v0.2","","[{""page_index"":0,""viewing_time"":1445}]","1445.7999999970198","","","","","","","","","","","","","","","","","","","","","","",""
"pit-comprehension","53","444713","0.0-2.0-22.0-0.0","battery-v0.2","","","4253.20000000298","","","","","","","","","","","","","","","True","0","","","","","","",""
"pit-instructions","54","445857","0.0-2.0-22.0-1.0","battery-v0.2","","[{""page_index"":0,""viewing_time"":1091.5999999940395}]","1092.5","","","","","","","","","","","","","","","","","","","","","","",""
"pit-comprehension","55","450045","0.0-2.0-23.0-0.0","battery-v0.2","","","4182.79999999702","","","","","","","","","","","","","","","False","0","","","","","","",""
"pit-instructions","56","451121","0.0-2.0-23.0-1.0","battery-v0.2","","[{""page_index"":0,""viewing_time"":1031}]","1031.9000000059605","","","","","","","","","","","","","","","","","","","","","","",""
"pit-instructions","57","463493","0.0-3.0","battery-v0.2","","[{""page_index"":0,""viewing_time"":9072.89999999106},{""page_index"":1,""viewing_time"":1451.6000000089407},{""page_index"":2,""viewing_time"":1842}]","12367.79999999702","","","","","","","","","","","","","","","","","","","","","","",""
"pit-trial","58","467272","0.0-4.0","battery-v0.2","","","906.2000000029802","&#9728;","elianto","#f73b6a7A","-1","32","0","-10","1759","1","1","","","","","","","60fd9268c761e54a9b5cc483&order=&STUDY_ID=61f02a8661f82b834564f044","1","0","4","lose","no-go","0"
"pit-trial","59","470718","0.0-5.0","battery-v0.2","","","575.4000000059605","&#9730;","elianto","#3366ff99","32","32","1","+10","1427.2000000029802","1","1","","","","","","","60fd9268c761e54a9b5cc483&order=&STUDY_ID=61f02a8661f82b834564f044","2","1","1","win","go","0"
"pit-trial","60","474572","0.0-6.0","battery-v0.2","","","996.2000000029802","&#9752;","elianto","#f73b6a7A","32","32","1","0","1847.199999988079","1","1","","","","","","","60fd9268c761e54a9b5cc483&order=&STUDY_ID=61f02a8661f82b834564f044","3","3","3","lose","go","0"
"pit-trial","61","478360","0.0-7.0","battery-v0.2","","","920.9000000059605","&#9733;","elianto","#3366ff99","-1","32","0","0","1771.4000000059605","1","1","","","","","","","60fd9268c761e54a9b5cc483&order=&STUDY_ID=61f02a8661f82b834564f044","4","2","2","win","no-go","0"
"pit-trial","62","482079","0.0-8.0","battery-v0.2","","","858","&#9730;","elianto","#3366ff99","32","32","1","+10","1708.7000000029802","1","1","","","","","","","60fd9268c761e54a9b5cc483&order=&STUDY_ID=61f02a8661f82b834564f044","5","1","1","win","go","0"
"pit-trial","63","486944","0.0-9.0","battery-v0.2","","","-1","&#9733;","elianto","#3366ff99","-1","-1","1","0","","0","1","","","","","","","60fd9268c761e54a9b5cc483&order=&STUDY_ID=61f02a8661f82b834564f044","6","2","2","win","no-go","1"
"pit-trial","64","491800","0.0-10.0","battery-v0.2","","","-1","&#9728;","elianto","#f73b6a7A","-1","-1","1","0","","0","1","","","","","","","60fd9268c761e54a9b5cc483&order=&STUDY_ID=61f02a8661f82b834564f044","7","0","4","lose","no-go","0"
"pit-trial","65","495453","0.0-11.0","battery-v0.2","","","780.2000000029802","&#9752;","elianto","#f73b6a7A","32","32","1","0","1639.1000000089407","1","1","","","","","","","60fd9268c761e54a9b5cc483&order=&STUDY_ID=61f02a8661f82b834564f044","8","3","3","lose","go","0"
"pit-trial","66","499081","0.0-12.0","battery-v0.2","","","749.0999999940395","&#9730;","elianto","#3366ff99","32","32","1","+10","1608.5999999940395","1","1","","","","","","","60fd9268c761e54a9b5cc483&order=&STUDY_ID=61f02a8661f82b834564f044","9","1","1","win","go","0"
"pit-trial","67","503946","0.0-13.0","battery-v0.2","","","-1","&#9733;","elianto","#3366ff99","-1","-1","1","0","","0","1","","","","","","","60fd9268c761e54a9b5cc483&order=&STUDY_ID=61f02a8661f82b834564f044","10","2","2","win","no-go","1"
"pit-trial","68","507833","0.0-14.0","battery-v0.2","","","1028.3999999910593","&#9752;","elianto","#f73b6a7A","32","32","1","0","1879.8999999910593","1","1","","","","","","","60fd9268c761e54a9b5cc483&order=&STUDY_ID=61f02a8661f82b834564f044","11","3","3","lose","go","0"
"pit-trial","69","512697","0.0-15.0","battery-v0.2","","","-1","&#9728;","elianto","#f73b6a7A","-1","-1","1","0","","0","1","","","","","","","60fd9268c761e54a9b5cc483&order=&STUDY_ID=61f02a8661f82b834564f044","12","0","4","lose","no-go","0"
"pit-trial","70","516534","0.0-16.0","battery-v0.2","","","978.7000000029802","&#9752;","elianto","#f73b6a7A","32","32","1","-10","1832.7999999970198","1","1","","","","","","","60fd9268c761e54a9b5cc483&order=&STUDY_ID=61f02a8661f82b834564f044","13","3","3","lose","go","1"
"pit-trial","71","521400","0.0-17.0","battery-v0.2","","","-1","&#9728;","elianto","#f73b6a7A","-1","-1","1","0","","0","1","","","","","","","60fd9268c761e54a9b5cc483&order=&STUDY_ID=61f02a8661f82b834564f044","14","0","4","lose","no-go","0"
"pit-trial","72","524987","0.0-18.0","battery-v0.2","","","710.2999999970198","&#9730;","elianto","#3366ff99","32","32","1","+10","1562","1","1","","","","","","","60fd9268c761e54a9b5cc483&order=&STUDY_ID=61f02a8661f82b834564f044","15","1","1","win","go","0"
"pit-trial","73","529865","0.0-19.0","battery-v0.2","","","-1","&#9733;","elianto","#3366ff99","-1","-1","1","+10","","0","1","","","","","","","60fd9268c761e54a9b5cc483&order=&STUDY_ID=61f02a8661f82b834564f044","16","2","2","win","no-go","0"
"pit-trial","74","533820","0.0-20.0","battery-v0.2","","","1091.6000000089407","&#9752;","elianto","#f73b6a7A","32","32","1","-10","1943.5","1","1","","","","","","","60fd9268c761e54a9b5cc483&order=&STUDY_ID=61f02a8661f82b834564f044","17","3","3","lose","go","1"
"pit-trial","75","538692","0.0-21.0","battery-v0.2","","","-1","&#9728;","elianto","#f73b6a7A","-1","-1","1","0","","0","1","","","","","","","60fd9268c761e54a9b5cc483&order=&STUDY_ID=61f02a8661f82b834564f044","18","0","4","lose","no-go","0"
"pit-trial","76","543559","0.0-22.0","battery-v0.2","","","-1","&#9733;","elianto","#3366ff99","-1","-1","1","0","","0","1","","","","","","","60fd9268c761e54a9b5cc483&order=&STUDY_ID=61f02a8661f82b834564f044","19","2","2","win","no-go","1"
"pit-trial","77","547079","0.0-23.0","battery-v0.2","","","653.3000000119209","&#9730;","elianto","#3366ff99","32","32","1","0","1508.7999999970198","1","1","","","","","","","60fd9268c761e54a9b5cc483&order=&STUDY_ID=61f02a8661f82b834564f044","20","1","1","win","go","1"
"pit-instructions","78","577694","0.0-24.0","battery-v0.2","","[{""page_index"":0,""viewing_time"":28486.69999998808},{""page_index"":1,""viewing_time"":2125.6000000089407}]","30613","","","","","","","","","","","","","","","","","","","","","","",""
"pit-trial","79","581158","0.0-25.0","battery-v0.2","","","596.9000000059605","j","elianto","#3366ff99","-1","32","0","+10","1454.5","1","2","","","","","","","60fd9268c761e54a9b5cc483&order=&STUDY_ID=61f02a8661f82b834564f044","21","1","2","win","no-go","1"
"pit-trial","80","584585","0.0-26.0","battery-v0.2","","","553.7000000029802","d","elianto","#3366ff99","32","32","1","+10","1411.5","1","2","","","","","","","60fd9268c761e54a9b5cc483&order=&STUDY_ID=61f02a8661f82b834564f044","22","2","1","win","go","0"
"pit-trial","81","588424","0.0-27.0","battery-v0.2","","","971.5999999940395","k","elianto","#f73b6a7A","32","32","1","0","1823.7000000029802","1","2","","","","","","","60fd9268c761e54a9b5cc483&order=&STUDY_ID=61f02a8661f82b834564f044","23","3","3","lose","go","0"
"pit-trial","82","591961","0.0-28.0","battery-v0.2","","","662.7999999970198","v","elianto","#3366ff99","-1","32","0","0","1521.4000000059605","1","2","","","","","","","60fd9268c761e54a9b5cc483&order=&STUDY_ID=61f02a8661f82b834564f044","24","0","2","win","no-go","0"
"pit-trial","83","596833","0.0-29.0","battery-v0.2","","","-1","v","elianto","#3366ff99","-1","-1","1","0","","0","2","","","","","","","60fd9268c761e54a9b5cc483&order=&STUDY_ID=61f02a8661f82b834564f044","25","0","2","win","no-go","1"
"pit-trial","84","600377","0.0-30.0","battery-v0.2","","","676.1999999880791","j","elianto","#3366ff99","-1","32","0","+10","1533.699999988079","1","2","","","","","","","60fd9268c761e54a9b5cc483&order=&STUDY_ID=61f02a8661f82b834564f044","26","1","2","win","no-go","1"
"pit-trial","85","603757","0.0-31.0","battery-v0.2","","","520.5999999940395","d","elianto","#3366ff99","32","32","1","+10","1371.5","1","2","","","","","","","60fd9268c761e54a9b5cc483&order=&STUDY_ID=61f02a8661f82b834564f044","27","2","1","win","go","0"
"pit-trial","86","608080","0.0-32.0","battery-v0.2","","","1447.2999999970198","k","elianto","#f73b6a7A","32","32","1","0","2301","1","2","","","","","","","60fd9268c761e54a9b5cc483&order=&STUDY_ID=61f02a8661f82b834564f044","28","3","3","lose","go","0"
"pit-trial","87","611672","0.0-33.0","battery-v0.2","","","723.6999999880791","k","elianto","#f73b6a7A","32","32","1","-10","1577.0999999940395","1","2","","","","","","","60fd9268c761e54a9b5cc483&order=&STUDY_ID=61f02a8661f82b834564f044","29","3","3","lose","go","1"
"pit-trial","88","615535","0.0-34.0","battery-v0.2","","","991.6999999880791","d","elianto","#3366ff99","32","32","1","+10","1844.3999999910593","1","2","","","","","","","60fd9268c761e54a9b5cc483&order=&STUDY_ID=61f02a8661f82b834564f044","30","2","1","win","go","0"
"pit-trial","89","620416","0.0-35.0","battery-v0.2","","","-1","v","elianto","#3366ff99","-1","-1","1","+10","","0","2","","","","","","","60fd9268c761e54a9b5cc483&order=&STUDY_ID=61f02a8661f82b834564f044","31","0","2","win","no-go","0"
"pit-trial","90","623795","0.0-36.0","battery-v0.2","","","508.20000000298023","j","elianto","#3366ff99","-1","32","0","+10","1358.7000000029802","1","2","","","","","","","60fd9268c761e54a9b5cc483&order=&STUDY_ID=61f02a8661f82b834564f044","32","1","2","win","no-go","1"
"pit-trial","91","627398","0.0-37.0","battery-v0.2","","","734.9000000059605","j","elianto","#3366ff99","-1","32","0","0","1596","1","2","","","","","","","60fd9268c761e54a9b5cc483&order=&STUDY_ID=61f02a8661f82b834564f044","33","1","2","win","no-go","0"
"pit-trial","92","631659","0.0-38.0","battery-v0.2","","","1388.3999999910593","k","elianto","#f73b6a7A","32","32","1","0","2249.0999999940395","1","2","","","","","","","60fd9268c761e54a9b5cc483&order=&STUDY_ID=61f02a8661f82b834564f044","34","3","3","lose","go","0"
"pit-trial","93","636526","0.0-39.0","battery-v0.2","","","-1","v","elianto","#3366ff99","-1","-1","1","0","","0","2","","","","","","","60fd9268c761e54a9b5cc483&order=&STUDY_ID=61f02a8661f82b834564f044","35","0","2","win","no-go","1"
"pit-trial","94","640146","0.0-40.0","battery-v0.2","","","749.4000000059605","d","elianto","#3366ff99","32","32","1","+10","1601.5","1","2","","","","","","","60fd9268c761e54a9b5cc483&order=&STUDY_ID=61f02a8661f82b834564f044","36","2","1","win","go","0"
"pit-trial","95","643617","0.0-41.0","battery-v0.2","","","602.2999999970198","j","elianto","#3366ff99","-1","32","0","0","1462.1000000089407","1","2","","","","","","","60fd9268c761e54a9b5cc483&order=&STUDY_ID=61f02a8661f82b834564f044","37","1","2","win","no-go","0"
"pit-trial","96","647003","0.0-42.0","battery-v0.2","","","513.1000000089407","d","elianto","#3366ff99","32","32","1","+10","1364.699999988079","1","2","","","","","","","60fd9268c761e54a9b5cc483&order=&STUDY_ID=61f02a8661f82b834564f044","38","2","1","win","go","0"
"pit-trial","97","651033","0.0-43.0","battery-v0.2","","","1162.9000000059605","k","elianto","#f73b6a7A","32","32","1","0","2024","1","2","","","","","","","60fd9268c761e54a9b5cc483&order=&STUDY_ID=61f02a8661f82b834564f044","39","3","3","lose","go","0"
"pit-trial","98","655897","0.0-44.0","battery-v0.2","","","-1","v","elianto","#3366ff99","-1","-1","1","+10","","0","2","","","","","","","60fd9268c761e54a9b5cc483&order=&STUDY_ID=61f02a8661f82b834564f044","40","0","2","win","no-go","0"
"pit-trial","99","659633","0.0-45.0","battery-v0.2","","","869.5999999940395","k","elianto","#f73b6a7A","32","32","1","0","1723.5","1","2","","","","","","","60fd9268c761e54a9b5cc483&order=&STUDY_ID=61f02a8661f82b834564f044","41","3","3","lose","go","0"
"pit-trial","100","662979","0.0-46.0","battery-v0.2","","","470.20000000298023","j","elianto","#3366ff99","-1","32","0","0","1330.2999999970198","1","2","","","","","","","60fd9268c761e54a9b5cc483&order=&STUDY_ID=61f02a8661f82b834564f044","42","1","2","win","no-go","0"
"pit-trial","101","666227","0.0-47.0","battery-v0.2","","","385.80000001192093","v","elianto","#3366ff99","-1","32","0","0","1237.6000000089407","1","2","","","","","","","60fd9268c761e54a9b5cc483&order=&STUDY_ID=61f02a8661f82b834564f044","43","0","2","win","no-go","0"
"pit-trial","102","669677","0.0-48.0","battery-v0.2","","","588.4000000059605","d","elianto","#3366ff99","32","32","1","+10","1440.4000000059605","1","2","","","","","","","60fd9268c761e54a9b5cc483&order=&STUDY_ID=61f02a8661f82b834564f044","44","2","1","win","go","0"
"pit-trial","103","673167","0.0-49.0","battery-v0.2","","","624.5999999940395","j","elianto","#3366ff99","-1","32","0","0","1474.8999999910593","1","2","","","","","","","60fd9268c761e54a9b5cc483&order=&STUDY_ID=61f02a8661f82b834564f044","45","1","2","win","no-go","0"
"pit-trial","104","676519","0.0-50.0","battery-v0.2","","","492.6000000089407","d","elianto","#3366ff99","32","32","1","0","1346.5","1","2","","","","","","","60fd9268c761e54a9b5cc483&order=&STUDY_ID=61f02a8661f82b834564f044","46","2","1","win","go","1"
"pit-trial","105","680307","0.0-51.0","battery-v0.2","","","916.7999999970198","k","elianto","#f73b6a7A","32","32","1","-10","1777.2999999970198","1","2","","","","","","","60fd9268c761e54a9b5cc483&order=&STUDY_ID=61f02a8661f82b834564f044","47","3","3","lose","go","1"
"pit-trial","106","685163","0.0-52.0","battery-v0.2","","","-1","v","elianto","#3366ff99","-1","-1","1","+10","","0","2","","","","","","","60fd9268c761e54a9b5cc483&order=&STUDY_ID=61f02a8661f82b834564f044","48","0","2","win","no-go","0"
"pit-trial","107","688634","0.0-53.0","battery-v0.2","","","604.5","v","elianto","#3366ff99","-1","32","0","0","1455.7000000029802","1","2","","","","","","","60fd9268c761e54a9b5cc483&order=&STUDY_ID=61f02a8661f82b834564f044","49","0","2","win","no-go","0"
"pit-trial","108","692054","0.0-54.0","battery-v0.2","","","550.7000000029802","j","elianto","#3366ff99","-1","32","0","0","1411.5","1","2","","","","","","","60fd9268c761e54a9b5cc483&order=&STUDY_ID=61f02a8661f82b834564f044","50","1","2","win","no-go","0"
"pit-trial","109","695391","0.0-55.0","battery-v0.2","","","463.40000000596046","d","elianto","#3366ff99","32","32","1","+10","1323.0999999940395","1","2","","","","","","","60fd9268c761e54a9b5cc483&order=&STUDY_ID=61f02a8661f82b834564f044","51","2","1","win","go","0"
"pit-trial","110","698985","0.0-56.0","battery-v0.2","","","718.3999999910593","k","elianto","#f73b6a7A","32","32","1","0","1575.7999999970198","1","2","","","","","","","60fd9268c761e54a9b5cc483&order=&STUDY_ID=61f02a8661f82b834564f044","52","3","3","lose","go","0"
"pit-trial","111","703182","0.0-57.0","battery-v0.2","","","1333.2999999970198","w","elianto","#f73b6a7A","32","32","1","0","2187.3999999910593","1","2","","","","","","","60fd9268c761e54a9b5cc483&order=&STUDY_ID=61f02a8661f82b834564f044","53","5","3","lose","go","0"
"pit-trial","112","707104","0.0-58.0","battery-v0.2","","","1054.5","e","elianto","#f73b6a7A","-1","32","0","-10","1906.199999988079","1","2","","","","","","","60fd9268c761e54a9b5cc483&order=&STUDY_ID=61f02a8661f82b834564f044","54","4","4","lose","no-go","0"
"pit-trial","113","710808","0.0-59.0","battery-v0.2","","","838.7999999970198","v","elianto","#3366ff99","-1","32","0","+10","1700.199999988079","1","2","","","","","","","60fd9268c761e54a9b5cc483&order=&STUDY_ID=61f02a8661f82b834564f044","55","0","2","win","no-go","1"
"pit-trial","114","714562","0.0-60.0","battery-v0.2","","","890.4000000059605","d","elianto","#3366ff99","32","32","1","+10","1740.7999999970198","1","2","","","","","","","60fd9268c761e54a9b5cc483&order=&STUDY_ID=61f02a8661f82b834564f044","56","2","1","win","go","0"
"pit-trial","115","719425","0.0-61.0","battery-v0.2","","","-1","e","elianto","#f73b6a7A","-1","-1","1","0","","0","2","","","","","","","60fd9268c761e54a9b5cc483&order=&STUDY_ID=61f02a8661f82b834564f044","57","4","4","lose","no-go","0"
"pit-trial","116","722972","0.0-62.0","battery-v0.2","","","676.2999999970198","d","elianto","#3366ff99","32","32","1","+10","1535.9000000059605","1","2","","","","","","","60fd9268c761e54a9b5cc483&order=&STUDY_ID=61f02a8661f82b834564f044","58","2","1","win","go","0"
"pit-trial","117","727843","0.0-63.0","battery-v0.2","","","-1","v","elianto","#3366ff99","-1","-1","1","0","","0","2","","","","","","","60fd9268c761e54a9b5cc483&order=&STUDY_ID=61f02a8661f82b834564f044","59","0","2","win","no-go","1"
"pit-trial","118","732714","0.0-64.0","battery-v0.2","","","-1","w","elianto","#f73b6a7A","32","-1","0","-10","","0","2","","","","","","","60fd9268c761e54a9b5cc483&order=&STUDY_ID=61f02a8661f82b834564f044","60","5","3","lose","go","0"
"pit-trial","119","737070","0.0-65.0","battery-v0.2","","","1487.2000000029802","s","elianto","#3366ff99","-1","32","0","0","2340.7999999970198","1","2","","","","","","","60fd9268c761e54a9b5cc483&order=&STUDY_ID=61f02a8661f82b834564f044","61","6","2","win","no-go","0"
"pit-trial","120","741932","0.0-66.0","battery-v0.2","","","-1","e","elianto","#f73b6a7A","-1","-1","1","0","","0","2","","","","","","","60fd9268c761e54a9b5cc483&order=&STUDY_ID=61f02a8661f82b834564f044","62","4","4","lose","no-go","0"
"pit-trial","121","745404","0.0-67.0","battery-v0.2","","","609.1000000089407","d","elianto","#3366ff99","32","32","1","+10","1461.6000000089407","1","2","","","","","","","60fd9268c761e54a9b5cc483&order=&STUDY_ID=61f02a8661f82b834564f044","63","2","1","win","go","0"
"pit-trial","122","750268","0.0-68.0","battery-v0.2","","","-1","w","elianto","#f73b6a7A","32","-1","0","-10","","0","2","","","","","","","60fd9268c761e54a9b5cc483&order=&STUDY_ID=61f02a8661f82b834564f044","64","5","3","lose","go","0"
"pit-trial","123","753889","0.0-69.0","battery-v0.2","","","755.2999999970198","d","elianto","#3366ff99","32","32","1","0","1607.2000000029802","1","2","","","","","","","60fd9268c761e54a9b5cc483&order=&STUDY_ID=61f02a8661f82b834564f044","65","2","1","win","go","1"
"pit-trial","124","758767","0.0-70.0","battery-v0.2","","","-1","e","elianto","#f73b6a7A","-1","-1","1","0","","0","2","","","","","","","60fd9268c761e54a9b5cc483&order=&STUDY_ID=61f02a8661f82b834564f044","66","4","4","lose","no-go","0"
"pit-trial","125","762514","0.0-71.0","battery-v0.2","","","886.3000000119209","s","elianto","#3366ff99","-1","32","0","0","1739.2999999970198","1","2","","","","","","","60fd9268c761e54a9b5cc483&order=&STUDY_ID=61f02a8661f82b834564f044","67","6","2","win","no-go","0"
"pit-trial","126","767387","0.0-72.0","battery-v0.2","","","-1","w","elianto","#f73b6a7A","32","-1","0","-10","","0","2","","","","","","","60fd9268c761e54a9b5cc483&order=&STUDY_ID=61f02a8661f82b834564f044","68","5","3","lose","go","0"
"pit-trial","127","770857","0.0-73.0","battery-v0.2","","","603.1000000089407","s","elianto","#3366ff99","-1","32","0","0","1461","1","2","","","","","","","60fd9268c761e54a9b5cc483&order=&STUDY_ID=61f02a8661f82b834564f044","69","6","2","win","no-go","0"
"pit-trial","128","774728","0.0-74.0","battery-v0.2","","","1013.7999999970198","p","elianto","#f73b6a7A","-1","32","0","0","1864.2000000029802","1","2","","","","","","","60fd9268c761e54a9b5cc483&order=&STUDY_ID=61f02a8661f82b834564f044","70","7","4","lose","no-go","1"
"pit-trial","129","778940","0.0-75.0","battery-v0.2","","","1355.3999999910593","e","elianto","#f73b6a7A","-1","32","0","-10","2206.2000000029802","1","2","","","","","","","60fd9268c761e54a9b5cc483&order=&STUDY_ID=61f02a8661f82b834564f044","71","4","4","lose","no-go","0"
"pit-trial","130","783804","0.0-76.0","battery-v0.2","","","-1","w","elianto","#f73b6a7A","32","-1","0","-10","","0","2","","","","","","","60fd9268c761e54a9b5cc483&order=&STUDY_ID=61f02a8661f82b834564f044","72","5","3","lose","go","0"
"pit-trial","131","788685","0.0-77.0","battery-v0.2","","","-1","e","elianto","#f73b6a7A","-1","-1","1","-10","","0","2","","","","","","","60fd9268c761e54a9b5cc483&order=&STUDY_ID=61f02a8661f82b834564f044","73","4","4","lose","no-go","1"
"pit-trial","132","793547","0.0-78.0","battery-v0.2","","","-1","w","elianto","#f73b6a7A","32","-1","0","-10","","0","2","","","","","","","60fd9268c761e54a9b5cc483&order=&STUDY_ID=61f02a8661f82b834564f044","74","5","3","lose","go","0"
"pit-trial","133","797152","0.0-79.0","battery-v0.2","","","744","s","elianto","#3366ff99","-1","32","0","0","1594.5","1","2","","","","","","","60fd9268c761e54a9b5cc483&order=&STUDY_ID=61f02a8661f82b834564f044","75","6","2","win","no-go","0"
"pit-trial","134","801224","0.0-80.0","battery-v0.2","","","1212.5999999940395","p","elianto","#f73b6a7A","-1","32","0","-10","2064.5999999940395","1","2","","","","","","","60fd9268c761e54a9b5cc483&order=&STUDY_ID=61f02a8661f82b834564f044","76","7","4","lose","no-go","0"
"pit-trial","135","806095","0.0-81.0","battery-v0.2","","","-1","e","elianto","#f73b6a7A","-1","-1","1","0","","0","2","","","","","","","60fd9268c761e54a9b5cc483&order=&STUDY_ID=61f02a8661f82b834564f044","77","4","4","lose","no-go","0"
"pit-trial","136","809481","0.0-82.0","battery-v0.2","","","520","w","elianto","#f73b6a7A","32","32","1","0","1374.3999999910593","1","2","","","","","","","60fd9268c761e54a9b5cc483&order=&STUDY_ID=61f02a8661f82b834564f044","78","5","3","lose","go","0"
"pit-trial","137","813153","0.0-83.0","battery-v0.2","","","797.9000000059605","s","elianto","#3366ff99","-1","32","0","+10","1655.7000000029802","1","2","","","","","","","60fd9268c761e54a9b5cc483&order=&STUDY_ID=61f02a8661f82b834564f044","79","6","2","win","no-go","1"
"pit-trial","138","817158","0.0-84.0","battery-v0.2","","","1139.2999999970198","p","elianto","#f73b6a7A","-1","32","0","0","1999","1","2","","","","","","","60fd9268c761e54a9b5cc483&order=&STUDY_ID=61f02a8661f82b834564f044","80","7","4","lose","no-go","1"
"pit-trial","139","820913","0.0-85.0","battery-v0.2","","","881.2999999970198","s","elianto","#3366ff99","-1","32","0","+10","1741.7999999970198","1","2","","","","","","","60fd9268c761e54a9b5cc483&order=&STUDY_ID=61f02a8661f82b834564f044","81","6","2","win","no-go","1"
"pit-trial","140","825051","0.0-86.0","battery-v0.2","","","1273.5","p","elianto","#f73b6a7A","-1","32","0","-10","2131.0999999940395","1","2","","","","","","","60fd9268c761e54a9b5cc483&order=&STUDY_ID=61f02a8661f82b834564f044","82","7","4","lose","no-go","0"
"pit-trial","141","829922","0.0-87.0","battery-v0.2","","","-1","e","elianto","#f73b6a7A","-1","-1","1","0","","0","2","","","","","","","60fd9268c761e54a9b5cc483&order=&STUDY_ID=61f02a8661f82b834564f044","83","4","4","lose","no-go","0"
"pit-trial","142","833342","0.0-88.0","battery-v0.2","","","552.9000000059605","w","elianto","#f73b6a7A","32","32","1","0","1404.5","1","2","","","","","","","60fd9268c761e54a9b5cc483&order=&STUDY_ID=61f02a8661f82b834564f044","84","5","3","lose","go","0"
"pit-trial","143","837214","0.0-89.0","battery-v0.2","","","996.6999999880791","p","elianto","#f73b6a7A","-1","32","0","-10","1858.800000011921","1","2","","","","","","","60fd9268c761e54a9b5cc483&order=&STUDY_ID=61f02a8661f82b834564f044","85","7","4","lose","no-go","0"
"pit-trial","144","841202","0.0-90.0","battery-v0.2","","","1113.7999999970198","w","elianto","#f73b6a7A","32","32","1","-10","1972.7000000029802","1","2","","","","","","","60fd9268c761e54a9b5cc483&order=&STUDY_ID=61f02a8661f82b834564f044","86","5","3","lose","go","1"
"pit-trial","145","844705","0.0-91.0","battery-v0.2","","","636.8999999910593","s","elianto","#3366ff99","-1","32","0","0","1490.5","1","2","","","","","","","60fd9268c761e54a9b5cc483&order=&STUDY_ID=61f02a8661f82b834564f044","87","6","2","win","no-go","0"
"pit-trial","146","849567","0.0-92.0","battery-v0.2","","","-1","e","elianto","#f73b6a7A","-1","-1","1","0","","0","2","","","","","","","60fd9268c761e54a9b5cc483&order=&STUDY_ID=61f02a8661f82b834564f044","88","4","4","lose","no-go","0"
"pit-trial","147","852915","0.0-93.0","battery-v0.2","","","485.90000000596046","s","elianto","#3366ff99","-1","32","0","0","1338.1000000089407","1","2","","","","","","","60fd9268c761e54a9b5cc483&order=&STUDY_ID=61f02a8661f82b834564f044","89","6","2","win","no-go","0"
"pit-trial","148","857168","0.0-94.0","battery-v0.2","","","1383.8999999910593","w","elianto","#f73b6a7A","32","32","1","0","2241.2000000029802","1","2","","","","","","","60fd9268c761e54a9b5cc483&order=&STUDY_ID=61f02a8661f82b834564f044","90","5","3","lose","go","0"
"pit-trial","149","862041","0.0-95.0","battery-v0.2","","","-1","p","elianto","#f73b6a7A","-1","-1","1","0","","0","2","","","","","","","60fd9268c761e54a9b5cc483&order=&STUDY_ID=61f02a8661f82b834564f044","91","7","4","lose","no-go","0"
"pit-trial","150","866920","0.0-96.0","battery-v0.2","","","-1","e","elianto","#f73b6a7A","-1","-1","1","-10","","0","2","","","","","","","60fd9268c761e54a9b5cc483&order=&STUDY_ID=61f02a8661f82b834564f044","92","4","4","lose","no-go","1"
"pit-trial","151","870884","0.0-97.0","battery-v0.2","","","1097","p","elianto","#f73b6a7A","-1","32","0","-10","1957.2999999970198","1","2","","","","","","","60fd9268c761e54a9b5cc483&order=&STUDY_ID=61f02a8661f82b834564f044","93","7","4","lose","no-go","0"
"pit-trial","152","874520","0.0-98.0","battery-v0.2","","","774.8999999910593","s","elianto","#3366ff99","-1","32","0","0","1628.7999999970198","1","2","","","","","","","60fd9268c761e54a9b5cc483&order=&STUDY_ID=61f02a8661f82b834564f044","94","6","2","win","no-go","0"
"pit-trial","153","878374","0.0-99.0","battery-v0.2","","","991.5","w","elianto","#f73b6a7A","32","32","1","-10","1843.0999999940395","1","2","","","","","","","60fd9268c761e54a9b5cc483&order=&STUDY_ID=61f02a8661f82b834564f044","95","5","3","lose","go","1"
"pit-trial","154","882396","0.0-100.0","battery-v0.2","","","1149.7999999970198","g","elianto","#f73b6a7A","-1","32","0","-10","2009.5999999940395","1","2","","","","","","","60fd9268c761e54a9b5cc483&order=&STUDY_ID=61f02a8661f82b834564f044","96","8","4","lose","no-go","0"
"pit-trial","155","887258","0.0-101.0","battery-v0.2","","","-1","w","elianto","#f73b6a7A","32","-1","0","-10","","0","2","","","","","","","60fd9268c761e54a9b5cc483&order=&STUDY_ID=61f02a8661f82b834564f044","97","5","3","lose","go","0"
"pit-trial","156","892122","0.0-102.0","battery-v0.2","","","-1","p","elianto","#f73b6a7A","-1","-1","1","0","","0","2","","","","","","","60fd9268c761e54a9b5cc483&order=&STUDY_ID=61f02a8661f82b834564f044","98","7","4","lose","no-go","0"
"pit-trial","157","896977","0.0-103.0","battery-v0.2","","","-1","s","elianto","#3366ff99","-1","-1","1","+10","","0","2","","","","","","","60fd9268c761e54a9b5cc483&order=&STUDY_ID=61f02a8661f82b834564f044","99","6","2","win","no-go","0"
"pit-trial","158","901841","0.0-104.0","battery-v0.2","","","-1","g","elianto","#f73b6a7A","-1","-1","1","0","","0","2","","","","","","","60fd9268c761e54a9b5cc483&order=&STUDY_ID=61f02a8661f82b834564f044","100","8","4","lose","no-go","0"
"pit-trial","159","906707","0.0-105.0","battery-v0.2","","","-1","s","elianto","#3366ff99","-1","-1","1","+10","","0","2","","","","","","","60fd9268c761e54a9b5cc483&order=&STUDY_ID=61f02a8661f82b834564f044","101","6","2","win","no-go","0"
"pit-trial","160","911577","0.0-106.0","battery-v0.2","","","-1","g","elianto","#f73b6a7A","-1","-1","1","0","","0","2","","","","","","","60fd9268c761e54a9b5cc483&order=&STUDY_ID=61f02a8661f82b834564f044","102","8","4","lose","no-go","0"
"pit-trial","161","916448","0.0-107.0","battery-v0.2","","","-1","l","elianto","#f73b6a7A","32","-1","0","-10","","0","2","","","","","","","60fd9268c761e54a9b5cc483&order=&STUDY_ID=61f02a8661f82b834564f044","103","10","3","lose","go","0"
"pit-trial","162","920150","0.0-108.0","battery-v0.2","","","841.4000000059605","a","elianto","#3366ff99","32","32","1","0","1696.8999999910593","1","2","","","","","","","60fd9268c761e54a9b5cc483&order=&STUDY_ID=61f02a8661f82b834564f044","104","9","1","win","go","1"
"pit-trial","163","925016","0.0-109.0","battery-v0.2","","","-1","a","elianto","#3366ff99","32","-1","0","0","","0","2","","","","","","","60fd9268c761e54a9b5cc483&order=&STUDY_ID=61f02a8661f82b834564f044","105","9","1","win","go","0"
"pit-trial","164","929881","0.0-110.0","battery-v0.2","","","-1","s","elianto","#3366ff99","-1","-1","1","+10","","0","2","","","","","","","60fd9268c761e54a9b5cc483&order=&STUDY_ID=61f02a8661f82b834564f044","106","6","2","win","no-go","0"
"pit-trial","165","934753","0.0-111.0","battery-v0.2","","","-1","l","elianto","#f73b6a7A","32","-1","0","-10","","0","2","","","","","","","60fd9268c761e54a9b5cc483&order=&STUDY_ID=61f02a8661f82b834564f044","107","10","3","lose","go","0"
"pit-trial","166","939624","0.0-112.0","battery-v0.2","","","-1","g","elianto","#f73b6a7A","-1","-1","1","0","","0","2","","","","","","","60fd9268c761e54a9b5cc483&order=&STUDY_ID=61f02a8661f82b834564f044","108","8","4","lose","no-go","0"
"pit-trial","167","944503","0.0-113.0","battery-v0.2","","","-1","a","elianto","#3366ff99","32","-1","0","0","","0","2","","","","","","","60fd9268c761e54a9b5cc483&order=&STUDY_ID=61f02a8661f82b834564f044","109","9","1","win","go","0"
"pit-trial","168","949369","0.0-114.0","battery-v0.2","","","-1","l","elianto","#f73b6a7A","32","-1","0","-10","","0","2","","","","","","","60fd9268c761e54a9b5cc483&order=&STUDY_ID=61f02a8661f82b834564f044","110","10","3","lose","go","0"
"pit-trial","169","954226","0.0-115.0","battery-v0.2","","","-1","g","elianto","#f73b6a7A","-1","-1","1","0","","0","2","","","","","","","60fd9268c761e54a9b5cc483&order=&STUDY_ID=61f02a8661f82b834564f044","111","8","4","lose","no-go","0"
"pit-trial","170","958281","0.0-116.0","battery-v0.2","","","1180.1000000089407","u","elianto","#3366ff99","32","32","1","+10","2038.4000000059605","1","2","","","","","","","60fd9268c761e54a9b5cc483&order=&STUDY_ID=61f02a8661f82b834564f044","112","11","1","win","go","0"
"pit-trial","171","961817","0.0-117.0","battery-v0.2","","","671.2999999970198","u","elianto","#3366ff99","32","32","1","+10","1528.9000000059605","1","2","","","","","","","60fd9268c761e54a9b5cc483&order=&STUDY_ID=61f02a8661f82b834564f044","113","11","1","win","go","0"
"pit-trial","172","965371","0.0-118.0","battery-v0.2","","","689.6000000089407","a","elianto","#3366ff99","32","32","1","0","1544.7000000029802","1","2","","","","","","","60fd9268c761e54a9b5cc483&order=&STUDY_ID=61f02a8661f82b834564f044","114","9","1","win","go","1"
"pit-trial","173","970244","0.0-119.0","battery-v0.2","","","-1","l","elianto","#f73b6a7A","32","-1","0","-10","","0","2","","","","","","","60fd9268c761e54a9b5cc483&order=&STUDY_ID=61f02a8661f82b834564f044","115","10","3","lose","go","0"
"pit-trial","174","975115","0.0-120.0","battery-v0.2","","","-1","g","elianto","#f73b6a7A","-1","-1","1","0","","0","2","","","","","","","60fd9268c761e54a9b5cc483&order=&STUDY_ID=61f02a8661f82b834564f044","116","8","4","lose","no-go","0"
"pit-trial","175","978619","0.0-121.0","battery-v0.2","","","636","a","elianto","#3366ff99","32","32","1","+10","1499.2000000029802","1","2","","","","","","","60fd9268c761e54a9b5cc483&order=&STUDY_ID=61f02a8661f82b834564f044","117","9","1","win","go","0"
"pit-trial","176","983499","0.0-122.0","battery-v0.2","","","-1","g","elianto","#f73b6a7A","-1","-1","1","0","","0","2","","","","","","","60fd9268c761e54a9b5cc483&order=&STUDY_ID=61f02a8661f82b834564f044","118","8","4","lose","no-go","0"
"pit-trial","177","988364","0.0-123.0","battery-v0.2","","","-1","l","elianto","#f73b6a7A","32","-1","0","-10","","0","2","","","","","","","60fd9268c761e54a9b5cc483&order=&STUDY_ID=61f02a8661f82b834564f044","119","10","3","lose","go","0"
"pit-trial","178","992291","0.0-124.0","battery-v0.2","","","1058.2999999970198","u","elianto","#3366ff99","32","32","1","+10","1909.9000000059605","1","2","","","","","","","60fd9268c761e54a9b5cc483&order=&STUDY_ID=61f02a8661f82b834564f044","120","11","1","win","go","0"
"pit-trial","179","995821","0.0-125.0","battery-v0.2","","","671.9000000059605","a","elianto","#3366ff99","32","32","1","+10","1523.5","1","2","","","","","","","60fd9268c761e54a9b5cc483&order=&STUDY_ID=61f02a8661f82b834564f044","121","9","1","win","go","0"
"pit-trial","180","1000697","0.0-126.0","battery-v0.2","","","-1","g","elianto","#f73b6a7A","-1","-1","1","-10","","0","2","","","","","","","60fd9268c761e54a9b5cc483&order=&STUDY_ID=61f02a8661f82b834564f044","122","8","4","lose","no-go","1"
"pit-trial","181","1005566","0.0-127.0","battery-v0.2","","","-1","l","elianto","#f73b6a7A","32","-1","0","-10","","0","2","","","","","","","60fd9268c761e54a9b5cc483&order=&STUDY_ID=61f02a8661f82b834564f044","123","10","3","lose","go","0"
"pit-trial","182","1009110","0.0-128.0","battery-v0.2","","","669.5","u","elianto","#3366ff99","32","32","1","+10","1521.7999999970198","1","2","","","","","","","60fd9268c761e54a9b5cc483&order=&STUDY_ID=61f02a8661f82b834564f044","124","11","1","win","go","0"
"pit-trial","183","1012689","0.0-129.0","battery-v0.2","","","714","a","elianto","#3366ff99","32","32","1","+10","1565.6000000089407","1","2","","","","","","","60fd9268c761e54a9b5cc483&order=&STUDY_ID=61f02a8661f82b834564f044","125","9","1","win","go","0"
"pit-trial","184","1017561","0.0-130.0","battery-v0.2","","","-1","g","elianto","#f73b6a7A","-1","-1","1","0","","0","2","","","","","","","60fd9268c761e54a9b5cc483&order=&STUDY_ID=61f02a8661f82b834564f044","126","8","4","lose","no-go","0"
"pit-trial","185","1021049","0.0-131.0","battery-v0.2","","","612.3000000119209","u","elianto","#3366ff99","32","32","1","+10","1473.7000000029802","1","2","","","","","","","60fd9268c761e54a9b5cc483&order=&STUDY_ID=61f02a8661f82b834564f044","127","11","1","win","go","0"
"pit-trial","186","1025920","0.0-132.0","battery-v0.2","","","-1","l","elianto","#f73b6a7A","32","-1","0","-10","","0","2","","","","","","","60fd9268c761e54a9b5cc483&order=&STUDY_ID=61f02a8661f82b834564f044","128","10","3","lose","go","0"
"pit-trial","187","1030793","0.0-133.0","battery-v0.2","","","-1","g","elianto","#f73b6a7A","-1","-1","1","0","","0","2","","","","","","","60fd9268c761e54a9b5cc483&order=&STUDY_ID=61f02a8661f82b834564f044","129","8","4","lose","no-go","0"
"pit-trial","188","1035656","0.0-134.0","battery-v0.2","","","-1","l","elianto","#f73b6a7A","32","-1","0","-10","","0","2","","","","","","","60fd9268c761e54a9b5cc483&order=&STUDY_ID=61f02a8661f82b834564f044","130","10","3","lose","go","0"
"pit-trial","189","1039219","0.0-135.0","battery-v0.2","","","699.7000000029802","a","elianto","#3366ff99","32","32","1","+10","1551.7999999970198","1","2","","","","","","","60fd9268c761e54a9b5cc483&order=&STUDY_ID=61f02a8661f82b834564f044","131","9","1","win","go","0"
"pit-trial","190","1042740","0.0-136.0","battery-v0.2","","","660.9000000059605","u","elianto","#3366ff99","32","32","1","+10","1512.300000011921","1","2","","","","","","","60fd9268c761e54a9b5cc483&order=&STUDY_ID=61f02a8661f82b834564f044","132","11","1","win","go","0"
"pit-trial","191","1046193","0.0-137.0","battery-v0.2","","","589.4000000059605","a","elianto","#3366ff99","32","32","1","+10","1439.6000000089407","1","2","","","","","","","60fd9268c761e54a9b5cc483&order=&STUDY_ID=61f02a8661f82b834564f044","133","9","1","win","go","0"
"pit-trial","192","1051066","0.0-138.0","battery-v0.2","","","-1","l","elianto","#f73b6a7A","32","-1","0","-10","","0","2","","","","","","","60fd9268c761e54a9b5cc483&order=&STUDY_ID=61f02a8661f82b834564f044","134","10","3","lose","go","0"
"pit-trial","193","1054554","0.0-139.0","battery-v0.2","","","613.8000000119209","u","elianto","#3366ff99","32","32","1","+10","1469.1000000089407","1","2","","","","","","","60fd9268c761e54a9b5cc483&order=&STUDY_ID=61f02a8661f82b834564f044","135","11","1","win","go","0"
"pit-trial","194","1059426","0.0-140.0","battery-v0.2","","","-1","g","elianto","#f73b6a7A","-1","-1","1","0","","0","2","","","","","","","60fd9268c761e54a9b5cc483&order=&STUDY_ID=61f02a8661f82b834564f044","136","8","4","lose","no-go","0"
"pit-trial","195","1064305","0.0-141.0","battery-v0.2","","","-1","g","elianto","#f73b6a7A","-1","-1","1","0","","0","2","","","","","","","60fd9268c761e54a9b5cc483&order=&STUDY_ID=61f02a8661f82b834564f044","137","8","4","lose","no-go","0"
"pit-trial","196","1069175","0.0-142.0","battery-v0.2","","","-1","l","elianto","#f73b6a7A","32","-1","0","-10","","0","2","","","","","","","60fd9268c761e54a9b5cc483&order=&STUDY_ID=61f02a8661f82b834564f044","138","10","3","lose","go","0"
"pit-trial","197","1072588","0.0-143.0","battery-v0.2","","","547.5","u","elianto","#3366ff99","32","32","1","+10","1400.5999999940395","1","2","","","","","","","60fd9268c761e54a9b5cc483&order=&STUDY_ID=61f02a8661f82b834564f044","139","11","1","win","go","0"
"pit-trial","198","1075966","0.0-144.0","battery-v0.2","","","517.7000000029802","a","elianto","#3366ff99","32","32","1","+10","1369.2000000029802","1","2","","","","","","","60fd9268c761e54a9b5cc483&order=&STUDY_ID=61f02a8661f82b834564f044","140","9","1","win","go","0"
"pit-instructions","199","1142690","0.0-145.0","battery-v0.2","","[{""page_index"":0,""viewing_time"":63853.59999999404},{""page_index"":1,""viewing_time"":2863.5}]","66720.70000000298","","","","","","","","","","","","","","","","","","","","","","",""
"pit-trial","200","1146407","0.0-146.0","battery-v0.2","","","841.0999999940395","n","elianto","#f73b6a7A","32","32","1","0","1692.1000000089407","1","3","","","","","","","60fd9268c761e54a9b5cc483&order=&STUDY_ID=61f02a8661f82b834564f044","141","1","3","lose","go","0"
"pit-trial","201","1149992","0.0-147.0","battery-v0.2","","","724.7000000029802","q","elianto","#3366ff99","-1","32","0","0","1578.4000000059605","1","3","","","","","","","60fd9268c761e54a9b5cc483&order=&STUDY_ID=61f02a8661f82b834564f044","142","0","2","win","no-go","0"
"pit-trial","202","1153712","0.0-148.0","battery-v0.2","","","850.5999999940395","f","elianto","#f73b6a7A","-1","32","0","0","1704.2000000029802","1","3","","","","","","","60fd9268c761e54a9b5cc483&order=&STUDY_ID=61f02a8661f82b834564f044","143","2","4","lose","no-go","1"
"pit-trial","203","1157482","0.0-149.0","battery-v0.2","","","902.6000000089407","x","elianto","#3366ff99","32","32","1","+10","1760.5999999940395","1","3","","","","","","","60fd9268c761e54a9b5cc483&order=&STUDY_ID=61f02a8661f82b834564f044","144","3","1","win","go","0"
"pit-trial","204","1161169","0.0-150.0","battery-v0.2","","","820.2999999970198","n","elianto","#f73b6a7A","32","32","1","-10","1675.2000000029802","1","3","","","","","","","60fd9268c761e54a9b5cc483&order=&STUDY_ID=61f02a8661f82b834564f044","145","1","3","lose","go","1"
"pit-trial","205","1164847","0.0-151.0","battery-v0.2","","","803.2999999970198","f","elianto","#f73b6a7A","-1","32","0","-10","1661.9000000059605","1","3","","","","","","","60fd9268c761e54a9b5cc483&order=&STUDY_ID=61f02a8661f82b834564f044","146","2","4","lose","no-go","0"
"pit-trial","206","1169714","0.0-152.0","battery-v0.2","","","-1","q","elianto","#3366ff99","-1","-1","1","+10","","0","3","","","","","","","60fd9268c761e54a9b5cc483&order=&STUDY_ID=61f02a8661f82b834564f044","147","0","2","win","no-go","0"
"pit-trial","207","1173516","0.0-153.0","battery-v0.2","","","943.7999999970198","x","elianto","#3366ff99","32","32","1","+10","1796.199999988079","1","3","","","","","","","60fd9268c761e54a9b5cc483&order=&STUDY_ID=61f02a8661f82b834564f044","148","3","1","win","go","0"
"pit-trial","208","1177671","0.0-154.0","battery-v0.2","","","1290.5","f","elianto","#f73b6a7A","-1","32","0","-10","2143.5999999940395","1","3","","","","","","","60fd9268c761e54a9b5cc483&order=&STUDY_ID=61f02a8661f82b834564f044","149","2","4","lose","no-go","0"
"pit-trial","209","1182534","0.0-155.0","battery-v0.2","","","-1","q","elianto","#3366ff99","-1","-1","1","+10","","0","3","","","","","","","60fd9268c761e54a9b5cc483&order=&STUDY_ID=61f02a8661f82b834564f044","150","0","2","win","no-go","0"
"pit-trial","210","1186397","0.0-156.0","battery-v0.2","","","1003.0999999940395","x","elianto","#3366ff99","32","32","1","+10","1853.1000000089407","1","3","","","","","","","60fd9268c761e54a9b5cc483&order=&STUDY_ID=61f02a8661f82b834564f044","151","3","1","win","go","0"
"pit-trial","211","1191269","0.0-157.0","battery-v0.2","","","-1","n","elianto","#f73b6a7A","32","-1","0","0","","0","3","","","","","","","60fd9268c761e54a9b5cc483&order=&STUDY_ID=61f02a8661f82b834564f044","152","1","3","lose","go","1"
"pit-trial","212","1194757","0.0-158.0","battery-v0.2","","","619.5999999940395","x","elianto","#3366ff99","32","32","1","+10","1472.4000000059605","1","3","","","","","","","60fd9268c761e54a9b5cc483&order=&STUDY_ID=61f02a8661f82b834564f044","153","3","1","win","go","0"
"pit-trial","213","1199636","0.0-159.0","battery-v0.2","","","-1","f","elianto","#f73b6a7A","-1","-1","1","-10","","0","3","","","","","","","60fd9268c761e54a9b5cc483&order=&STUDY_ID=61f02a8661f82b834564f044","154","2","4","lose","no-go","1"
"pit-trial","214","1204510","0.0-160.0","battery-v0.2","","","-1","q","elianto","#3366ff99","-1","-1","1","+10","","0","3","","","","","","","60fd9268c761e54a9b5cc483&order=&STUDY_ID=61f02a8661f82b834564f044","155","0","2","win","no-go","0"
"pit-trial","215","1208208","0.0-161.0","battery-v0.2","","","833.6999999880791","n","elianto","#f73b6a7A","32","32","1","0","1684.199999988079","1","3","","","","","","","60fd9268c761e54a9b5cc483&order=&STUDY_ID=61f02a8661f82b834564f044","156","1","3","lose","go","0"
"pit-trial","216","1211826","0.0-162.0","battery-v0.2","","","740.3000000119209","x","elianto","#3366ff99","32","32","1","0","1595.800000011921","1","3","","","","","","","60fd9268c761e54a9b5cc483&order=&STUDY_ID=61f02a8661f82b834564f044","157","3","1","win","go","1"
"pit-trial","217","1216038","0.0-163.0","battery-v0.2","","","1340","f","elianto","#f73b6a7A","-1","32","0","-10","2192.1000000089407","1","3","","","","","","","60fd9268c761e54a9b5cc483&order=&STUDY_ID=61f02a8661f82b834564f044","158","2","4","lose","no-go","0"
"pit-trial","218","1220903","0.0-164.0","battery-v0.2","","","-1","q","elianto","#3366ff99","-1","-1","1","+10","","0","3","","","","","","","60fd9268c761e54a9b5cc483&order=&STUDY_ID=61f02a8661f82b834564f044","159","0","2","win","no-go","0"
"pit-trial","219","1225499","0.0-165.0","battery-v0.2","","","1722","n","elianto","#f73b6a7A","32","32","1","0","2580.4000000059605","1","3","","","","","","","60fd9268c761e54a9b5cc483&order=&STUDY_ID=61f02a8661f82b834564f044","160","1","3","lose","go","0"
"pit-trial","220","1229663","0.0-166.0","battery-v0.2","","","1296.7999999970198","n","elianto","#f73b6a7A","32","32","1","0","2157.7000000029802","1","3","","","","","","","60fd9268c761e54a9b5cc483&order=&STUDY_ID=61f02a8661f82b834564f044","161","1","3","lose","go","0"
"pit-trial","221","1233840","0.0-167.0","battery-v0.2","","","1304.8999999910593","x","elianto","#3366ff99","32","32","1","+10","2161.5","1","3","","","","","","","60fd9268c761e54a9b5cc483&order=&STUDY_ID=61f02a8661f82b834564f044","162","3","1","win","go","0"
"pit-trial","222","1238404","0.0-168.0","battery-v0.2","","","1694","f","elianto","#f73b6a7A","-1","32","0","-10","2546.7000000029802","1","3","","","","","","","60fd9268c761e54a9b5cc483&order=&STUDY_ID=61f02a8661f82b834564f044","163","2","4","lose","no-go","0"
"pit-trial","223","1243260","0.0-169.0","battery-v0.2","","","-1","q","elianto","#3366ff99","-1","-1","1","0","","0","3","","","","","","","60fd9268c761e54a9b5cc483&order=&STUDY_ID=61f02a8661f82b834564f044","164","0","2","win","no-go","1"
"pit-trial","224","1247248","0.0-170.0","battery-v0.2","","","1115.7999999970198","x","elianto","#3366ff99","32","32","1","+10","1969.300000011921","1","3","","","","","","","60fd9268c761e54a9b5cc483&order=&STUDY_ID=61f02a8661f82b834564f044","165","3","1","win","go","0"
"pit-trial","225","1252120","0.0-171.0","battery-v0.2","","","-1","q","elianto","#3366ff99","-1","-1","1","+10","","0","3","","","","","","","60fd9268c761e54a9b5cc483&order=&STUDY_ID=61f02a8661f82b834564f044","166","0","2","win","no-go","0"
"pit-trial","226","1255875","0.0-172.0","battery-v0.2","","","891.8000000119209","n","elianto","#f73b6a7A","32","32","1","0","1747.5","1","3","","","","","","","60fd9268c761e54a9b5cc483&order=&STUDY_ID=61f02a8661f82b834564f044","167","1","3","lose","go","0"
"pit-trial","227","1260749","0.0-173.0","battery-v0.2","","","-1","f","elianto","#f73b6a7A","-1","-1","1","0","","0","3","","","","","","","60fd9268c761e54a9b5cc483&order=&STUDY_ID=61f02a8661f82b834564f044","168","2","4","lose","no-go","0"
"pit-trial","228","1264348","0.0-174.0","battery-v0.2","","","738.1000000089407","x","elianto","#3366ff99","32","32","1","+10","1590.7999999970198","1","3","","","","","","","60fd9268c761e54a9b5cc483&order=&STUDY_ID=61f02a8661f82b834564f044","169","3","1","win","go","0"
"pit-trial","229","1267978","0.0-175.0","battery-v0.2","","","757.2999999970198","n","elianto","#f73b6a7A","32","32","1","0","1611.6000000089407","1","3","","","","","","","60fd9268c761e54a9b5cc483&order=&STUDY_ID=61f02a8661f82b834564f044","170","1","3","lose","go","0"
"pit-trial","230","1272843","0.0-176.0","battery-v0.2","","","-1","f","elianto","#f73b6a7A","-1","-1","1","0","","0","3","","","","","","","60fd9268c761e54a9b5cc483&order=&STUDY_ID=61f02a8661f82b834564f044","171","2","4","lose","no-go","0"
"pit-trial","231","1277707","0.0-177.0","battery-v0.2","","","-1","q","elianto","#3366ff99","-1","-1","1","+10","","0","3","","","","","","","60fd9268c761e54a9b5cc483&order=&STUDY_ID=61f02a8661f82b834564f044","172","0","2","win","no-go","0"
"pit-trial","232","1281236","0.0-178.0","battery-v0.2","","","660.5","f","elianto","#f73b6a7A","-1","32","0","-10","1520.4000000059605","1","3","","","","","","","60fd9268c761e54a9b5cc483&order=&STUDY_ID=61f02a8661f82b834564f044","173","2","4","lose","no-go","0"
"pit-trial","233","1285196","0.0-179.0","battery-v0.2","","","1092.5999999940395","t","elianto","#f73b6a7A","32","32","1","0","1944.2000000029802","1","3","","","","","","","60fd9268c761e54a9b5cc483&order=&STUDY_ID=61f02a8661f82b834564f044","174","4","3","lose","go","0"
"pit-trial","234","1289046","0.0-180.0","battery-v0.2","","","986.2999999970198","n","elianto","#f73b6a7A","32","32","1","0","1839","1","3","","","","","","","60fd9268c761e54a9b5cc483&order=&STUDY_ID=61f02a8661f82b834564f044","175","1","3","lose","go","0"
"pit-trial","235","1293082","0.0-181.0","battery-v0.2","","","1161.6000000089407","b","elianto","#f73b6a7A","-1","32","0","-10","2019.9000000059605","1","3","","","","","","","60fd9268c761e54a9b5cc483&order=&STUDY_ID=61f02a8661f82b834564f044","176","5","4","lose","no-go","0"
"pit-trial","236","1297956","0.0-182.0","battery-v0.2","","","-1","f","elianto","#f73b6a7A","-1","-1","1","0","","0","3","","","","","","","60fd9268c761e54a9b5cc483&order=&STUDY_ID=61f02a8661f82b834564f044","177","2","4","lose","no-go","0"
"pit-trial","237","1302827","0.0-183.0","battery-v0.2","","","-1","b","elianto","#f73b6a7A","-1","-1","1","-10","","0","3","","","","","","","60fd9268c761e54a9b5cc483&order=&STUDY_ID=61f02a8661f82b834564f044","178","5","4","lose","no-go","1"
"pit-trial","238","1307690","0.0-184.0","battery-v0.2","","","-1","t","elianto","#f73b6a7A","32","-1","0","0","","0","3","","","","","","","60fd9268c761e54a9b5cc483&order=&STUDY_ID=61f02a8661f82b834564f044","179","4","3","lose","go","1"
"pit-trial","239","1312328","0.0-185.0","battery-v0.2","","","1775.2999999970198","n","elianto","#f73b6a7A","32","32","1","0","2625.9000000059605","1","3","","","","","","","60fd9268c761e54a9b5cc483&order=&STUDY_ID=61f02a8661f82b834564f044","180","1","3","lose","go","0"
"pit-trial","240","1316509","0.0-186.0","battery-v0.2","","","1321.2999999970198","c","elianto","#3366ff99","-1","32","0","0","2171.7999999970198","1","3","","","","","","","60fd9268c761e54a9b5cc483&order=&STUDY_ID=61f02a8661f82b834564f044","181","6","2","win","no-go","0"
"pit-trial","241","1321114","0.0-187.0","battery-v0.2","","","1738.0999999940395","f","elianto","#f73b6a7A","-1","32","0","-10","2592.5","1","3","","","","","","","60fd9268c761e54a9b5cc483&order=&STUDY_ID=61f02a8661f82b834564f044","182","2","4","lose","no-go","0"
"pit-trial","242","1325984","0.0-188.0","battery-v0.2","","","-1","b","elianto","#f73b6a7A","-1","-1","1","0","","0","3","","","","","","","60fd9268c761e54a9b5cc483&order=&STUDY_ID=61f02a8661f82b834564f044","183","5","4","lose","no-go","0"
"pit-trial","243","1330856","0.0-189.0","battery-v0.2","","","-1","t","elianto","#f73b6a7A","32","-1","0","0","","0","3","","","","","","","60fd9268c761e54a9b5cc483&order=&STUDY_ID=61f02a8661f82b834564f044","184","4","3","lose","go","1"
"pit-trial","244","1335470","0.0-190.0","battery-v0.2","","","1744.0999999940395","f","elianto","#f73b6a7A","-1","32","0","-10","2594.2999999970198","1","3","","","","","","","60fd9268c761e54a9b5cc483&order=&STUDY_ID=61f02a8661f82b834564f044","185","2","4","lose","no-go","0"
"pit-trial","245","1340336","0.0-191.0","battery-v0.2","","","-1","b","elianto","#f73b6a7A","-1","-1","1","0","","0","3","","","","","","","60fd9268c761e54a9b5cc483&order=&STUDY_ID=61f02a8661f82b834564f044","186","5","4","lose","no-go","0"
"pit-trial","246","1345206","0.0-192.0","battery-v0.2","","","-1","t","elianto","#f73b6a7A","32","-1","0","-10","","0","3","","","","","","","60fd9268c761e54a9b5cc483&order=&STUDY_ID=61f02a8661f82b834564f044","187","4","3","lose","go","0"
"pit-trial","247","1349193","0.0-193.0","battery-v0.2","","","1126.2999999970198","c","elianto","#3366ff99","-1","32","0","0","1976.7999999970198","1","3","","","","","","","60fd9268c761e54a9b5cc483&order=&STUDY_ID=61f02a8661f82b834564f044","188","6","2","win","no-go","0"
"pit-trial","248","1354066","0.0-194.0","battery-v0.2","","","-1","c","elianto","#3366ff99","-1","-1","1","+10","","0","3","","","","","","","60fd9268c761e54a9b5cc483&order=&STUDY_ID=61f02a8661f82b834564f044","189","6","2","win","no-go","0"
"pit-trial","249","1358940","0.0-195.0","battery-v0.2","","","-1","b","elianto","#f73b6a7A","-1","-1","1","-10","","0","3","","","","","","","60fd9268c761e54a9b5cc483&order=&STUDY_ID=61f02a8661f82b834564f044","190","5","4","lose","no-go","1"
"pit-trial","250","1363813","0.0-196.0","battery-v0.2","","","-1","t","elianto","#f73b6a7A","32","-1","0","-10","","0","3","","","","","","","60fd9268c761e54a9b5cc483&order=&STUDY_ID=61f02a8661f82b834564f044","191","4","3","lose","go","0"
"pit-trial","251","1367988","0.0-197.0","battery-v0.2","","","1298.7000000029802","z","elianto","#3366ff99","32","32","1","+10","2154.3999999910593","1","3","","","","","","","60fd9268c761e54a9b5cc483&order=&STUDY_ID=61f02a8661f82b834564f044","192","7","1","win","go","0"
"pit-trial","252","1372853","0.0-198.0","battery-v0.2","","","-1","t","elianto","#f73b6a7A","32","-1","0","-10","","0","3","","","","","","","60fd9268c761e54a9b5cc483&order=&STUDY_ID=61f02a8661f82b834564f044","193","4","3","lose","go","0"
"pit-trial","253","1377741","0.0-199.0","battery-v0.2","","","-1","c","elianto","#3366ff99","-1","-1","1","0","","0","3","","","","","","","60fd9268c761e54a9b5cc483&order=&STUDY_ID=61f02a8661f82b834564f044","194","6","2","win","no-go","1"
"pit-trial","254","1381514","0.0-200.0","battery-v0.2","","","897.5999999940395","z","elianto","#3366ff99","32","32","1","+10","1750.2000000029802","1","3","","","","","","","60fd9268c761e54a9b5cc483&order=&STUDY_ID=61f02a8661f82b834564f044","195","7","1","win","go","0"
"pit-trial","255","1386384","0.0-201.0","battery-v0.2","","","-1","b","elianto","#f73b6a7A","-1","-1","1","0","","0","3","","","","","","","60fd9268c761e54a9b5cc483&order=&STUDY_ID=61f02a8661f82b834564f044","196","5","4","lose","no-go","0"
"pit-trial","256","1389888","0.0-202.0","battery-v0.2","","","639.0999999940395","z","elianto","#3366ff99","32","32","1","+10","1491.3999999910593","1","3","","","","","","","60fd9268c761e54a9b5cc483&order=&STUDY_ID=61f02a8661f82b834564f044","197","7","1","win","go","0"
"pit-trial","257","1394760","0.0-203.0","battery-v0.2","","","-1","t","elianto","#f73b6a7A","32","-1","0","-10","","0","3","","","","","","","60fd9268c761e54a9b5cc483&order=&STUDY_ID=61f02a8661f82b834564f044","198","4","3","lose","go","0"
"pit-trial","258","1398331","0.0-204.0","battery-v0.2","","","712.2999999970198","c","elianto","#3366ff99","-1","32","0","+10","1564","1","3","","","","","","","60fd9268c761e54a9b5cc483&order=&STUDY_ID=61f02a8661f82b834564f044","199","6","2","win","no-go","1"
"pit-trial","259","1403205","0.0-205.0","battery-v0.2","","","-1","b","elianto","#f73b6a7A","-1","-1","1","0","","0","3","","","","","","","60fd9268c761e54a9b5cc483&order=&STUDY_ID=61f02a8661f82b834564f044","200","5","4","lose","no-go","0"
"pit-trial","260","1406874","0.0-206.0","battery-v0.2","","","803.9000000059605","z","elianto","#3366ff99","32","32","1","0","1657.7999999970198","1","3","","","","","","","60fd9268c761e54a9b5cc483&order=&STUDY_ID=61f02a8661f82b834564f044","201","7","1","win","go","1"
"pit-trial","261","1411746","0.0-207.0","battery-v0.2","","","-1","b","elianto","#f73b6a7A","-1","-1","1","0","","0","3","","","","","","","60fd9268c761e54a9b5cc483&order=&STUDY_ID=61f02a8661f82b834564f044","202","5","4","lose","no-go","0"
"pit-trial","262","1416618","0.0-208.0","battery-v0.2","","","-1","t","elianto","#f73b6a7A","32","-1","0","-10","","0","3","","","","","","","60fd9268c761e54a9b5cc483&order=&STUDY_ID=61f02a8661f82b834564f044","203","4","3","lose","go","0"
"pit-trial","263","1420256","0.0-209.0","battery-v0.2","","","765.5","c","elianto","#3366ff99","-1","32","0","0","1617","1","3","","","","","","","60fd9268c761e54a9b5cc483&order=&STUDY_ID=61f02a8661f82b834564f044","204","6","2","win","no-go","0"
"pit-trial","264","1423877","0.0-210.0","battery-v0.2","","","753.2000000029802","z","elianto","#3366ff99","32","32","1","0","1611.6000000089407","1","3","","","","","","","60fd9268c761e54a9b5cc483&order=&STUDY_ID=61f02a8661f82b834564f044","205","7","1","win","go","1"
"pit-trial","265","1428756","0.0-211.0","battery-v0.2","","","-1","t","elianto","#f73b6a7A","32","-1","0","-10","","0","3","","","","","","","60fd9268c761e54a9b5cc483&order=&STUDY_ID=61f02a8661f82b834564f044","206","4","3","lose","go","0"
"pit-trial","266","1433621","0.0-212.0","battery-v0.2","","","-1","b","elianto","#f73b6a7A","-1","-1","1","-10","","0","3","","","","","","","60fd9268c761e54a9b5cc483&order=&STUDY_ID=61f02a8661f82b834564f044","207","5","4","lose","no-go","1"
"pit-trial","267","1437608","0.0-213.0","battery-v0.2","","","1119.6000000089407","c","elianto","#3366ff99","-1","32","0","0","1973.1000000089407","1","3","","","","","","","60fd9268c761e54a9b5cc483&order=&STUDY_ID=61f02a8661f82b834564f044","208","6","2","win","no-go","0"
"pit-trial","268","1441580","0.0-214.0","battery-v0.2","","","1102","c","elianto","#3366ff99","-1","32","0","0","1957.5","1","3","","","","","","","60fd9268c761e54a9b5cc483&order=&STUDY_ID=61f02a8661f82b834564f044","209","6","2","win","no-go","0"
"pit-trial","269","1445340","0.0-215.0","battery-v0.2","","","891.7000000029802","z","elianto","#3366ff99","32","32","1","0","1752.4000000059605","1","3","","","","","","","60fd9268c761e54a9b5cc483&order=&STUDY_ID=61f02a8661f82b834564f044","210","7","1","win","go","1"
"pit-trial","270","1450211","0.0-216.0","battery-v0.2","","","-1","b","elianto","#f73b6a7A","-1","-1","1","0","","0","3","","","","","","","60fd9268c761e54a9b5cc483&order=&STUDY_ID=61f02a8661f82b834564f044","211","5","4","lose","no-go","0"
"pit-trial","271","1455077","0.0-217.0","battery-v0.2","","","-1","t","elianto","#f73b6a7A","32","-1","0","-10","","0","3","","","","","","","60fd9268c761e54a9b5cc483&order=&STUDY_ID=61f02a8661f82b834564f044","212","4","3","lose","go","0"
"pit-trial","272","1459957","0.0-218.0","battery-v0.2","","","-1","t","elianto","#f73b6a7A","32","-1","0","-10","","0","3","","","","","","","60fd9268c761e54a9b5cc483&order=&STUDY_ID=61f02a8661f82b834564f044","213","4","3","lose","go","0"
"pit-trial","273","1464820","0.0-219.0","battery-v0.2","","","-1","z","elianto","#3366ff99","32","-1","0","+10","","0","3","","","","","","","60fd9268c761e54a9b5cc483&order=&STUDY_ID=61f02a8661f82b834564f044","214","7","1","win","go","1"
"pit-trial","274","1469678","0.0-220.0","battery-v0.2","","","-1","c","elianto","#3366ff99","-1","-1","1","+10","","0","3","","","","","","","60fd9268c761e54a9b5cc483&order=&STUDY_ID=61f02a8661f82b834564f044","215","6","2","win","no-go","0"
"pit-trial","275","1473801","0.0-221.0","battery-v0.2","","","1255.9000000059605","h","elianto","#3366ff99","32","32","1","+10","2110.9000000059605","1","3","","","","","","","60fd9268c761e54a9b5cc483&order=&STUDY_ID=61f02a8661f82b834564f044","216","8","1","win","go","0"
"pit-trial","276","1478661","0.0-222.0","battery-v0.2","","","-1","z","elianto","#3366ff99","32","-1","0","+10","","0","3","","","","","","","60fd9268c761e54a9b5cc483&order=&STUDY_ID=61f02a8661f82b834564f044","217","7","1","win","go","1"
"pit-trial","277","1483526","0.0-223.0","battery-v0.2","","","-1","c","elianto","#3366ff99","-1","-1","1","0","","0","3","","","","","","","60fd9268c761e54a9b5cc483&order=&STUDY_ID=61f02a8661f82b834564f044","218","6","2","win","no-go","1"
"pit-trial","278","1487380","0.0-224.0","battery-v0.2","","","992.3999999910593","h","elianto","#3366ff99","32","32","1","+10","1842.9000000059605","1","3","","","","","","","60fd9268c761e54a9b5cc483&order=&STUDY_ID=61f02a8661f82b834564f044","219","8","1","win","go","0"
"pit-trial","279","1492252","0.0-225.0","battery-v0.2","","","-1","t","elianto","#f73b6a7A","32","-1","0","-10","","0","3","","","","","","","60fd9268c761e54a9b5cc483&order=&STUDY_ID=61f02a8661f82b834564f044","220","4","3","lose","go","0"
"pit-trial","280","1497141","0.0-226.0","battery-v0.2","","","-1","z","elianto","#3366ff99","32","-1","0","0","","0","3","","","","","","","60fd9268c761e54a9b5cc483&order=&STUDY_ID=61f02a8661f82b834564f044","221","7","1","win","go","0"
"pit-trial","281","1500879","0.0-227.0","battery-v0.2","","","858.4000000059605","h","elianto","#3366ff99","32","32","1","+10","1716.2999999970198","1","3","","","","","","","60fd9268c761e54a9b5cc483&order=&STUDY_ID=61f02a8661f82b834564f044","222","8","1","win","go","0"
"pit-trial","282","1505750","0.0-228.0","battery-v0.2","","","-1","c","elianto","#3366ff99","-1","-1","1","+10","","0","3","","","","","","","60fd9268c761e54a9b5cc483&order=&STUDY_ID=61f02a8661f82b834564f044","223","6","2","win","no-go","0"
"pit-trial","283","1509507","0.0-229.0","battery-v0.2","","","881.7000000029802","y","elianto","#3366ff99","-1","32","0","0","1743.2000000029802","1","3","","","","","","","60fd9268c761e54a9b5cc483&order=&STUDY_ID=61f02a8661f82b834564f044","224","9","2","win","no-go","0"
"pit-trial","284","1514384","0.0-230.0","battery-v0.2","","","-1","z","elianto","#3366ff99","32","-1","0","+10","","0","3","","","","","","","60fd9268c761e54a9b5cc483&order=&STUDY_ID=61f02a8661f82b834564f044","225","7","1","win","go","1"
"pit-trial","285","1519256","0.0-231.0","battery-v0.2","","","-1","c","elianto","#3366ff99","-1","-1","1","0","","0","3","","","","","","","60fd9268c761e54a9b5cc483&order=&STUDY_ID=61f02a8661f82b834564f044","226","6","2","win","no-go","1"
"pit-trial","286","1522676","0.0-232.0","battery-v0.2","","","557.6000000089407","h","elianto","#3366ff99","32","32","1","+10","1408.8999999910593","1","3","","","","","","","60fd9268c761e54a9b5cc483&order=&STUDY_ID=61f02a8661f82b834564f044","227","8","1","win","go","0"
"pit-trial","287","1527550","0.0-233.0","battery-v0.2","","","-1","y","elianto","#3366ff99","-1","-1","1","+10","","0","3","","","","","","","60fd9268c761e54a9b5cc483&order=&STUDY_ID=61f02a8661f82b834564f044","228","9","2","win","no-go","0"
"pit-trial","288","1531552","0.0-234.0","battery-v0.2","","","1129.2000000029802","h","elianto","#3366ff99","32","32","1","+10","1988","1","3","","","","","","","60fd9268c761e54a9b5cc483&order=&STUDY_ID=61f02a8661f82b834564f044","229","8","1","win","go","0"
"pit-trial","289","1535849","0.0-235.0","battery-v0.2","","","1423.9000000059605","r","elianto","#f73b6a7A","32","32","1","0","2277.0999999940395","1","3","","","","","","","60fd9268c761e54a9b5cc483&order=&STUDY_ID=61f02a8661f82b834564f044","230","10","3","lose","go","0"
"pit-trial","290","1539906","0.0-236.0","battery-v0.2","","","1182.0999999940395","m","elianto","#f73b6a7A","-1","32","0","-10","2043.2999999970198","1","3","","","","","","","60fd9268c761e54a9b5cc483&order=&STUDY_ID=61f02a8661f82b834564f044","231","11","4","lose","no-go","0"
"pit-trial","291","1544779","0.0-237.0","battery-v0.2","","","-1","y","elianto","#3366ff99","-1","-1","1","+10","","0","3","","","","","","","60fd9268c761e54a9b5cc483&order=&STUDY_ID=61f02a8661f82b834564f044","232","9","2","win","no-go","0"
"pit-trial","292","1549656","0.0-238.0","battery-v0.2","","","-1","y","elianto","#3366ff99","-1","-1","1","+10","","0","3","","","","","","","60fd9268c761e54a9b5cc483&order=&STUDY_ID=61f02a8661f82b834564f044","233","9","2","win","no-go","0"
"pit-trial","293","1554538","0.0-239.0","battery-v0.2","","","-1","m","elianto","#f73b6a7A","-1","-1","1","-10","","0","3","","","","","","","60fd9268c761e54a9b5cc483&order=&STUDY_ID=61f02a8661f82b834564f044","234","11","4","lose","no-go","1"
"pit-trial","294","1558343","0.0-240.0","battery-v0.2","","","946.3999999910593","h","elianto","#3366ff99","32","32","1","+10","1796.7000000029802","1","3","","","","","","","60fd9268c761e54a9b5cc483&order=&STUDY_ID=61f02a8661f82b834564f044","235","8","1","win","go","0"
"pit-trial","295","1562136","0.0-241.0","battery-v0.2","","","913.8000000119209","r","elianto","#f73b6a7A","32","32","1","0","1767.2999999970198","1","3","","","","","","","60fd9268c761e54a9b5cc483&order=&STUDY_ID=61f02a8661f82b834564f044","236","10","3","lose","go","0"
"pit-trial","296","1565850","0.0-242.0","battery-v0.2","","","848.3999999910593","h","elianto","#3366ff99","32","32","1","+10","1701.6000000089407","1","3","","","","","","","60fd9268c761e54a9b5cc483&order=&STUDY_ID=61f02a8661f82b834564f044","237","8","1","win","go","0"
"pit-trial","297","1570724","0.0-243.0","battery-v0.2","","","-1","m","elianto","#f73b6a7A","-1","-1","1","-10","","0","3","","","","","","","60fd9268c761e54a9b5cc483&order=&STUDY_ID=61f02a8661f82b834564f044","238","11","4","lose","no-go","1"
"pit-trial","298","1574667","0.0-244.0","battery-v0.2","","","1075","r","elianto","#f73b6a7A","32","32","1","0","1928.5999999940395","1","3","","","","","","","60fd9268c761e54a9b5cc483&order=&STUDY_ID=61f02a8661f82b834564f044","239","10","3","lose","go","0"
"pit-trial","299","1579531","0.0-245.0","battery-v0.2","","","-1","y","elianto","#3366ff99","-1","-1","1","+10","","0","3","","","","","","","60fd9268c761e54a9b5cc483&order=&STUDY_ID=61f02a8661f82b834564f044","240","9","2","win","no-go","0"
"pit-trial","300","1583226","0.0-246.0","battery-v0.2","","","832.2000000029802","h","elianto","#3366ff99","32","32","1","+10","1682.5","1","3","","","","","","","60fd9268c761e54a9b5cc483&order=&STUDY_ID=61f02a8661f82b834564f044","241","8","1","win","go","0"
"pit-trial","301","1588107","0.0-247.0","battery-v0.2","","","-1","y","elianto","#3366ff99","-1","-1","1","+10","","0","3","","","","","","","60fd9268c761e54a9b5cc483&order=&STUDY_ID=61f02a8661f82b834564f044","242","9","2","win","no-go","0"
"pit-trial","302","1591944","0.0-248.0","battery-v0.2","","","964.8999999910593","r","elianto","#f73b6a7A","32","32","1","0","1825.7999999970198","1","3","","","","","","","60fd9268c761e54a9b5cc483&order=&STUDY_ID=61f02a8661f82b834564f044","243","10","3","lose","go","0"
"pit-trial","303","1595466","0.0-249.0","battery-v0.2","","","650","m","elianto","#f73b6a7A","-1","32","0","0","1508.0999999940395","1","3","","","","","","","60fd9268c761e54a9b5cc483&order=&STUDY_ID=61f02a8661f82b834564f044","244","11","4","lose","no-go","1"
"pit-trial","304","1599303","0.0-250.0","battery-v0.2","","","964.2000000029802","h","elianto","#3366ff99","32","32","1","+10","1823.9000000059605","1","3","","","","","","","60fd9268c761e54a9b5cc483&order=&STUDY_ID=61f02a8661f82b834564f044","245","8","1","win","go","0"
"pit-trial","305","1604165","0.0-251.0","battery-v0.2","","","-1","y","elianto","#3366ff99","-1","-1","1","+10","","0","3","","","","","","","60fd9268c761e54a9b5cc483&order=&STUDY_ID=61f02a8661f82b834564f044","246","9","2","win","no-go","0"
"pit-trial","306","1607962","0.0-252.0","battery-v0.2","","","924.1999999880791","r","elianto","#f73b6a7A","32","32","1","0","1777.5999999940395","1","3","","","","","","","60fd9268c761e54a9b5cc483&order=&STUDY_ID=61f02a8661f82b834564f044","247","10","3","lose","go","0"
"pit-trial","307","1611457","0.0-253.0","battery-v0.2","","","627.2999999970198","m","elianto","#f73b6a7A","-1","32","0","-10","1489.8999999910593","1","3","","","","","","","60fd9268c761e54a9b5cc483&order=&STUDY_ID=61f02a8661f82b834564f044","248","11","4","lose","no-go","0"
"pit-trial","308","1615545","0.0-254.0","battery-v0.2","","","1220.9000000059605","r","elianto","#f73b6a7A","32","32","1","0","2072.7000000029802","1","3","","","","","","","60fd9268c761e54a9b5cc483&order=&STUDY_ID=61f02a8661f82b834564f044","249","10","3","lose","go","0"
"pit-trial","309","1619266","0.0-255.0","battery-v0.2","","","857.5","m","elianto","#f73b6a7A","-1","32","0","-10","1708.7999999970198","1","3","","","","","","","60fd9268c761e54a9b5cc483&order=&STUDY_ID=61f02a8661f82b834564f044","250","11","4","lose","no-go","0"
"pit-trial","310","1624130","0.0-256.0","battery-v0.2","","","-1","y","elianto","#3366ff99","-1","-1","1","+10","","0","3","","","","","","","60fd9268c761e54a9b5cc483&order=&STUDY_ID=61f02a8661f82b834564f044","251","9","2","win","no-go","0"
"pit-trial","311","1627785","0.0-257.0","battery-v0.2","","","775.7999999970198","h","elianto","#3366ff99","32","32","1","+10","1636.0999999940395","1","3","","","","","","","60fd9268c761e54a9b5cc483&order=&STUDY_ID=61f02a8661f82b834564f044","252","8","1","win","go","0"
"pit-trial","312","1631346","0.0-258.0","battery-v0.2","","","687.7000000029802","r","elianto","#f73b6a7A","32","32","1","-10","1543.7999999970198","1","3","","","","","","","60fd9268c761e54a9b5cc483&order=&STUDY_ID=61f02a8661f82b834564f044","253","10","3","lose","go","1"
"pit-trial","313","1634925","0.0-259.0","battery-v0.2","","","706.2000000029802","h","elianto","#3366ff99","32","32","1","+10","1566.8999999910593","1","3","","","","","","","60fd9268c761e54a9b5cc483&order=&STUDY_ID=61f02a8661f82b834564f044","254","8","1","win","go","0"
"pit-trial","314","1638454","0.0-260.0","battery-v0.2","","","660.4000000059605","m","elianto","#f73b6a7A","-1","32","0","-10","1517.5999999940395","1","3","","","","","","","60fd9268c761e54a9b5cc483&order=&STUDY_ID=61f02a8661f82b834564f044","255","11","4","lose","no-go","0"
"pit-trial","315","1643325","0.0-261.0","battery-v0.2","","","-1","y","elianto","#3366ff99","-1","-1","1","+10","","0","3","","","","","","","60fd9268c761e54a9b5cc483&order=&STUDY_ID=61f02a8661f82b834564f044","256","9","2","win","no-go","0"
"pit-trial","316","1648197","0.0-262.0","battery-v0.2","","","-1","y","elianto","#3366ff99","-1","-1","1","+10","","0","3","","","","","","","60fd9268c761e54a9b5cc483&order=&STUDY_ID=61f02a8661f82b834564f044","257","9","2","win","no-go","0"
"pit-trial","317","1652069","0.0-263.0","battery-v0.2","","","1004.2000000029802","r","elianto","#f73b6a7A","32","32","1","0","1854.8999999910593","1","3","","","","","","","60fd9268c761e54a9b5cc483&order=&STUDY_ID=61f02a8661f82b834564f044","258","10","3","lose","go","0"
"pit-trial","318","1655915","0.0-264.0","battery-v0.2","","","978.8000000119209","m","elianto","#f73b6a7A","-1","32","0","-10","1830.2999999970198","1","3","","","","","","","60fd9268c761e54a9b5cc483&order=&STUDY_ID=61f02a8661f82b834564f044","259","11","4","lose","no-go","0"
"pit-trial","319","1659418","0.0-265.0","battery-v0.2","","","637","h","elianto","#3366ff99","32","32","1","+10","1496.8999999910593","1","3","","","","","","","60fd9268c761e54a9b5cc483&order=&STUDY_ID=61f02a8661f82b834564f044","260","8","1","win","go","0"
