"trial_type","trial_index","time_elapsed","internal_node_id","task_version","success","view_history","rt","rune","rune_set","hex","correct","choice","accuracy","outcome","keys","total_keys","block","practice","subject","participantId","value","responses","num_errors","sub","trial","stimulus","robot","valence","action","sham"
"pavlovia","0","48","0.0-0.0","battery-v0.2","","","","","","","","","","","","","","","","","","","","","","","","","",""
"fullscreen","1","3187","0.0-1.0","battery-v0.2","true","","","","","","","","","","","","","","","","","","","","","","","","",""
"pit-instructions","2","57593","0.0-2.0-0.0","battery-v0.2","","[{""page_index"":0,""viewing_time"":2492.7000000029802},{""page_index"":1,""viewing_time"":5325.20000000298},{""page_index"":2,""viewing_time"":2333.2000000029802},{""page_index"":3,""viewing_time"":2471.8999999910593},{""page_index"":4,""viewing_time"":2309.4000000059605},{""page_index"":5,""viewing_time"":1506.5999999940395},{""page_index"":6,""viewing_time"":3284},{""page_index"":7,""viewing_time"":2487.7000000029802},{""page_index"":8,""viewing_time"":2920.4000000059605},{""page_index"":9,""viewing_time"":857.3999999910593},{""page_index"":8,""viewing_time"":3198.7000000029802},{""page_index"":9,""viewing_time"":4095.2000000029802},{""page_index"":10,""viewing_time"":1118.7999999970198},{""page_index"":11,""viewing_time"":1115.4000000059605},{""page_index"":12,""viewing_time"":2485.5},{""page_index"":13,""viewing_time"":2959},{""page_index"":14,""viewing_time"":3880.2000000029802},{""page_index"":15,""viewing_time"":2795.2999999970198},{""page_index"":16,""viewing_time"":4117.79999999702},{""page_index"":17,""viewing_time"":2642.9000000059605}]","54398.80000001192","","","","","","","","","","","","","","","","","","","","","","",""
"pit-trial","3","61098","0.0-2.0-1.0-0.0","battery-v0.2","","","636.5999999940395","&#9776;","elianto","#3366ff99","32","32","1","+10","1488","1","0","1","60e4ea15046cb3d1e64cedcc&order=1&STUDY_ID=61caf85b4892b889f6411591","999","","","","","","","","","",""
"pit-trial","4","64508","0.0-2.0-1.0-1.0","battery-v0.2","","","551.1999999880791","&#9776;","elianto","#3366ff99","32","32","1","+10","1402.5999999940395","1","0","1","60e4ea15046cb3d1e64cedcc&order=1&STUDY_ID=61caf85b4892b889f6411591","999","","","","","","","","","",""
"pit-trial","5","67914","0.0-2.0-1.0-2.0","battery-v0.2","","","535.2999999970198","&#9776;","elianto","#3366ff99","32","32","1","+10","1388.9000000059605","1","0","1","60e4ea15046cb3d1e64cedcc&order=1&STUDY_ID=61caf85b4892b889f6411591","999","","","","","","","","","",""
"pit-trial","6","71279","0.0-2.0-1.0-3.0","battery-v0.2","","","497.5","&#9776;","elianto","#3366ff99","32","32","1","0","1351.5999999940395","1","0","1","60e4ea15046cb3d1e64cedcc&order=1&STUDY_ID=61caf85b4892b889f6411591","999","","","","","","","","","",""
"pit-trial","7","74632","0.0-2.0-1.0-4.0","battery-v0.2","","","490.5","&#9776;","elianto","#3366ff99","32","32","1","+10","1344.8999999910593","1","0","1","60e4ea15046cb3d1e64cedcc&order=1&STUDY_ID=61caf85b4892b889f6411591","999","","","","","","","","","",""
"call-function","8","74637","0.0-2.0-2.0","battery-v0.2","","","","","","","","","","","","","","","","","","","","","","","","","",""
"pit-instructions","9","88665","0.0-2.0-3.0","battery-v0.2","","[{""page_index"":0,""viewing_time"":4590.70000000298},{""page_index"":1,""viewing_time"":2709.699999988079},{""page_index"":2,""viewing_time"":3647.9000000059605},{""page_index"":3,""viewing_time"":3077.5999999940395}]","14026.5","","","","","","","","","","","","","","","","","","","","","","",""
"pit-trial","10","92205","0.0-2.0-4.0-0.0","battery-v0.2","","","682.8000000119209","&#9761;","elianto","#3366ff99","-1","32","0","0","1534","1","0","2","60e4ea15046cb3d1e64cedcc&order=1&STUDY_ID=61caf85b4892b889f6411591","999","","","","","","","","","",""
"pit-trial","11","95757","0.0-2.0-4.0-1.0","battery-v0.2","","","682.4000000059605","&#9761;","elianto","#3366ff99","-1","32","0","0","1537.5999999940395","1","0","2","60e4ea15046cb3d1e64cedcc&order=1&STUDY_ID=61caf85b4892b889f6411591","999","","","","","","","","","",""
"pit-trial","12","100626","0.0-2.0-4.0-2.0","battery-v0.2","","","-1","&#9761;","elianto","#3366ff99","-1","-1","1","+10","","0","0","2","60e4ea15046cb3d1e64cedcc&order=1&STUDY_ID=61caf85b4892b889f6411591","999","","","","","","","","","",""
"pit-trial","13","105490","0.0-2.0-4.0-3.0","battery-v0.2","","","-1","&#9761;","elianto","#3366ff99","-1","-1","1","+10","","0","0","2","60e4ea15046cb3d1e64cedcc&order=1&STUDY_ID=61caf85b4892b889f6411591","999","","","","","","","","","",""
"pit-trial","14","110371","0.0-2.0-4.0-4.0","battery-v0.2","","","-1","&#9761;","elianto","#3366ff99","-1","-1","1","0","","0","0","2","60e4ea15046cb3d1e64cedcc&order=1&STUDY_ID=61caf85b4892b889f6411591","999","","","","","","","","","",""
"call-function","15","110374","0.0-2.0-5.0","battery-v0.2","","","","","","","","","","","","","","","","","","","","","","","","","",""
"pit-instructions","16","115813","0.0-2.0-6.0","battery-v0.2","","[{""page_index"":0,""viewing_time"":2670.5999999940395},{""page_index"":1,""viewing_time"":2766.7000000029802}]","5438","","","","","","","","","","","","","","","","","","","","","","",""
"pit-trial","17","119379","0.0-2.0-7.0-0.0","battery-v0.2","","","707.2999999970198","&#9826;","elianto","#f73b6a7A","-1","32","0","-10","1562.5","1","0","3","60e4ea15046cb3d1e64cedcc&order=1&STUDY_ID=61caf85b4892b889f6411591","999","","","","","","","","","",""
"pit-trial","18","124239","0.0-2.0-7.0-1.0","battery-v0.2","","","-1","&#9826;","elianto","#f73b6a7A","-1","-1","1","0","","0","0","3","60e4ea15046cb3d1e64cedcc&order=1&STUDY_ID=61caf85b4892b889f6411591","999","","","","","","","","","",""
"pit-trial","19","129119","0.0-2.0-7.0-2.0","battery-v0.2","","","-1","&#9826;","elianto","#f73b6a7A","-1","-1","1","-10","","0","0","3","60e4ea15046cb3d1e64cedcc&order=1&STUDY_ID=61caf85b4892b889f6411591","999","","","","","","","","","",""
"pit-trial","20","132619","0.0-2.0-7.0-3.0","battery-v0.2","","","641.2000000029802","&#9826;","elianto","#f73b6a7A","-1","32","0","-10","1491.5","1","0","3","60e4ea15046cb3d1e64cedcc&order=1&STUDY_ID=61caf85b4892b889f6411591","999","","","","","","","","","",""
"pit-trial","21","137496","0.0-2.0-7.0-4.0","battery-v0.2","","","-1","&#9826;","elianto","#f73b6a7A","-1","-1","1","0","","0","0","3","60e4ea15046cb3d1e64cedcc&order=1&STUDY_ID=61caf85b4892b889f6411591","999","","","","","","","","","",""
"pit-trial","22","142363","0.0-2.0-7.1-0.1","battery-v0.2","","","-1","&#9826;","elianto","#f73b6a7A","-1","-1","1","0","","0","0","3","60e4ea15046cb3d1e64cedcc&order=1&STUDY_ID=61caf85b4892b889f6411591","999","","","","","","","","","",""
"pit-trial","23","147240","0.0-2.0-7.1-1.1","battery-v0.2","","","-1","&#9826;","elianto","#f73b6a7A","-1","-1","1","0","","0","0","3","60e4ea15046cb3d1e64cedcc&order=1&STUDY_ID=61caf85b4892b889f6411591","999","","","","","","","","","",""
"pit-trial","24","152102","0.0-2.0-7.1-2.1","battery-v0.2","","","-1","&#9826;","elianto","#f73b6a7A","-1","-1","1","-10","","0","0","3","60e4ea15046cb3d1e64cedcc&order=1&STUDY_ID=61caf85b4892b889f6411591","999","","","","","","","","","",""
"pit-trial","25","156967","0.0-2.0-7.1-3.1","battery-v0.2","","","-1","&#9826;","elianto","#f73b6a7A","-1","-1","1","0","","0","0","3","60e4ea15046cb3d1e64cedcc&order=1&STUDY_ID=61caf85b4892b889f6411591","999","","","","","","","","","",""
"pit-trial","26","161830","0.0-2.0-7.1-4.1","battery-v0.2","","","-1","&#9826;","elianto","#f73b6a7A","-1","-1","1","0","","0","0","3","60e4ea15046cb3d1e64cedcc&order=1&STUDY_ID=61caf85b4892b889f6411591","999","","","","","","","","","",""
"call-function","27","161833","0.0-2.0-8.0","battery-v0.2","","","","","","","","","","","","","","","","","","","","","","","","","",""
"pit-instructions","28","178671","0.0-2.0-9.0","battery-v0.2","","[{""page_index"":0,""viewing_time"":4403.800000011921},{""page_index"":1,""viewing_time"":12434.59999999404}]","16839.20000000298","","","","","","","","","","","","","","","","","","","","","","",""
"pit-trial","29","182239","0.0-2.0-10.0-0.0","battery-v0.2","","","706.4000000059605","&#9789;","elianto","#f73b6a7A","32","32","1","0","1563.0999999940395","1","0","4","60e4ea15046cb3d1e64cedcc&order=1&STUDY_ID=61caf85b4892b889f6411591","999","","","","","","","","","",""
"pit-trial","30","185520","0.0-2.0-10.0-1.0","battery-v0.2","","","418.09999999403954","&#9789;","elianto","#f73b6a7A","32","32","1","0","1269.9000000059605","1","0","4","60e4ea15046cb3d1e64cedcc&order=1&STUDY_ID=61caf85b4892b889f6411591","999","","","","","","","","","",""
"pit-trial","31","189052","0.0-2.0-10.0-2.0","battery-v0.2","","","664.3999999910593","&#9789;","elianto","#f73b6a7A","32","32","1","0","1520.2999999970198","1","0","4","60e4ea15046cb3d1e64cedcc&order=1&STUDY_ID=61caf85b4892b889f6411591","999","","","","","","","","","",""
"pit-trial","32","192637","0.0-2.0-10.0-3.0","battery-v0.2","","","716.5999999940395","&#9789;","elianto","#f73b6a7A","32","32","1","0","1572.2000000029802","1","0","4","60e4ea15046cb3d1e64cedcc&order=1&STUDY_ID=61caf85b4892b889f6411591","999","","","","","","","","","",""
"pit-trial","33","195957","0.0-2.0-10.0-4.0","battery-v0.2","","","450.59999999403954","&#9789;","elianto","#f73b6a7A","32","32","1","-10","1301.4000000059605","1","0","4","60e4ea15046cb3d1e64cedcc&order=1&STUDY_ID=61caf85b4892b889f6411591","999","","","","","","","","","",""
"call-function","34","195960","0.0-2.0-11.0","battery-v0.2","","","","","","","","","","","","","","","","","","","","","","","","","",""
"pit-instructions","35","209271","0.0-2.0-12.0","battery-v0.2","","[{""page_index"":0,""viewing_time"":2757},{""page_index"":1,""viewing_time"":3832.699999988079},{""page_index"":2,""viewing_time"":3135.4000000059605},{""page_index"":3,""viewing_time"":2340.5},{""page_index"":4,""viewing_time"":1243.7999999970198}]","13310","","","","","","","","","","","","","","","","","","","","","","",""
"pit-comprehension","36","212324","0.0-2.0-13.0-0.0","battery-v0.2","","","3048","","","","","","","","","","","","","","","SPACE","0","","","","","","",""
"pit-instructions","37","218665","0.0-2.0-13.0-1.0","battery-v0.2","","[{""page_index"":0,""viewing_time"":6294.899999991059}]","6295.29999999702","","","","","","","","","","","","","","","","","","","","","","",""
"pit-comprehension","38","222806","0.0-2.0-14.0-0.0","battery-v0.2","","","4136.600000008941","","","","","","","","","","","","","","","10","0","","","","","","",""
"pit-instructions","39","224305","0.0-2.0-14.0-1.0","battery-v0.2","","[{""page_index"":0,""viewing_time"":1483.0999999940395}]","1483.7000000029802","","","","","","","","","","","","","","","","","","","","","","",""
"pit-comprehension","40","227991","0.0-2.0-15.0-0.0","battery-v0.2","","","3681.1000000089407","","","","","","","","","","","","","","","0","0","","","","","","",""
"pit-instructions","41","229002","0.0-2.0-15.0-1.0","battery-v0.2","","[{""page_index"":0,""viewing_time"":995.0999999940395}]","995.5999999940395","","","","","","","","","","","","","","","","","","","","","","",""
"pit-comprehension","42","235099","0.0-2.0-16.0-0.0","battery-v0.2","","","6092.79999999702","","","","","","","","","","","","","","","False","1","","","","","","",""
"pit-instructions","43","239611","0.0-2.0-16.0-1.0","battery-v0.2","","[{""page_index"":0,""viewing_time"":4495.100000008941}]","4495.800000011921","","","","","","","","","","","","","","","","","","","","","","",""
"pit-instructions","44","240452","0.0-2.0-16.0-2.0-0.0","battery-v0.2","","[{""page_index"":0,""viewing_time"":838.0999999940395}]","838.6999999880791","","","","","","","","","","","","","","","","","","","","","","",""
"pit-comprehension","45","242785","0.0-2.0-16.1-0.1","battery-v0.2","","","2328.7999999970198","","","","","","","","","","","","","","","True","0","","","","","","",""
"pit-instructions","46","243913","0.0-2.0-16.1-1.1","battery-v0.2","","[{""page_index"":0,""viewing_time"":1111.5999999940395}]","1112.2000000029802","","","","","","","","","","","","","","","","","","","","","","",""
"pit-comprehension","47","247295","0.0-2.0-17.0-0.0","battery-v0.2","","","3378.7999999970198","","","","","","","","","","","","","","","True","0","","","","","","",""
"pit-instructions","48","248128","0.0-2.0-17.0-1.0","battery-v0.2","","[{""page_index"":0,""viewing_time"":816.2000000029802}]","816.7000000029802","","","","","","","","","","","","","","","","","","","","","","",""
"pit-comprehension","49","252139","0.0-2.0-18.0-0.0","battery-v0.2","","","4007.2999999970198","","","","","","","","","","","","","","","True","0","","","","","","",""
"pit-instructions","50","253119","0.0-2.0-18.0-1.0","battery-v0.2","","[{""page_index"":0,""viewing_time"":959.8000000119209}]","960.3000000119209","","","","","","","","","","","","","","","","","","","","","","",""
"pit-instructions","51","260140","0.0-3.0","battery-v0.2","","[{""page_index"":0,""viewing_time"":1851.5},{""page_index"":1,""viewing_time"":1591.3999999910593},{""page_index"":2,""viewing_time"":3575.5}]","7018.79999999702","","","","","","","","","","","","","","","","","","","","","","",""
"pit-trial","52","263801","0.0-4.0","battery-v0.2","","","787.8000000119209","&#9730;","elianto","#3366ff99","32","32","1","+10","1642.6000000089407","1","1","","","","","","","60e4ea15046cb3d1e64cedcc&order=1&STUDY_ID=61caf85b4892b889f6411591","1","1","1","win","go","0"
"pit-trial","53","267403","0.0-5.0","battery-v0.2","","","735","&#9733;","elianto","#3366ff99","-1","32","0","0","1585.3999999910593","1","1","","","","","","","60e4ea15046cb3d1e64cedcc&order=1&STUDY_ID=61caf85b4892b889f6411591","2","2","2","win","no-go","0"
"pit-trial","54","271087","0.0-6.0","battery-v0.2","","","824.3999999910593","&#9728;","elianto","#f73b6a7A","-1","32","0","-10","1674.9000000059605","1","1","","","","","","","60e4ea15046cb3d1e64cedcc&order=1&STUDY_ID=61caf85b4892b889f6411591","3","0","4","lose","no-go","0"
"pit-trial","55","274820","0.0-7.0","battery-v0.2","","","874.6000000089407","&#9752;","elianto","#f73b6a7A","32","32","1","0","1724.5","1","1","","","","","","","60e4ea15046cb3d1e64cedcc&order=1&STUDY_ID=61caf85b4892b889f6411591","4","3","3","lose","go","0"
"pit-trial","56","278793","0.0-8.0","battery-v0.2","","","1105.3999999910593","&#9752;","elianto","#f73b6a7A","32","32","1","0","1958.7999999970198","1","1","","","","","","","60e4ea15046cb3d1e64cedcc&order=1&STUDY_ID=61caf85b4892b889f6411591","5","3","3","lose","go","0"
"pit-trial","57","282257","0.0-9.0","battery-v0.2","","","604.6999999880791","&#9730;","elianto","#3366ff99","32","32","1","0","1457","1","1","","","","","","","60e4ea15046cb3d1e64cedcc&order=1&STUDY_ID=61caf85b4892b889f6411591","6","1","1","win","go","1"
"pit-trial","58","287118","0.0-10.0","battery-v0.2","","","-1","&#9733;","elianto","#3366ff99","-1","-1","1","+10","","0","1","","","","","","","60e4ea15046cb3d1e64cedcc&order=1&STUDY_ID=61caf85b4892b889f6411591","7","2","2","win","no-go","0"
"pit-trial","59","291485","0.0-11.0","battery-v0.2","","","1497.7000000029802","&#9728;","elianto","#f73b6a7A","-1","32","0","-10","2352.5","1","1","","","","","","","60e4ea15046cb3d1e64cedcc&order=1&STUDY_ID=61caf85b4892b889f6411591","8","0","4","lose","no-go","0"
"pit-trial","60","296356","0.0-12.0","battery-v0.2","","","-1","&#9733;","elianto","#3366ff99","-1","-1","1","0","","0","1","","","","","","","60e4ea15046cb3d1e64cedcc&order=1&STUDY_ID=61caf85b4892b889f6411591","9","2","2","win","no-go","1"
"pit-trial","61","299861","0.0-13.0","battery-v0.2","","","635.5999999940395","&#9730;","elianto","#3366ff99","32","32","1","+10","1490.2000000029802","1","1","","","","","","","60e4ea15046cb3d1e64cedcc&order=1&STUDY_ID=61caf85b4892b889f6411591","10","1","1","win","go","0"
"pit-trial","62","303492","0.0-14.0","battery-v0.2","","","773.6000000089407","&#9752;","elianto","#f73b6a7A","32","32","1","0","1623.8999999910593","1","1","","","","","","","60e4ea15046cb3d1e64cedcc&order=1&STUDY_ID=61caf85b4892b889f6411591","11","3","3","lose","go","0"
"pit-trial","63","308363","0.0-15.0","battery-v0.2","","","-1","&#9728;","elianto","#f73b6a7A","-1","-1","1","-10","","0","1","","","","","","","60e4ea15046cb3d1e64cedcc&order=1&STUDY_ID=61caf85b4892b889f6411591","12","0","4","lose","no-go","1"
"pit-trial","64","312710","0.0-16.0","battery-v0.2","","","1487.2000000029802","&#9733;","elianto","#3366ff99","-1","32","0","0","2338.7999999970198,2440.5","2","1","","","","","","","60e4ea15046cb3d1e64cedcc&order=1&STUDY_ID=61caf85b4892b889f6411591","13","2","2","win","no-go","0"
"pit-trial","65","316739","0.0-17.0","battery-v0.2","","","1165.9000000059605","&#9752;","elianto","#f73b6a7A","32","32","1","0","2017.5","1","1","","","","","","","60e4ea15046cb3d1e64cedcc&order=1&STUDY_ID=61caf85b4892b889f6411591","14","3","3","lose","go","0"
"pit-trial","66","320231","0.0-18.0","battery-v0.2","","","626.5","&#9730;","elianto","#3366ff99","32","32","1","+10","1484.2999999970198","1","1","","","","","","","60e4ea15046cb3d1e64cedcc&order=1&STUDY_ID=61caf85b4892b889f6411591","15","1","1","win","go","0"
"pit-trial","67","325095","0.0-19.0","battery-v0.2","","","-1","&#9728;","elianto","#f73b6a7A","-1","-1","1","0","","0","1","","","","","","","60e4ea15046cb3d1e64cedcc&order=1&STUDY_ID=61caf85b4892b889f6411591","16","0","4","lose","no-go","0"
"pit-trial","68","328837","0.0-20.0","battery-v0.2","","","879.7000000029802","&#9752;","elianto","#f73b6a7A","32","32","1","0","1733.0999999940395","1","1","","","","","","","60e4ea15046cb3d1e64cedcc&order=1&STUDY_ID=61caf85b4892b889f6411591","17","3","3","lose","go","0"
"pit-trial","69","333703","0.0-21.0","battery-v0.2","","","-1","&#9728;","elianto","#f73b6a7A","-1","-1","1","0","","0","1","","","","","","","60e4ea15046cb3d1e64cedcc&order=1&STUDY_ID=61caf85b4892b889f6411591","18","0","4","lose","no-go","0"
"pit-trial","70","338569","0.0-22.0","battery-v0.2","","","-1","&#9733;","elianto","#3366ff99","-1","-1","1","+10","","0","1","","","","","","","60e4ea15046cb3d1e64cedcc&order=1&STUDY_ID=61caf85b4892b889f6411591","19","2","2","win","no-go","0"
"pit-trial","71","341965","0.0-23.0","battery-v0.2","","","531.2999999970198","&#9730;","elianto","#3366ff99","32","32","1","0","1383.2000000029802","1","1","","","","","","","60e4ea15046cb3d1e64cedcc&order=1&STUDY_ID=61caf85b4892b889f6411591","20","1","1","win","go","1"
"pit-instructions","72","346636","0.0-24.0","battery-v0.2","","[{""page_index"":0,""viewing_time"":2381.5},{""page_index"":1,""viewing_time"":2286.2000000029802}]","4668.399999991059","","","","","","","","","","","","","","","","","","","","","","",""
"pit-trial","73","350299","0.0-25.0","battery-v0.2","","","805.0999999940395","d","elianto","#3366ff99","32","32","1","0","1655.5999999940395","1","2","","","","","","","60e4ea15046cb3d1e64cedcc&order=1&STUDY_ID=61caf85b4892b889f6411591","21","2","1","win","go","1"
"pit-trial","74","354063","0.0-26.0","battery-v0.2","","","891.2999999970198","k","elianto","#f73b6a7A","32","32","1","0","1745.699999988079","1","2","","","","","","","60e4ea15046cb3d1e64cedcc&order=1&STUDY_ID=61caf85b4892b889f6411591","22","3","3","lose","go","0"
"pit-trial","75","357847","0.0-27.0","battery-v0.2","","","921.4000000059605","j","elianto","#3366ff99","-1","32","0","0","1778.7000000029802","1","2","","","","","","","60e4ea15046cb3d1e64cedcc&order=1&STUDY_ID=61caf85b4892b889f6411591","23","1","2","win","no-go","0"
"pit-trial","76","361499","0.0-28.0","battery-v0.2","","","784.5","v","elianto","#3366ff99","-1","32","0","0","1636.2999999970198","1","2","","","","","","","60e4ea15046cb3d1e64cedcc&order=1&STUDY_ID=61caf85b4892b889f6411591","24","0","2","win","no-go","0"
"pit-trial","77","366366","0.0-29.0","battery-v0.2","","","-1","d","elianto","#3366ff99","32","-1","0","0","","0","2","","","","","","","60e4ea15046cb3d1e64cedcc&order=1&STUDY_ID=61caf85b4892b889f6411591","25","2","1","win","go","0"
"pit-trial","78","371221","0.0-30.0","battery-v0.2","","","-1","k","elianto","#f73b6a7A","32","-1","0","-10","","0","2","","","","","","","60e4ea15046cb3d1e64cedcc&order=1&STUDY_ID=61caf85b4892b889f6411591","26","3","3","lose","go","0"
"pit-trial","79","375006","0.0-31.0","battery-v0.2","","","926.8999999910593","j","elianto","#3366ff99","-1","32","0","0","1777.7999999970198","1","2","","","","","","","60e4ea15046cb3d1e64cedcc&order=1&STUDY_ID=61caf85b4892b889f6411591","27","1","2","win","no-go","0"
"pit-trial","80","379882","0.0-32.0","battery-v0.2","","","-1","v","elianto","#3366ff99","-1","-1","1","+10","","0","2","","","","","","","60e4ea15046cb3d1e64cedcc&order=1&STUDY_ID=61caf85b4892b889f6411591","28","0","2","win","no-go","0"
"pit-trial","81","384757","0.0-33.0","battery-v0.2","","","-1","v","elianto","#3366ff99","-1","-1","1","+10","","0","2","","","","","","","60e4ea15046cb3d1e64cedcc&order=1&STUDY_ID=61caf85b4892b889f6411591","29","0","2","win","no-go","0"
"pit-trial","82","388561","0.0-34.0","battery-v0.2","","","942.4000000059605","j","elianto","#3366ff99","-1","32","0","+10","1794.9000000059605","1","2","","","","","","","60e4ea15046cb3d1e64cedcc&order=1&STUDY_ID=61caf85b4892b889f6411591","30","1","2","win","no-go","1"
"pit-trial","83","393434","0.0-35.0","battery-v0.2","","","-1","d","elianto","#3366ff99","32","-1","0","0","","0","2","","","","","","","60e4ea15046cb3d1e64cedcc&order=1&STUDY_ID=61caf85b4892b889f6411591","31","2","1","win","go","0"
"pit-trial","84","397585","0.0-36.0","battery-v0.2","","","1283.2000000029802","k","elianto","#f73b6a7A","32","32","1","-10","2138.2000000029802","1","2","","","","","","","60e4ea15046cb3d1e64cedcc&order=1&STUDY_ID=61caf85b4892b889f6411591","32","3","3","lose","go","1"
"pit-trial","85","402447","0.0-37.0","battery-v0.2","","","-1","d","elianto","#3366ff99","32","-1","0","0","","0","2","","","","","","","60e4ea15046cb3d1e64cedcc&order=1&STUDY_ID=61caf85b4892b889f6411591","33","2","1","win","go","0"
"pit-trial","86","406886","0.0-38.0","battery-v0.2","","","1565.2999999970198","v","elianto","#3366ff99","-1","32","0","+10","2421.5999999940395","1","2","","","","","","","60e4ea15046cb3d1e64cedcc&order=1&STUDY_ID=61caf85b4892b889f6411591","34","0","2","win","no-go","1"
"pit-trial","87","411746","0.0-39.0","battery-v0.2","","","-1","k","elianto","#f73b6a7A","32","-1","0","-10","","0","2","","","","","","","60e4ea15046cb3d1e64cedcc&order=1&STUDY_ID=61caf85b4892b889f6411591","35","3","3","lose","go","0"
"pit-trial","88","415631","0.0-40.0","battery-v0.2","","","1023.4000000059605","j","elianto","#3366ff99","-1","32","0","+10","1874.0999999940395","1","2","","","","","","","60e4ea15046cb3d1e64cedcc&order=1&STUDY_ID=61caf85b4892b889f6411591","36","1","2","win","no-go","1"
"pit-trial","89","419158","0.0-41.0","battery-v0.2","","","658.0999999940395","v","elianto","#3366ff99","-1","32","0","0","1509.300000011921","1","2","","","","","","","60e4ea15046cb3d1e64cedcc&order=1&STUDY_ID=61caf85b4892b889f6411591","37","0","2","win","no-go","0"
"pit-trial","90","424023","0.0-42.0","battery-v0.2","","","-1","j","elianto","#3366ff99","-1","-1","1","0","","0","2","","","","","","","60e4ea15046cb3d1e64cedcc&order=1&STUDY_ID=61caf85b4892b889f6411591","38","1","2","win","no-go","1"
"pit-trial","91","427747","0.0-43.0","battery-v0.2","","","859.5","k","elianto","#f73b6a7A","32","32","1","0","1711.5999999940395","1","2","","","","","","","60e4ea15046cb3d1e64cedcc&order=1&STUDY_ID=61caf85b4892b889f6411591","39","3","3","lose","go","0"
"pit-trial","92","431889","0.0-44.0","battery-v0.2","","","1271.7000000029802","d","elianto","#3366ff99","32","32","1","+10","2127.2999999970198","1","2","","","","","","","60e4ea15046cb3d1e64cedcc&order=1&STUDY_ID=61caf85b4892b889f6411591","40","2","1","win","go","0"
"pit-trial","93","435416","0.0-45.0","battery-v0.2","","","654","v","elianto","#3366ff99","-1","32","0","0","1510","1","2","","","","","","","60e4ea15046cb3d1e64cedcc&order=1&STUDY_ID=61caf85b4892b889f6411591","41","0","2","win","no-go","0"
"pit-trial","94","439328","0.0-46.0","battery-v0.2","","","1042","k","elianto","#f73b6a7A","32","32","1","-10","1895.5","1","2","","","","","","","60e4ea15046cb3d1e64cedcc&order=1&STUDY_ID=61caf85b4892b889f6411591","42","3","3","lose","go","1"
"pit-trial","95","443684","0.0-47.0","battery-v0.2","","","1488.5999999940395","d","elianto","#3366ff99","32","32","1","+10","2343.2000000029802","1","2","","","","","","","60e4ea15046cb3d1e64cedcc&order=1&STUDY_ID=61caf85b4892b889f6411591","43","2","1","win","go","0"
"pit-trial","96","447341","0.0-48.0","battery-v0.2","","","793.7999999970198","j","elianto","#3366ff99","-1","32","0","0","1645.699999988079","1","2","","","","","","","60e4ea15046cb3d1e64cedcc&order=1&STUDY_ID=61caf85b4892b889f6411591","44","1","2","win","no-go","0"
"pit-trial","97","451210","0.0-49.0","battery-v0.2","","","999.8000000119209","v","elianto","#3366ff99","-1","32","0","+10","1850.5","1","2","","","","","","","60e4ea15046cb3d1e64cedcc&order=1&STUDY_ID=61caf85b4892b889f6411591","45","0","2","win","no-go","1"
"pit-trial","98","456079","0.0-50.0","battery-v0.2","","","-1","d","elianto","#3366ff99","32","-1","0","+10","","0","2","","","","","","","60e4ea15046cb3d1e64cedcc&order=1&STUDY_ID=61caf85b4892b889f6411591","46","2","1","win","go","1"
"pit-trial","99","459752","0.0-51.0","battery-v0.2","","","815.4000000059605","k","elianto","#f73b6a7A","32","32","1","0","1667.5999999940395","1","2","","","","","","","60e4ea15046cb3d1e64cedcc&order=1&STUDY_ID=61caf85b4892b889f6411591","47","3","3","lose","go","0"
"pit-trial","100","463734","0.0-52.0","battery-v0.2","","","1120.4000000059605","j","elianto","#3366ff99","-1","32","0","0","1970.5","1","2","","","","","","","60e4ea15046cb3d1e64cedcc&order=1&STUDY_ID=61caf85b4892b889f6411591","48","1","2","win","no-go","0"
"pit-trial","101","468609","0.0-53.0","battery-v0.2","","","-1","j","elianto","#3366ff99","-1","-1","1","+10","","0","2","","","","","","","60e4ea15046cb3d1e64cedcc&order=1&STUDY_ID=61caf85b4892b889f6411591","49","1","2","win","no-go","0"
"pit-trial","102","472410","0.0-54.0","battery-v0.2","","","928.5","d","elianto","#3366ff99","32","32","1","+10","1783.2999999970198","1","2","","","","","","","60e4ea15046cb3d1e64cedcc&order=1&STUDY_ID=61caf85b4892b889f6411591","50","2","1","win","go","0"
"pit-trial","103","476086","0.0-55.0","battery-v0.2","","","818","k","elianto","#f73b6a7A","32","32","1","0","1670.7999999970198","1","2","","","","","","","60e4ea15046cb3d1e64cedcc&order=1&STUDY_ID=61caf85b4892b889f6411591","51","3","3","lose","go","0"
"pit-trial","104","480153","0.0-56.0","battery-v0.2","","","1194.9000000059605","v","elianto","#3366ff99","-1","32","0","0","2052.9000000059605","1","2","","","","","","","60e4ea15046cb3d1e64cedcc&order=1&STUDY_ID=61caf85b4892b889f6411591","52","0","2","win","no-go","0"
"pit-trial","105","484577","0.0-57.0","battery-v0.2","","","1559.5","w","elianto","#f73b6a7A","32","32","1","0","2416.2000000029802","1","2","","","","","","","60e4ea15046cb3d1e64cedcc&order=1&STUDY_ID=61caf85b4892b889f6411591","53","5","3","lose","go","0"
"pit-trial","106","489452","0.0-58.0","battery-v0.2","","","-1","v","elianto","#3366ff99","-1","-1","1","+10","","0","2","","","","","","","60e4ea15046cb3d1e64cedcc&order=1&STUDY_ID=61caf85b4892b889f6411591","54","0","2","win","no-go","0"
"pit-trial","107","493252","0.0-59.0","battery-v0.2","","","937.9000000059605","e","elianto","#f73b6a7A","-1","32","0","-10","1792","1","2","","","","","","","60e4ea15046cb3d1e64cedcc&order=1&STUDY_ID=61caf85b4892b889f6411591","55","4","4","lose","no-go","0"
"pit-trial","108","497214","0.0-60.0","battery-v0.2","","","1100.5","d","elianto","#3366ff99","32","32","1","0","1953.7999999970198","1","2","","","","","","","60e4ea15046cb3d1e64cedcc&order=1&STUDY_ID=61caf85b4892b889f6411591","56","2","1","win","go","1"
"pit-trial","109","502086","0.0-61.0","battery-v0.2","","","-1","v","elianto","#3366ff99","-1","-1","1","+10","","0","2","","","","","","","60e4ea15046cb3d1e64cedcc&order=1&STUDY_ID=61caf85b4892b889f6411591","57","0","2","win","no-go","0"
"pit-trial","110","506969","0.0-62.0","battery-v0.2","","","-1","e","elianto","#f73b6a7A","-1","-1","1","0","","0","2","","","","","","","60e4ea15046cb3d1e64cedcc&order=1&STUDY_ID=61caf85b4892b889f6411591","58","4","4","lose","no-go","0"
"pit-trial","111","511540","0.0-63.0","battery-v0.2","","","1702.699999988079","w","elianto","#f73b6a7A","32","32","1","0","2553.2000000029802","1","2","","","","","","","60e4ea15046cb3d1e64cedcc&order=1&STUDY_ID=61caf85b4892b889f6411591","59","5","3","lose","go","0"
"pit-trial","112","515865","0.0-64.0","battery-v0.2","","","1451.9000000059605","d","elianto","#3366ff99","32","32","1","+10","2306.7000000029802","1","2","","","","","","","60e4ea15046cb3d1e64cedcc&order=1&STUDY_ID=61caf85b4892b889f6411591","60","2","1","win","go","0"
"pit-trial","113","520742","0.0-65.0","battery-v0.2","","","-1","e","elianto","#f73b6a7A","-1","-1","1","-10","","0","2","","","","","","","60e4ea15046cb3d1e64cedcc&order=1&STUDY_ID=61caf85b4892b889f6411591","61","4","4","lose","no-go","1"
"pit-trial","114","524343","0.0-66.0","battery-v0.2","","","731.6999999880791","s","elianto","#3366ff99","-1","32","0","0","1585.2999999970198","1","2","","","","","","","60e4ea15046cb3d1e64cedcc&order=1&STUDY_ID=61caf85b4892b889f6411591","62","6","2","win","no-go","0"
"pit-trial","115","528212","0.0-67.0","battery-v0.2","","","1002.5","w","elianto","#f73b6a7A","32","32","1","0","1853.6000000089407","1","2","","","","","","","60e4ea15046cb3d1e64cedcc&order=1&STUDY_ID=61caf85b4892b889f6411591","63","5","3","lose","go","0"
"pit-trial","116","531659","0.0-68.0","battery-v0.2","","","597.7000000029802","d","elianto","#3366ff99","32","32","1","0","1448.300000011921","1","2","","","","","","","60e4ea15046cb3d1e64cedcc&order=1&STUDY_ID=61caf85b4892b889f6411591","64","2","1","win","go","1"
"pit-trial","117","536531","0.0-69.0","battery-v0.2","","","-1","e","elianto","#f73b6a7A","-1","-1","1","0","","0","2","","","","","","","60e4ea15046cb3d1e64cedcc&order=1&STUDY_ID=61caf85b4892b889f6411591","65","4","4","lose","no-go","0"
"pit-trial","118","540121","0.0-70.0","battery-v0.2","","","728.8999999910593","d","elianto","#3366ff99","32","32","1","+10","1579.7000000029802","1","2","","","","","","","60e4ea15046cb3d1e64cedcc&order=1&STUDY_ID=61caf85b4892b889f6411591","66","2","1","win","go","0"
"pit-trial","119","544107","0.0-71.0","battery-v0.2","","","1125.5","s","elianto","#3366ff99","-1","32","0","0","1975.5","1","2","","","","","","","60e4ea15046cb3d1e64cedcc&order=1&STUDY_ID=61caf85b4892b889f6411591","67","6","2","win","no-go","0"
"pit-trial","120","548974","0.0-72.0","battery-v0.2","","","-1","w","elianto","#f73b6a7A","32","-1","0","-10","","0","2","","","","","","","60e4ea15046cb3d1e64cedcc&order=1&STUDY_ID=61caf85b4892b889f6411591","68","5","3","lose","go","0"
"pit-trial","121","553842","0.0-73.0","battery-v0.2","","","-1","s","elianto","#3366ff99","-1","-1","1","+10","","0","2","","","","","","","60e4ea15046cb3d1e64cedcc&order=1&STUDY_ID=61caf85b4892b889f6411591","69","6","2","win","no-go","0"
"pit-trial","122","557626","0.0-74.0","battery-v0.2","","","924.2999999970198","p","elianto","#f73b6a7A","-1","32","0","-10","1775.5","1","2","","","","","","","60e4ea15046cb3d1e64cedcc&order=1&STUDY_ID=61caf85b4892b889f6411591","70","7","4","lose","no-go","0"
"pit-trial","123","561281","0.0-75.0","battery-v0.2","","","791.9000000059605","w","elianto","#f73b6a7A","32","32","1","0","1643.7000000029802","1","2","","","","","","","60e4ea15046cb3d1e64cedcc&order=1&STUDY_ID=61caf85b4892b889f6411591","71","5","3","lose","go","0"
"pit-trial","124","566161","0.0-76.0","battery-v0.2","","","-1","e","elianto","#f73b6a7A","-1","-1","1","0","","0","2","","","","","","","60e4ea15046cb3d1e64cedcc&order=1&STUDY_ID=61caf85b4892b889f6411591","72","4","4","lose","no-go","0"
"pit-trial","125","571039","0.0-77.0","battery-v0.2","","","-1","p","elianto","#f73b6a7A","-1","-1","1","-10","","0","2","","","","","","","60e4ea15046cb3d1e64cedcc&order=1&STUDY_ID=61caf85b4892b889f6411591","73","7","4","lose","no-go","1"
"pit-trial","126","574841","0.0-78.0","battery-v0.2","","","934.8000000119209","w","elianto","#f73b6a7A","32","32","1","0","1788.8999999910593","1","2","","","","","","","60e4ea15046cb3d1e64cedcc&order=1&STUDY_ID=61caf85b4892b889f6411591","74","5","3","lose","go","0"
"pit-trial","127","579702","0.0-79.0","battery-v0.2","","","-1","e","elianto","#f73b6a7A","-1","-1","1","0","","0","2","","","","","","","60e4ea15046cb3d1e64cedcc&order=1&STUDY_ID=61caf85b4892b889f6411591","75","4","4","lose","no-go","0"
"pit-trial","128","583643","0.0-80.0","battery-v0.2","","","1071.7999999970198","s","elianto","#3366ff99","-1","32","0","0","1927.5999999940395","1","2","","","","","","","60e4ea15046cb3d1e64cedcc&order=1&STUDY_ID=61caf85b4892b889f6411591","76","6","2","win","no-go","0"
"pit-trial","129","588513","0.0-81.0","battery-v0.2","","","-1","s","elianto","#3366ff99","-1","-1","1","0","","0","2","","","","","","","60e4ea15046cb3d1e64cedcc&order=1&STUDY_ID=61caf85b4892b889f6411591","77","6","2","win","no-go","1"
"pit-trial","130","593376","0.0-82.0","battery-v0.2","","","-1","e","elianto","#f73b6a7A","-1","-1","1","0","","0","2","","","","","","","60e4ea15046cb3d1e64cedcc&order=1&STUDY_ID=61caf85b4892b889f6411591","78","4","4","lose","no-go","0"
"pit-trial","131","597102","0.0-83.0","battery-v0.2","","","859.4000000059605","w","elianto","#f73b6a7A","32","32","1","0","1714.4000000059605","1","2","","","","","","","60e4ea15046cb3d1e64cedcc&order=1&STUDY_ID=61caf85b4892b889f6411591","79","5","3","lose","go","0"
"pit-trial","132","600819","0.0-84.0","battery-v0.2","","","849.7999999970198","p","elianto","#f73b6a7A","-1","32","0","-10","1704.3999999910593","1","2","","","","","","","60e4ea15046cb3d1e64cedcc&order=1&STUDY_ID=61caf85b4892b889f6411591","80","7","4","lose","no-go","0"
"pit-trial","133","604475","0.0-85.0","battery-v0.2","","","795.0999999940395","w","elianto","#f73b6a7A","32","32","1","0","1649.8999999910593","1","2","","","","","","","60e4ea15046cb3d1e64cedcc&order=1&STUDY_ID=61caf85b4892b889f6411591","81","5","3","lose","go","0"
"pit-trial","134","609336","0.0-86.0","battery-v0.2","","","-1","e","elianto","#f73b6a7A","-1","-1","1","0","","0","2","","","","","","","60e4ea15046cb3d1e64cedcc&order=1&STUDY_ID=61caf85b4892b889f6411591","82","4","4","lose","no-go","0"
"pit-trial","135","612872","0.0-87.0","battery-v0.2","","","666.2000000029802","s","elianto","#3366ff99","-1","32","0","0","1521.4000000059605","1","2","","","","","","","60e4ea15046cb3d1e64cedcc&order=1&STUDY_ID=61caf85b4892b889f6411591","83","6","2","win","no-go","0"
"pit-trial","136","617740","0.0-88.0","battery-v0.2","","","-1","p","elianto","#f73b6a7A","-1","-1","1","0","","0","2","","","","","","","60e4ea15046cb3d1e64cedcc&order=1&STUDY_ID=61caf85b4892b889f6411591","84","7","4","lose","no-go","0"
"pit-trial","137","621443","0.0-89.0","battery-v0.2","","","842.2999999970198","w","elianto","#f73b6a7A","32","32","1","0","1693.7000000029802","1","2","","","","","","","60e4ea15046cb3d1e64cedcc&order=1&STUDY_ID=61caf85b4892b889f6411591","85","5","3","lose","go","0"
"pit-trial","138","626308","0.0-90.0","battery-v0.2","","","-1","e","elianto","#f73b6a7A","-1","-1","1","0","","0","2","","","","","","","60e4ea15046cb3d1e64cedcc&order=1&STUDY_ID=61caf85b4892b889f6411591","86","4","4","lose","no-go","0"
"pit-trial","139","630092","0.0-91.0","battery-v0.2","","","916.7999999970198","s","elianto","#3366ff99","-1","32","0","0","1767.5","1","2","","","","","","","60e4ea15046cb3d1e64cedcc&order=1&STUDY_ID=61caf85b4892b889f6411591","87","6","2","win","no-go","0"
"pit-trial","140","634970","0.0-92.0","battery-v0.2","","","-1","p","elianto","#f73b6a7A","-1","-1","1","0","","0","2","","","","","","","60e4ea15046cb3d1e64cedcc&order=1&STUDY_ID=61caf85b4892b889f6411591","88","7","4","lose","no-go","0"
"pit-trial","141","638634","0.0-93.0","battery-v0.2","","","792.7000000029802","s","elianto","#3366ff99","-1","32","0","0","1644.0999999940395","1","2","","","","","","","60e4ea15046cb3d1e64cedcc&order=1&STUDY_ID=61caf85b4892b889f6411591","89","6","2","win","no-go","0"
"pit-trial","142","643512","0.0-94.0","battery-v0.2","","","-1","e","elianto","#f73b6a7A","-1","-1","1","0","3384.9000000059605","1","2","","","","","","","60e4ea15046cb3d1e64cedcc&order=1&STUDY_ID=61caf85b4892b889f6411591","90","4","4","lose","no-go","0"
"pit-trial","143","648394","0.0-95.0","battery-v0.2","","","-1","p","elianto","#f73b6a7A","-1","-1","1","0","","0","2","","","","","","","60e4ea15046cb3d1e64cedcc&order=1&STUDY_ID=61caf85b4892b889f6411591","91","7","4","lose","no-go","0"
"pit-trial","144","651971","0.0-96.0","battery-v0.2","","","709.3999999910593","w","elianto","#f73b6a7A","32","32","1","-10","1560.5","1","2","","","","","","","60e4ea15046cb3d1e64cedcc&order=1&STUDY_ID=61caf85b4892b889f6411591","92","5","3","lose","go","1"
"pit-trial","145","656842","0.0-97.0","battery-v0.2","","","-1","s","elianto","#3366ff99","-1","-1","1","0","","0","2","","","","","","","60e4ea15046cb3d1e64cedcc&order=1&STUDY_ID=61caf85b4892b889f6411591","93","6","2","win","no-go","1"
"pit-trial","146","660458","0.0-98.0","battery-v0.2","","","752.5","p","elianto","#f73b6a7A","-1","32","0","-10","1607.5999999940395","1","2","","","","","","","60e4ea15046cb3d1e64cedcc&order=1&STUDY_ID=61caf85b4892b889f6411591","94","7","4","lose","no-go","0"
"pit-trial","147","663994","0.0-99.0","battery-v0.2","","","666.5999999940395","w","elianto","#f73b6a7A","32","32","1","0","1520.5999999940395","1","2","","","","","","","60e4ea15046cb3d1e64cedcc&order=1&STUDY_ID=61caf85b4892b889f6411591","95","5","3","lose","go","0"
"pit-trial","148","668851","0.0-100.0","battery-v0.2","","","-1","g","elianto","#f73b6a7A","-1","-1","1","0","3482.2999999970198","1","2","","","","","","","60e4ea15046cb3d1e64cedcc&order=1&STUDY_ID=61caf85b4892b889f6411591","96","8","4","lose","no-go","0"
"pit-trial","149","672370","0.0-101.0","battery-v0.2","","","662.1000000089407","p","elianto","#f73b6a7A","-1","32","0","-10","1512.5","1","2","","","","","","","60e4ea15046cb3d1e64cedcc&order=1&STUDY_ID=61caf85b4892b889f6411591","97","7","4","lose","no-go","0"
"pit-trial","150","677239","0.0-102.0","battery-v0.2","","","-1","g","elianto","#f73b6a7A","-1","-1","1","-10","","0","2","","","","","","","60e4ea15046cb3d1e64cedcc&order=1&STUDY_ID=61caf85b4892b889f6411591","98","8","4","lose","no-go","1"
"pit-trial","151","680848","0.0-103.0","battery-v0.2","","","747.5","w","elianto","#f73b6a7A","32","32","1","-10","1598.7999999970198","1","2","","","","","","","60e4ea15046cb3d1e64cedcc&order=1&STUDY_ID=61caf85b4892b889f6411591","99","5","3","lose","go","1"
"pit-trial","152","684379","0.0-104.0","battery-v0.2","","","661.3999999910593","s","elianto","#3366ff99","-1","32","0","0","1518.199999988079","1","2","","","","","","","60e4ea15046cb3d1e64cedcc&order=1&STUDY_ID=61caf85b4892b889f6411591","100","6","2","win","no-go","0"
"pit-trial","153","689246","0.0-105.0","battery-v0.2","","","-1","s","elianto","#3366ff99","-1","-1","1","+10","","0","2","","","","","","","60e4ea15046cb3d1e64cedcc&order=1&STUDY_ID=61caf85b4892b889f6411591","101","6","2","win","no-go","0"
"pit-trial","154","693057","0.0-106.0","battery-v0.2","","","945.5","a","elianto","#3366ff99","32","32","1","+10","1801.4000000059605","1","2","","","","","","","60e4ea15046cb3d1e64cedcc&order=1&STUDY_ID=61caf85b4892b889f6411591","102","9","1","win","go","0"
"pit-trial","155","697932","0.0-107.0","battery-v0.2","","","-1","l","elianto","#f73b6a7A","32","-1","0","0","","0","2","","","","","","","60e4ea15046cb3d1e64cedcc&order=1&STUDY_ID=61caf85b4892b889f6411591","103","10","3","lose","go","1"
"pit-trial","156","701746","0.0-108.0","battery-v0.2","","","956.6999999880791","g","elianto","#f73b6a7A","-1","32","0","-10","1807.2999999970198","1","2","","","","","","","60e4ea15046cb3d1e64cedcc&order=1&STUDY_ID=61caf85b4892b889f6411591","104","8","4","lose","no-go","0"
"pit-trial","157","705887","0.0-109.0","battery-v0.2","","","1276.5999999940395","l","elianto","#f73b6a7A","32","32","1","0","2128.5","1","2","","","","","","","60e4ea15046cb3d1e64cedcc&order=1&STUDY_ID=61caf85b4892b889f6411591","105","10","3","lose","go","0"
"pit-trial","158","710757","0.0-110.0","battery-v0.2","","","-1","s","elianto","#3366ff99","-1","-1","1","+10","","0","2","","","","","","","60e4ea15046cb3d1e64cedcc&order=1&STUDY_ID=61caf85b4892b889f6411591","106","6","2","win","no-go","0"
"pit-trial","159","715622","0.0-111.0","battery-v0.2","","","-1","a","elianto","#3366ff99","32","-1","0","0","2872.2999999970198","1","2","","","","","","","60e4ea15046cb3d1e64cedcc&order=1&STUDY_ID=61caf85b4892b889f6411591","107","9","1","win","go","0"
"pit-trial","160","720491","0.0-112.0","battery-v0.2","","","-1","g","elianto","#f73b6a7A","-1","-1","1","-10","","0","2","","","","","","","60e4ea15046cb3d1e64cedcc&order=1&STUDY_ID=61caf85b4892b889f6411591","108","8","4","lose","no-go","1"
"pit-trial","161","724136","0.0-113.0","battery-v0.2","","","789.5","u","elianto","#3366ff99","32","32","1","+10","1640.7999999970198","1","2","","","","","","","60e4ea15046cb3d1e64cedcc&order=1&STUDY_ID=61caf85b4892b889f6411591","109","11","1","win","go","0"
"pit-trial","162","728998","0.0-114.0","battery-v0.2","","","-1","l","elianto","#f73b6a7A","32","-1","0","-10","","0","2","","","","","","","60e4ea15046cb3d1e64cedcc&order=1&STUDY_ID=61caf85b4892b889f6411591","110","10","3","lose","go","0"
"pit-trial","163","733871","0.0-115.0","battery-v0.2","","","-1","a","elianto","#3366ff99","32","-1","0","0","","0","2","","","","","","","60e4ea15046cb3d1e64cedcc&order=1&STUDY_ID=61caf85b4892b889f6411591","111","9","1","win","go","0"
"pit-trial","164","737501","0.0-116.0","battery-v0.2","","","770.5","g","elianto","#f73b6a7A","-1","32","0","-10","1623.7000000029802","1","2","","","","","","","60e4ea15046cb3d1e64cedcc&order=1&STUDY_ID=61caf85b4892b889f6411591","112","8","4","lose","no-go","0"
"pit-trial","165","742367","0.0-117.0","battery-v0.2","","","-1","a","elianto","#3366ff99","32","-1","0","0","","0","2","","","","","","","60e4ea15046cb3d1e64cedcc&order=1&STUDY_ID=61caf85b4892b889f6411591","113","9","1","win","go","0"
"pit-trial","166","746202","0.0-118.0","battery-v0.2","","","968.9000000059605","u","elianto","#3366ff99","32","32","1","+10","1819.4000000059605","1","2","","","","","","","60e4ea15046cb3d1e64cedcc&order=1&STUDY_ID=61caf85b4892b889f6411591","114","11","1","win","go","0"
"pit-trial","167","750142","0.0-119.0","battery-v0.2","","","1082.2000000029802","l","elianto","#f73b6a7A","32","32","1","0","1933.7000000029802","1","2","","","","","","","60e4ea15046cb3d1e64cedcc&order=1&STUDY_ID=61caf85b4892b889f6411591","115","10","3","lose","go","0"
"pit-trial","168","754356","0.0-120.0","battery-v0.2","","","1353","g","elianto","#f73b6a7A","-1","32","0","-10","2207.7000000029802","1","2","","","","","","","60e4ea15046cb3d1e64cedcc&order=1&STUDY_ID=61caf85b4892b889f6411591","116","8","4","lose","no-go","0"
"pit-trial","169","757969","0.0-121.0","battery-v0.2","","","741.2000000029802","g","elianto","#f73b6a7A","-1","32","0","-10","1597.7999999970198","1","2","","","","","","","60e4ea15046cb3d1e64cedcc&order=1&STUDY_ID=61caf85b4892b889f6411591","117","8","4","lose","no-go","0"
"pit-trial","170","761974","0.0-122.0","battery-v0.2","","","1144.2999999970198","u","elianto","#3366ff99","32","32","1","+10","1999.6000000089407","1","2","","","","","","","60e4ea15046cb3d1e64cedcc&order=1&STUDY_ID=61caf85b4892b889f6411591","118","11","1","win","go","0"
"pit-trial","171","766848","0.0-123.0","battery-v0.2","","","-1","a","elianto","#3366ff99","32","-1","0","0","","0","2","","","","","","","60e4ea15046cb3d1e64cedcc&order=1&STUDY_ID=61caf85b4892b889f6411591","119","9","1","win","go","0"
"pit-trial","172","770616","0.0-124.0","battery-v0.2","","","907.1000000089407","l","elianto","#f73b6a7A","32","32","1","0","1757.7000000029802","1","2","","","","","","","60e4ea15046cb3d1e64cedcc&order=1&STUDY_ID=61caf85b4892b889f6411591","120","10","3","lose","go","0"
"pit-trial","173","774257","0.0-125.0","battery-v0.2","","","777.7000000029802","g","elianto","#f73b6a7A","-1","32","0","-10","1628.2999999970198","1","2","","","","","","","60e4ea15046cb3d1e64cedcc&order=1&STUDY_ID=61caf85b4892b889f6411591","121","8","4","lose","no-go","0"
"pit-trial","174","779124","0.0-126.0","battery-v0.2","","","-1","l","elianto","#f73b6a7A","32","-1","0","-10","","0","2","","","","","","","60e4ea15046cb3d1e64cedcc&order=1&STUDY_ID=61caf85b4892b889f6411591","122","10","3","lose","go","0"
"pit-trial","175","782987","0.0-127.0","battery-v0.2","","","994.5","u","elianto","#3366ff99","32","32","1","+10","1849.1000000089407","1","2","","","","","","","60e4ea15046cb3d1e64cedcc&order=1&STUDY_ID=61caf85b4892b889f6411591","123","11","1","win","go","0"
"pit-trial","176","786603","0.0-128.0","battery-v0.2","","","753.2999999970198","a","elianto","#3366ff99","32","32","1","+10","1606.2000000029802","1","2","","","","","","","60e4ea15046cb3d1e64cedcc&order=1&STUDY_ID=61caf85b4892b889f6411591","124","9","1","win","go","0"
"pit-trial","177","790146","0.0-129.0","battery-v0.2","","","679.2000000029802","a","elianto","#3366ff99","32","32","1","+10","1530","1","2","","","","","","","60e4ea15046cb3d1e64cedcc&order=1&STUDY_ID=61caf85b4892b889f6411591","125","9","1","win","go","0"
"pit-trial","178","793882","0.0-130.0","battery-v0.2","","","873.2999999970198","g","elianto","#f73b6a7A","-1","32","0","0","1726.0999999940395","1","2","","","","","","","60e4ea15046cb3d1e64cedcc&order=1&STUDY_ID=61caf85b4892b889f6411591","126","8","4","lose","no-go","1"
"pit-trial","179","797374","0.0-131.0","battery-v0.2","","","626","u","elianto","#3366ff99","32","32","1","+10","1479.2000000029802","1","2","","","","","","","60e4ea15046cb3d1e64cedcc&order=1&STUDY_ID=61caf85b4892b889f6411591","127","11","1","win","go","0"
"pit-trial","180","801113","0.0-132.0","battery-v0.2","","","867.5","l","elianto","#f73b6a7A","32","32","1","0","1723.300000011921","1","2","","","","","","","60e4ea15046cb3d1e64cedcc&order=1&STUDY_ID=61caf85b4892b889f6411591","128","10","3","lose","go","0"
"pit-trial","181","804591","0.0-133.0","battery-v0.2","","","619.5","l","elianto","#f73b6a7A","32","32","1","0","1472.7999999970198","1","2","","","","","","","60e4ea15046cb3d1e64cedcc&order=1&STUDY_ID=61caf85b4892b889f6411591","129","10","3","lose","go","0"
"pit-trial","182","808028","0.0-134.0","battery-v0.2","","","569.5","u","elianto","#3366ff99","32","32","1","+10","1423.8999999910593","1","2","","","","","","","60e4ea15046cb3d1e64cedcc&order=1&STUDY_ID=61caf85b4892b889f6411591","130","11","1","win","go","0"
"pit-trial","183","811535","0.0-135.0","battery-v0.2","","","649.2000000029802","g","elianto","#f73b6a7A","-1","32","0","-10","1501.7999999970198","1","2","","","","","","","60e4ea15046cb3d1e64cedcc&order=1&STUDY_ID=61caf85b4892b889f6411591","131","8","4","lose","no-go","0"
"pit-trial","184","815019","0.0-136.0","battery-v0.2","","","617","a","elianto","#3366ff99","32","32","1","+10","1468","1","2","","","","","","","60e4ea15046cb3d1e64cedcc&order=1&STUDY_ID=61caf85b4892b889f6411591","132","9","1","win","go","0"
"pit-trial","185","819881","0.0-137.0","battery-v0.2","","","-1","g","elianto","#f73b6a7A","-1","-1","1","0","","0","2","","","","","","","60e4ea15046cb3d1e64cedcc&order=1&STUDY_ID=61caf85b4892b889f6411591","133","8","4","lose","no-go","0"
"pit-trial","186","823348","0.0-138.0","battery-v0.2","","","603.2000000029802","a","elianto","#3366ff99","32","32","1","+10","1454.4000000059605","1","2","","","","","","","60e4ea15046cb3d1e64cedcc&order=1&STUDY_ID=61caf85b4892b889f6411591","134","9","1","win","go","0"
"pit-trial","187","827686","0.0-139.0","battery-v0.2","","","1469.3999999910593","l","elianto","#f73b6a7A","32","32","1","0","2326.7999999970198","1","2","","","","","","","60e4ea15046cb3d1e64cedcc&order=1&STUDY_ID=61caf85b4892b889f6411591","135","10","3","lose","go","0"
"pit-trial","188","831179","0.0-140.0","battery-v0.2","","","631.1999999880791","u","elianto","#3366ff99","32","32","1","+10","1485.2999999970198","1","2","","","","","","","60e4ea15046cb3d1e64cedcc&order=1&STUDY_ID=61caf85b4892b889f6411591","136","11","1","win","go","0"
"pit-trial","189","834790","0.0-141.0","battery-v0.2","","","738.1000000089407","l","elianto","#f73b6a7A","32","32","1","0","1596.2000000029802","1","2","","","","","","","60e4ea15046cb3d1e64cedcc&order=1&STUDY_ID=61caf85b4892b889f6411591","137","10","3","lose","go","0"
"pit-trial","190","838265","0.0-142.0","battery-v0.2","","","617.2999999970198","u","elianto","#3366ff99","32","32","1","0","1468.2000000029802","1","2","","","","","","","60e4ea15046cb3d1e64cedcc&order=1&STUDY_ID=61caf85b4892b889f6411591","138","11","1","win","go","1"
"pit-trial","191","841816","0.0-143.0","battery-v0.2","","","687.9000000059605","g","elianto","#f73b6a7A","-1","32","0","-10","1543.4000000059605","1","2","","","","","","","60e4ea15046cb3d1e64cedcc&order=1&STUDY_ID=61caf85b4892b889f6411591","139","8","4","lose","no-go","0"
"pit-trial","192","845261","0.0-144.0","battery-v0.2","","","584.7999999970198","a","elianto","#3366ff99","32","32","1","+10","1437.7999999970198","1","2","","","","","","","60e4ea15046cb3d1e64cedcc&order=1&STUDY_ID=61caf85b4892b889f6411591","140","9","1","win","go","0"
"pit-instructions","193","866824","0.0-145.0","battery-v0.2","","[{""page_index"":0,""viewing_time"":17913.09999999404},{""page_index"":1,""viewing_time"":3647}]","21561.09999999404","","","","","","","","","","","","","","","","","","","","","","",""
"pit-trial","194","870320","0.0-146.0","battery-v0.2","","","630.8000000119209","f","elianto","#f73b6a7A","-1","32","0","-10","1481.6000000089407","1","3","","","","","","","60e4ea15046cb3d1e64cedcc&order=1&STUDY_ID=61caf85b4892b889f6411591","141","2","4","lose","no-go","0"
"pit-trial","195","873706","0.0-147.0","battery-v0.2","","","525.2999999970198","q","elianto","#3366ff99","-1","32","0","+10","1380.0999999940395","1","3","","","","","","","60e4ea15046cb3d1e64cedcc&order=1&STUDY_ID=61caf85b4892b889f6411591","142","0","2","win","no-go","1"
"pit-trial","196","877528","0.0-148.0","battery-v0.2","","","955.3000000119209","n","elianto","#f73b6a7A","32","32","1","0","1807.1000000089407","1","3","","","","","","","60e4ea15046cb3d1e64cedcc&order=1&STUDY_ID=61caf85b4892b889f6411591","143","1","3","lose","go","0"
"pit-trial","197","881113","0.0-149.0","battery-v0.2","","","730.7000000029802","x","elianto","#3366ff99","32","32","1","+10","1580.7999999970198","1","3","","","","","","","60e4ea15046cb3d1e64cedcc&order=1&STUDY_ID=61caf85b4892b889f6411591","144","3","1","win","go","0"
"pit-trial","198","884628","0.0-150.0","battery-v0.2","","","652.5","x","elianto","#3366ff99","32","32","1","+10","1503.4000000059605","1","3","","","","","","","60e4ea15046cb3d1e64cedcc&order=1&STUDY_ID=61caf85b4892b889f6411591","145","3","1","win","go","0"
"pit-trial","199","888207","0.0-151.0","battery-v0.2","","","718.6999999880791","q","elianto","#3366ff99","-1","32","0","+10","1570.8999999910593","1","3","","","","","","","60e4ea15046cb3d1e64cedcc&order=1&STUDY_ID=61caf85b4892b889f6411591","146","0","2","win","no-go","1"
"pit-trial","200","893073","0.0-152.0","battery-v0.2","","","-1","f","elianto","#f73b6a7A","-1","-1","1","0","","0","3","","","","","","","60e4ea15046cb3d1e64cedcc&order=1&STUDY_ID=61caf85b4892b889f6411591","147","2","4","lose","no-go","0"
"pit-trial","201","896773","0.0-153.0","battery-v0.2","","","834.4000000059605","n","elianto","#f73b6a7A","32","32","1","-10","1685.7999999970198","1","3","","","","","","","60e4ea15046cb3d1e64cedcc&order=1&STUDY_ID=61caf85b4892b889f6411591","148","1","3","lose","go","1"
"pit-trial","202","900173","0.0-154.0","battery-v0.2","","","544.4000000059605","x","elianto","#3366ff99","32","32","1","+10","1394.5","1","3","","","","","","","60e4ea15046cb3d1e64cedcc&order=1&STUDY_ID=61caf85b4892b889f6411591","149","3","1","win","go","0"
"pit-trial","203","905050","0.0-155.0","battery-v0.2","","","-1","n","elianto","#f73b6a7A","32","-1","0","-10","","0","3","","","","","","","60e4ea15046cb3d1e64cedcc&order=1&STUDY_ID=61caf85b4892b889f6411591","150","1","3","lose","go","0"
"pit-trial","204","909926","0.0-156.0","battery-v0.2","","","-1","f","elianto","#f73b6a7A","-1","-1","1","0","","0","3","","","","","","","60e4ea15046cb3d1e64cedcc&order=1&STUDY_ID=61caf85b4892b889f6411591","151","2","4","lose","no-go","0"
"pit-trial","205","913384","0.0-157.0","battery-v0.2","","","595.9000000059605","q","elianto","#3366ff99","-1","32","0","0","1448.2000000029802","1","3","","","","","","","60e4ea15046cb3d1e64cedcc&order=1&STUDY_ID=61caf85b4892b889f6411591","152","0","2","win","no-go","0"
"pit-trial","206","916767","0.0-158.0","battery-v0.2","","","512.7000000029802","x","elianto","#3366ff99","32","32","1","+10","1368.5999999940395","1","3","","","","","","","60e4ea15046cb3d1e64cedcc&order=1&STUDY_ID=61caf85b4892b889f6411591","153","3","1","win","go","0"
"pit-trial","207","921643","0.0-159.0","battery-v0.2","","","-1","f","elianto","#f73b6a7A","-1","-1","1","0","","0","3","","","","","","","60e4ea15046cb3d1e64cedcc&order=1&STUDY_ID=61caf85b4892b889f6411591","154","2","4","lose","no-go","0"
"pit-trial","208","925286","0.0-160.0","battery-v0.2","","","783.5","q","elianto","#3366ff99","-1","32","0","0","1634.5","1","3","","","","","","","60e4ea15046cb3d1e64cedcc&order=1&STUDY_ID=61caf85b4892b889f6411591","155","0","2","win","no-go","0"
"pit-trial","209","929233","0.0-161.0","battery-v0.2","","","1085.699999988079","n","elianto","#f73b6a7A","32","32","1","0","1939.199999988079","1","3","","","","","","","60e4ea15046cb3d1e64cedcc&order=1&STUDY_ID=61caf85b4892b889f6411591","156","1","3","lose","go","0"
"pit-trial","210","932680","0.0-162.0","battery-v0.2","","","584.5999999940395","x","elianto","#3366ff99","32","32","1","+10","1439.699999988079","1","3","","","","","","","60e4ea15046cb3d1e64cedcc&order=1&STUDY_ID=61caf85b4892b889f6411591","157","3","1","win","go","0"
"pit-trial","211","936385","0.0-163.0","battery-v0.2","","","831.5","n","elianto","#f73b6a7A","32","32","1","-10","1687.8999999910593","1","3","","","","","","","60e4ea15046cb3d1e64cedcc&order=1&STUDY_ID=61caf85b4892b889f6411591","158","1","3","lose","go","1"
"pit-trial","212","941267","0.0-164.0","battery-v0.2","","","-1","f","elianto","#f73b6a7A","-1","-1","1","0","","0","3","","","","","","","60e4ea15046cb3d1e64cedcc&order=1&STUDY_ID=61caf85b4892b889f6411591","159","2","4","lose","no-go","0"
"pit-trial","213","946145","0.0-165.0","battery-v0.2","","","-1","q","elianto","#3366ff99","-1","-1","1","+10","","0","3","","","","","","","60e4ea15046cb3d1e64cedcc&order=1&STUDY_ID=61caf85b4892b889f6411591","160","0","2","win","no-go","0"
"pit-trial","214","951005","0.0-166.0","battery-v0.2","","","-1","f","elianto","#f73b6a7A","-1","-1","1","0","","0","3","","","","","","","60e4ea15046cb3d1e64cedcc&order=1&STUDY_ID=61caf85b4892b889f6411591","161","2","4","lose","no-go","0"
"pit-trial","215","954379","0.0-167.0","battery-v0.2","","","515.2999999970198","x","elianto","#3366ff99","32","32","1","+10","1367.2999999970198","1","3","","","","","","","60e4ea15046cb3d1e64cedcc&order=1&STUDY_ID=61caf85b4892b889f6411591","162","3","1","win","go","0"
"pit-trial","216","957962","0.0-168.0","battery-v0.2","","","723.8999999910593","n","elianto","#f73b6a7A","32","32","1","0","1575.7999999970198","1","3","","","","","","","60e4ea15046cb3d1e64cedcc&order=1&STUDY_ID=61caf85b4892b889f6411591","163","1","3","lose","go","0"
"pit-trial","217","961524","0.0-169.0","battery-v0.2","","","703.5","q","elianto","#3366ff99","-1","32","0","+10","1553.5","1","3","","","","","","","60e4ea15046cb3d1e64cedcc&order=1&STUDY_ID=61caf85b4892b889f6411591","164","0","2","win","no-go","1"
"pit-trial","218","965487","0.0-170.0","battery-v0.2","","","1102.8999999910593","n","elianto","#f73b6a7A","32","32","1","0","1957","1","3","","","","","","","60e4ea15046cb3d1e64cedcc&order=1&STUDY_ID=61caf85b4892b889f6411591","165","1","3","lose","go","0"
"pit-trial","219","970347","0.0-171.0","battery-v0.2","","","-1","f","elianto","#f73b6a7A","-1","-1","1","0","","0","3","","","","","","","60e4ea15046cb3d1e64cedcc&order=1&STUDY_ID=61caf85b4892b889f6411591","166","2","4","lose","no-go","0"
"pit-trial","220","974106","0.0-172.0","battery-v0.2","","","899.7999999970198","q","elianto","#3366ff99","-1","32","0","0","1750.5999999940395","1","3","","","","","","","60e4ea15046cb3d1e64cedcc&order=1&STUDY_ID=61caf85b4892b889f6411591","167","0","2","win","no-go","0"
"pit-trial","221","977447","0.0-173.0","battery-v0.2","","","484.19999998807907","x","elianto","#3366ff99","32","32","1","0","1336.0999999940395","1","3","","","","","","","60e4ea15046cb3d1e64cedcc&order=1&STUDY_ID=61caf85b4892b889f6411591","168","3","1","win","go","1"
"pit-trial","222","980868","0.0-174.0","battery-v0.2","","","554.8999999910593","x","elianto","#3366ff99","32","32","1","+10","1406.9000000059605","1","3","","","","","","","60e4ea15046cb3d1e64cedcc&order=1&STUDY_ID=61caf85b4892b889f6411591","169","3","1","win","go","0"
"pit-trial","223","985731","0.0-175.0","battery-v0.2","","","-1","q","elianto","#3366ff99","-1","-1","1","+10","","0","3","","","","","","","60e4ea15046cb3d1e64cedcc&order=1&STUDY_ID=61caf85b4892b889f6411591","170","0","2","win","no-go","0"
"pit-trial","224","990602","0.0-176.0","battery-v0.2","","","-1","f","elianto","#f73b6a7A","-1","-1","1","0","","0","3","","","","","","","60e4ea15046cb3d1e64cedcc&order=1&STUDY_ID=61caf85b4892b889f6411591","171","2","4","lose","no-go","0"
"pit-trial","225","994206","0.0-177.0","battery-v0.2","","","750.4000000059605","n","elianto","#f73b6a7A","32","32","1","0","1600.7999999970198","1","3","","","","","","","60e4ea15046cb3d1e64cedcc&order=1&STUDY_ID=61caf85b4892b889f6411591","172","1","3","lose","go","0"
"pit-trial","226","998315","0.0-178.0","battery-v0.2","","","1250.1000000089407","n","elianto","#f73b6a7A","32","32","1","-10","2104.2000000029802","1","3","","","","","","","60e4ea15046cb3d1e64cedcc&order=1&STUDY_ID=61caf85b4892b889f6411591","173","1","3","lose","go","1"
"pit-trial","227","1003178","0.0-179.0","battery-v0.2","","","-1","f","elianto","#f73b6a7A","-1","-1","1","0","","0","3","","","","","","","60e4ea15046cb3d1e64cedcc&order=1&STUDY_ID=61caf85b4892b889f6411591","174","2","4","lose","no-go","0"
"pit-trial","228","1007082","0.0-180.0","battery-v0.2","","","1032.9000000059605","t","elianto","#f73b6a7A","32","32","1","-10","1884.8999999910593","1","3","","","","","","","60e4ea15046cb3d1e64cedcc&order=1&STUDY_ID=61caf85b4892b889f6411591","175","4","3","lose","go","1"
"pit-trial","229","1010878","0.0-181.0","battery-v0.2","","","940.3999999910593","b","elianto","#f73b6a7A","-1","32","0","0","1791.2000000029802","1","3","","","","","","","60e4ea15046cb3d1e64cedcc&order=1&STUDY_ID=61caf85b4892b889f6411591","176","5","4","lose","no-go","1"
"pit-trial","230","1015738","0.0-182.0","battery-v0.2","","","-1","f","elianto","#f73b6a7A","-1","-1","1","-10","","0","3","","","","","","","60e4ea15046cb3d1e64cedcc&order=1&STUDY_ID=61caf85b4892b889f6411591","177","2","4","lose","no-go","1"
"pit-trial","231","1019441","0.0-183.0","battery-v0.2","","","831.8000000119209","t","elianto","#f73b6a7A","32","32","1","0","1686.1000000089407","1","3","","","","","","","60e4ea15046cb3d1e64cedcc&order=1&STUDY_ID=61caf85b4892b889f6411591","178","4","3","lose","go","0"
"pit-trial","232","1023554","0.0-184.0","battery-v0.2","","","1248.2999999970198","b","elianto","#f73b6a7A","-1","32","0","-10","2099.7999999970198","1","3","","","","","","","60e4ea15046cb3d1e64cedcc&order=1&STUDY_ID=61caf85b4892b889f6411591","179","5","4","lose","no-go","0"
"pit-trial","233","1027716","0.0-185.0","battery-v0.2","","","1297.800000011921","n","elianto","#f73b6a7A","32","32","1","0","2149.8999999910593","1","3","","","","","","","60e4ea15046cb3d1e64cedcc&order=1&STUDY_ID=61caf85b4892b889f6411591","180","1","3","lose","go","0"
"pit-trial","234","1032592","0.0-186.0","battery-v0.2","","","-1","b","elianto","#f73b6a7A","-1","-1","1","0","","0","3","","","","","","","60e4ea15046cb3d1e64cedcc&order=1&STUDY_ID=61caf85b4892b889f6411591","181","5","4","lose","no-go","0"
"pit-trial","235","1037460","0.0-187.0","battery-v0.2","","","-1","f","elianto","#f73b6a7A","-1","-1","1","0","","0","3","","","","","","","60e4ea15046cb3d1e64cedcc&order=1&STUDY_ID=61caf85b4892b889f6411591","182","2","4","lose","no-go","0"
"pit-trial","236","1042328","0.0-188.0","battery-v0.2","","","-1","t","elianto","#f73b6a7A","32","-1","0","-10","","0","3","","","","","","","60e4ea15046cb3d1e64cedcc&order=1&STUDY_ID=61caf85b4892b889f6411591","183","4","3","lose","go","0"
"pit-trial","237","1045988","0.0-189.0","battery-v0.2","","","788.5","c","elianto","#3366ff99","-1","32","0","0","1643","1","3","","","","","","","60e4ea15046cb3d1e64cedcc&order=1&STUDY_ID=61caf85b4892b889f6411591","184","6","2","win","no-go","0"
"pit-trial","238","1049702","0.0-190.0","battery-v0.2","","","853.7999999970198","t","elianto","#f73b6a7A","32","32","1","0","1708.2000000029802","1","3","","","","","","","60e4ea15046cb3d1e64cedcc&order=1&STUDY_ID=61caf85b4892b889f6411591","185","4","3","lose","go","0"
"pit-trial","239","1054577","0.0-191.0","battery-v0.2","","","-1","c","elianto","#3366ff99","-1","-1","1","+10","","0","3","","","","","","","60e4ea15046cb3d1e64cedcc&order=1&STUDY_ID=61caf85b4892b889f6411591","186","6","2","win","no-go","0"
"pit-trial","240","1059450","0.0-192.0","battery-v0.2","","","-1","b","elianto","#f73b6a7A","-1","-1","1","0","","0","3","","","","","","","60e4ea15046cb3d1e64cedcc&order=1&STUDY_ID=61caf85b4892b889f6411591","187","5","4","lose","no-go","0"
"pit-trial","241","1064322","0.0-193.0","battery-v0.2","","","-1","f","elianto","#f73b6a7A","-1","-1","1","-10","","0","3","","","","","","","60e4ea15046cb3d1e64cedcc&order=1&STUDY_ID=61caf85b4892b889f6411591","188","2","4","lose","no-go","1"
"pit-trial","242","1067923","0.0-194.0","battery-v0.2","","","734.1000000089407","t","elianto","#f73b6a7A","32","32","1","0","1588.5","1","3","","","","","","","60e4ea15046cb3d1e64cedcc&order=1&STUDY_ID=61caf85b4892b889f6411591","189","4","3","lose","go","0"
"pit-trial","243","1072783","0.0-195.0","battery-v0.2","","","-1","b","elianto","#f73b6a7A","-1","-1","1","0","","0","3","","","","","","","60e4ea15046cb3d1e64cedcc&order=1&STUDY_ID=61caf85b4892b889f6411591","190","5","4","lose","no-go","0"
"pit-trial","244","1076282","0.0-196.0","battery-v0.2","","","632.2999999970198","z","elianto","#3366ff99","32","32","1","+10","1488.2000000029802","1","3","","","","","","","60e4ea15046cb3d1e64cedcc&order=1&STUDY_ID=61caf85b4892b889f6411591","191","7","1","win","go","0"
"pit-trial","245","1079862","0.0-197.0","battery-v0.2","","","709.7999999970198","c","elianto","#3366ff99","-1","32","0","0","1564.2999999970198","1","3","","","","","","","60e4ea15046cb3d1e64cedcc&order=1&STUDY_ID=61caf85b4892b889f6411591","192","6","2","win","no-go","0"
"pit-trial","246","1084735","0.0-198.0","battery-v0.2","","","-1","b","elianto","#f73b6a7A","-1","-1","1","0","","0","3","","","","","","","60e4ea15046cb3d1e64cedcc&order=1&STUDY_ID=61caf85b4892b889f6411591","193","5","4","lose","no-go","0"
"pit-trial","247","1088549","0.0-199.0","battery-v0.2","","","953.9000000059605","z","elianto","#3366ff99","32","32","1","+10","1804.5","1","3","","","","","","","60e4ea15046cb3d1e64cedcc&order=1&STUDY_ID=61caf85b4892b889f6411591","194","7","1","win","go","0"
"pit-trial","248","1092276","0.0-200.0","battery-v0.2","","","862.7999999970198","t","elianto","#f73b6a7A","32","32","1","0","1715.199999988079","1","3","","","","","","","60e4ea15046cb3d1e64cedcc&order=1&STUDY_ID=61caf85b4892b889f6411591","195","4","3","lose","go","0"
"pit-trial","249","1097150","0.0-201.0","battery-v0.2","","","-1","c","elianto","#3366ff99","-1","-1","1","+10","","0","3","","","","","","","60e4ea15046cb3d1e64cedcc&order=1&STUDY_ID=61caf85b4892b889f6411591","196","6","2","win","no-go","0"
"pit-trial","250","1100687","0.0-202.0","battery-v0.2","","","674","z","elianto","#3366ff99","32","32","1","+10","1526.5","1","3","","","","","","","60e4ea15046cb3d1e64cedcc&order=1&STUDY_ID=61caf85b4892b889f6411591","197","7","1","win","go","0"
"pit-trial","251","1105563","0.0-203.0","battery-v0.2","","","-1","c","elianto","#3366ff99","-1","-1","1","+10","","0","3","","","","","","","60e4ea15046cb3d1e64cedcc&order=1&STUDY_ID=61caf85b4892b889f6411591","198","6","2","win","no-go","0"
"pit-trial","252","1110443","0.0-204.0","battery-v0.2","","","-1","b","elianto","#f73b6a7A","-1","-1","1","0","","0","3","","","","","","","60e4ea15046cb3d1e64cedcc&order=1&STUDY_ID=61caf85b4892b889f6411591","199","5","4","lose","no-go","0"
"pit-trial","253","1114139","0.0-205.0","battery-v0.2","","","832.2999999970198","t","elianto","#f73b6a7A","32","32","1","-10","1684","1","3","","","","","","","60e4ea15046cb3d1e64cedcc&order=1&STUDY_ID=61caf85b4892b889f6411591","200","4","3","lose","go","1"
"pit-trial","254","1117757","0.0-206.0","battery-v0.2","","","757","t","elianto","#f73b6a7A","32","32","1","0","1608.4000000059605","1","3","","","","","","","60e4ea15046cb3d1e64cedcc&order=1&STUDY_ID=61caf85b4892b889f6411591","201","4","3","lose","go","0"
"pit-trial","255","1122623","0.0-207.0","battery-v0.2","","","-1","b","elianto","#f73b6a7A","-1","-1","1","0","","0","3","","","","","","","60e4ea15046cb3d1e64cedcc&order=1&STUDY_ID=61caf85b4892b889f6411591","202","5","4","lose","no-go","0"
"pit-trial","256","1126034","0.0-208.0","battery-v0.2","","","545.6000000089407","z","elianto","#3366ff99","32","32","1","+10","1398.7999999970198","1","3","","","","","","","60e4ea15046cb3d1e64cedcc&order=1&STUDY_ID=61caf85b4892b889f6411591","203","7","1","win","go","0"
"pit-trial","257","1130912","0.0-209.0","battery-v0.2","","","-1","c","elianto","#3366ff99","-1","-1","1","+10","","0","3","","","","","","","60e4ea15046cb3d1e64cedcc&order=1&STUDY_ID=61caf85b4892b889f6411591","204","6","2","win","no-go","0"
"pit-trial","258","1135788","0.0-210.0","battery-v0.2","","","-1","c","elianto","#3366ff99","-1","-1","1","0","","0","3","","","","","","","60e4ea15046cb3d1e64cedcc&order=1&STUDY_ID=61caf85b4892b889f6411591","205","6","2","win","no-go","1"
"pit-trial","259","1139387","0.0-211.0","battery-v0.2","","","730.7000000029802","t","elianto","#f73b6a7A","32","32","1","0","1582","1","3","","","","","","","60e4ea15046cb3d1e64cedcc&order=1&STUDY_ID=61caf85b4892b889f6411591","206","4","3","lose","go","0"
"pit-trial","260","1144255","0.0-212.0","battery-v0.2","","","-1","b","elianto","#f73b6a7A","-1","-1","1","0","","0","3","","","","","","","60e4ea15046cb3d1e64cedcc&order=1&STUDY_ID=61caf85b4892b889f6411591","207","5","4","lose","no-go","0"
"pit-trial","261","1147705","0.0-213.0","battery-v0.2","","","582.3999999910593","z","elianto","#3366ff99","32","32","1","0","1436.9000000059605","1","3","","","","","","","60e4ea15046cb3d1e64cedcc&order=1&STUDY_ID=61caf85b4892b889f6411591","208","7","1","win","go","1"
"pit-trial","262","1152576","0.0-214.0","battery-v0.2","","","-1","b","elianto","#f73b6a7A","-1","-1","1","0","","0","3","","","","","","","60e4ea15046cb3d1e64cedcc&order=1&STUDY_ID=61caf85b4892b889f6411591","209","5","4","lose","no-go","0"
"pit-trial","263","1155945","0.0-215.0","battery-v0.2","","","507.20000000298023","z","elianto","#3366ff99","32","32","1","+10","1359.0999999940395","1","3","","","","","","","60e4ea15046cb3d1e64cedcc&order=1&STUDY_ID=61caf85b4892b889f6411591","210","7","1","win","go","0"
"pit-trial","264","1160812","0.0-216.0","battery-v0.2","","","-1","c","elianto","#3366ff99","-1","-1","1","+10","","0","3","","","","","","","60e4ea15046cb3d1e64cedcc&order=1&STUDY_ID=61caf85b4892b889f6411591","211","6","2","win","no-go","0"
"pit-trial","265","1164323","0.0-217.0","battery-v0.2","","","645.7999999970198","t","elianto","#f73b6a7A","32","32","1","0","1497.9000000059605","1","3","","","","","","","60e4ea15046cb3d1e64cedcc&order=1&STUDY_ID=61caf85b4892b889f6411591","212","4","3","lose","go","0"
"pit-trial","266","1168246","0.0-218.0","battery-v0.2","","","1060.199999988079","h","elianto","#3366ff99","32","32","1","+10","1912.5999999940395","1","3","","","","","","","60e4ea15046cb3d1e64cedcc&order=1&STUDY_ID=61caf85b4892b889f6411591","213","8","1","win","go","0"
"pit-trial","267","1173120","0.0-219.0","battery-v0.2","","","-1","c","elianto","#3366ff99","-1","-1","1","+10","","0","3","","","","","","","60e4ea15046cb3d1e64cedcc&order=1&STUDY_ID=61caf85b4892b889f6411591","214","6","2","win","no-go","0"
"pit-trial","268","1176685","0.0-220.0","battery-v0.2","","","694.6000000089407","z","elianto","#3366ff99","32","32","1","+10","1546.300000011921","1","3","","","","","","","60e4ea15046cb3d1e64cedcc&order=1&STUDY_ID=61caf85b4892b889f6411591","215","7","1","win","go","0"
"pit-trial","269","1180236","0.0-221.0","battery-v0.2","","","680.7999999970198","t","elianto","#f73b6a7A","32","32","1","-10","1532.6000000089407","1","3","","","","","","","60e4ea15046cb3d1e64cedcc&order=1&STUDY_ID=61caf85b4892b889f6411591","216","4","3","lose","go","1"
"pit-trial","270","1185106","0.0-222.0","battery-v0.2","","","-1","c","elianto","#3366ff99","-1","-1","1","+10","","0","3","","","","","","","60e4ea15046cb3d1e64cedcc&order=1&STUDY_ID=61caf85b4892b889f6411591","217","6","2","win","no-go","0"
"pit-trial","271","1188494","0.0-223.0","battery-v0.2","","","525.2999999970198","z","elianto","#3366ff99","32","32","1","+10","1380.8999999910593","1","3","","","","","","","60e4ea15046cb3d1e64cedcc&order=1&STUDY_ID=61caf85b4892b889f6411591","218","7","1","win","go","0"
"pit-trial","272","1192088","0.0-224.0","battery-v0.2","","","726.2000000029802","t","elianto","#f73b6a7A","32","32","1","0","1579.2999999970198","1","3","","","","","","","60e4ea15046cb3d1e64cedcc&order=1&STUDY_ID=61caf85b4892b889f6411591","219","4","3","lose","go","0"
"pit-trial","273","1195687","0.0-225.0","battery-v0.2","","","732.7000000029802","h","elianto","#3366ff99","32","32","1","+10","1586.3999999910593","1","3","","","","","","","60e4ea15046cb3d1e64cedcc&order=1&STUDY_ID=61caf85b4892b889f6411591","220","8","1","win","go","0"
"pit-trial","274","1200564","0.0-226.0","battery-v0.2","","","-1","c","elianto","#3366ff99","-1","-1","1","+10","","0","3","","","","","","","60e4ea15046cb3d1e64cedcc&order=1&STUDY_ID=61caf85b4892b889f6411591","221","6","2","win","no-go","0"
"pit-trial","275","1204050","0.0-227.0","battery-v0.2","","","621.5","z","elianto","#3366ff99","32","32","1","+10","1474.7999999970198","1","3","","","","","","","60e4ea15046cb3d1e64cedcc&order=1&STUDY_ID=61caf85b4892b889f6411591","222","7","1","win","go","0"
"pit-trial","276","1207811","0.0-228.0","battery-v0.2","","","894.7000000029802","y","elianto","#3366ff99","-1","32","0","0","1745.5","1","3","","","","","","","60e4ea15046cb3d1e64cedcc&order=1&STUDY_ID=61caf85b4892b889f6411591","223","9","2","win","no-go","0"
"pit-trial","277","1211341","0.0-229.0","battery-v0.2","","","662","h","elianto","#3366ff99","32","32","1","0","1514.9000000059605","1","3","","","","","","","60e4ea15046cb3d1e64cedcc&order=1&STUDY_ID=61caf85b4892b889f6411591","224","8","1","win","go","1"
"pit-trial","278","1216206","0.0-230.0","battery-v0.2","","","-1","c","elianto","#3366ff99","-1","-1","1","+10","","0","3","","","","","","","60e4ea15046cb3d1e64cedcc&order=1&STUDY_ID=61caf85b4892b889f6411591","225","6","2","win","no-go","0"
"pit-trial","279","1219945","0.0-231.0","battery-v0.2","","","866.7999999970198","z","elianto","#3366ff99","32","32","1","+10","1718.5","1","3","","","","","","","60e4ea15046cb3d1e64cedcc&order=1&STUDY_ID=61caf85b4892b889f6411591","226","7","1","win","go","0"
"pit-trial","280","1223477","0.0-232.0","battery-v0.2","","","668.1000000089407","h","elianto","#3366ff99","32","32","1","+10","1519.1000000089407","1","3","","","","","","","60e4ea15046cb3d1e64cedcc&order=1&STUDY_ID=61caf85b4892b889f6411591","227","8","1","win","go","0"
"pit-trial","281","1228353","0.0-233.0","battery-v0.2","","","-1","y","elianto","#3366ff99","-1","-1","1","0","","0","3","","","","","","","60e4ea15046cb3d1e64cedcc&order=1&STUDY_ID=61caf85b4892b889f6411591","228","9","2","win","no-go","1"
"pit-trial","282","1232083","0.0-234.0","battery-v0.2","","","863.3000000119209","m","elianto","#f73b6a7A","-1","32","0","-10","1713.7000000029802","1","3","","","","","","","60e4ea15046cb3d1e64cedcc&order=1&STUDY_ID=61caf85b4892b889f6411591","229","11","4","lose","no-go","0"
"pit-trial","283","1235594","0.0-235.0","battery-v0.2","","","653.7000000029802","h","elianto","#3366ff99","32","32","1","+10","1506","1","3","","","","","","","60e4ea15046cb3d1e64cedcc&order=1&STUDY_ID=61caf85b4892b889f6411591","230","8","1","win","go","0"
"pit-trial","284","1239409","0.0-236.0","battery-v0.2","","","952.5999999940395","y","elianto","#3366ff99","-1","32","0","0","1809.7999999970198","1","3","","","","","","","60e4ea15046cb3d1e64cedcc&order=1&STUDY_ID=61caf85b4892b889f6411591","231","9","2","win","no-go","0"
"pit-trial","285","1244282","0.0-237.0","battery-v0.2","","","-1","r","elianto","#f73b6a7A","32","-1","0","-10","","0","3","","","","","","","60e4ea15046cb3d1e64cedcc&order=1&STUDY_ID=61caf85b4892b889f6411591","232","10","3","lose","go","0"
"pit-trial","286","1247896","0.0-238.0","battery-v0.2","","","743.4000000059605","h","elianto","#3366ff99","32","32","1","+10","1598.7999999970198","1","3","","","","","","","60e4ea15046cb3d1e64cedcc&order=1&STUDY_ID=61caf85b4892b889f6411591","233","8","1","win","go","0"
"pit-trial","287","1252777","0.0-239.0","battery-v0.2","","","-1","r","elianto","#f73b6a7A","32","-1","0","0","","0","3","","","","","","","60e4ea15046cb3d1e64cedcc&order=1&STUDY_ID=61caf85b4892b889f6411591","234","10","3","lose","go","1"
"pit-trial","288","1256502","0.0-240.0","battery-v0.2","","","861.9000000059605","m","elianto","#f73b6a7A","-1","32","0","-10","1713.2000000029802","1","3","","","","","","","60e4ea15046cb3d1e64cedcc&order=1&STUDY_ID=61caf85b4892b889f6411591","235","11","4","lose","no-go","0"
"pit-trial","289","1261370","0.0-241.0","battery-v0.2","","","-1","y","elianto","#3366ff99","-1","-1","1","+10","","0","3","","","","","","","60e4ea15046cb3d1e64cedcc&order=1&STUDY_ID=61caf85b4892b889f6411591","236","9","2","win","no-go","0"
"pit-trial","290","1264818","0.0-242.0","battery-v0.2","","","583.7999999970198","h","elianto","#3366ff99","32","32","1","+10","1439.5999999940395","1","3","","","","","","","60e4ea15046cb3d1e64cedcc&order=1&STUDY_ID=61caf85b4892b889f6411591","237","8","1","win","go","0"
"pit-trial","291","1269687","0.0-243.0","battery-v0.2","","","-1","m","elianto","#f73b6a7A","-1","-1","1","0","","0","3","","","","","","","60e4ea15046cb3d1e64cedcc&order=1&STUDY_ID=61caf85b4892b889f6411591","238","11","4","lose","no-go","0"
"pit-trial","292","1274556","0.0-244.0","battery-v0.2","","","-1","r","elianto","#f73b6a7A","32","-1","0","-10","","0","3","","","","","","","60e4ea15046cb3d1e64cedcc&order=1&STUDY_ID=61caf85b4892b889f6411591","239","10","3","lose","go","0"
"pit-trial","293","1279431","0.0-245.0","battery-v0.2","","","-1","y","elianto","#3366ff99","-1","-1","1","+10","","0","3","","","","","","","60e4ea15046cb3d1e64cedcc&order=1&STUDY_ID=61caf85b4892b889f6411591","240","9","2","win","no-go","0"
"pit-trial","294","1283488","0.0-246.0","battery-v0.2","","","1188.7000000029802","r","elianto","#f73b6a7A","32","32","1","0","2042.6000000089407","1","3","","","","","","","60e4ea15046cb3d1e64cedcc&order=1&STUDY_ID=61caf85b4892b889f6411591","241","10","3","lose","go","0"
"pit-trial","295","1286994","0.0-247.0","battery-v0.2","","","645.5","h","elianto","#3366ff99","32","32","1","+10","1498.4000000059605","1","3","","","","","","","60e4ea15046cb3d1e64cedcc&order=1&STUDY_ID=61caf85b4892b889f6411591","242","8","1","win","go","0"
"pit-trial","296","1291862","0.0-248.0","battery-v0.2","","","-1","y","elianto","#3366ff99","-1","-1","1","+10","","0","3","","","","","","","60e4ea15046cb3d1e64cedcc&order=1&STUDY_ID=61caf85b4892b889f6411591","243","9","2","win","no-go","0"
"pit-trial","297","1295861","0.0-249.0","battery-v0.2","","","1129.7000000029802","m","elianto","#f73b6a7A","-1","32","0","0","1983.7000000029802","1","3","","","","","","","60e4ea15046cb3d1e64cedcc&order=1&STUDY_ID=61caf85b4892b889f6411591","244","11","4","lose","no-go","1"
"pit-trial","298","1299416","0.0-250.0","battery-v0.2","","","693.3999999910593","h","elianto","#3366ff99","32","32","1","+10","1547.199999988079","1","3","","","","","","","60e4ea15046cb3d1e64cedcc&order=1&STUDY_ID=61caf85b4892b889f6411591","245","8","1","win","go","0"
"pit-trial","299","1304294","0.0-251.0","battery-v0.2","","","-1","y","elianto","#3366ff99","-1","-1","1","+10","","0","3","","","","","","","60e4ea15046cb3d1e64cedcc&order=1&STUDY_ID=61caf85b4892b889f6411591","246","9","2","win","no-go","0"
"pit-trial","300","1309173","0.0-252.0","battery-v0.2","","","-1","m","elianto","#f73b6a7A","-1","-1","1","0","","0","3","","","","","","","60e4ea15046cb3d1e64cedcc&order=1&STUDY_ID=61caf85b4892b889f6411591","247","11","4","lose","no-go","0"
"pit-trial","301","1313148","0.0-253.0","battery-v0.2","","","1111.1000000089407","r","elianto","#f73b6a7A","32","32","1","0","1964","1","3","","","","","","","60e4ea15046cb3d1e64cedcc&order=1&STUDY_ID=61caf85b4892b889f6411591","248","10","3","lose","go","0"
"pit-trial","302","1318022","0.0-254.0","battery-v0.2","","","-1","m","elianto","#f73b6a7A","-1","-1","1","0","","0","3","","","","","","","60e4ea15046cb3d1e64cedcc&order=1&STUDY_ID=61caf85b4892b889f6411591","249","11","4","lose","no-go","0"
"pit-trial","303","1322905","0.0-255.0","battery-v0.2","","","-1","y","elianto","#3366ff99","-1","-1","1","0","","0","3","","","","","","","60e4ea15046cb3d1e64cedcc&order=1&STUDY_ID=61caf85b4892b889f6411591","250","9","2","win","no-go","1"
"pit-trial","304","1326800","0.0-256.0","battery-v0.2","","","1035.3999999910593","r","elianto","#f73b6a7A","32","32","1","-10","1888.3999999910593","1","3","","","","","","","60e4ea15046cb3d1e64cedcc&order=1&STUDY_ID=61caf85b4892b889f6411591","251","10","3","lose","go","1"
"pit-trial","305","1330178","0.0-257.0","battery-v0.2","","","517.2999999970198","h","elianto","#3366ff99","32","32","1","+10","1370.5999999940395","1","3","","","","","","","60e4ea15046cb3d1e64cedcc&order=1&STUDY_ID=61caf85b4892b889f6411591","252","8","1","win","go","0"
"pit-trial","306","1333700","0.0-258.0","battery-v0.2","","","661","h","elianto","#3366ff99","32","32","1","+10","1515.5999999940395","1","3","","","","","","","60e4ea15046cb3d1e64cedcc&order=1&STUDY_ID=61caf85b4892b889f6411591","253","8","1","win","go","0"
"pit-trial","307","1338559","0.0-259.0","battery-v0.2","","","-1","m","elianto","#f73b6a7A","-1","-1","1","0","","0","3","","","","","","","60e4ea15046cb3d1e64cedcc&order=1&STUDY_ID=61caf85b4892b889f6411591","254","11","4","lose","no-go","0"
"pit-trial","308","1341979","0.0-260.0","battery-v0.2","","","556.9000000059605","y","elianto","#3366ff99","-1","32","0","+10","1411.4000000059605","1","3","","","","","","","60e4ea15046cb3d1e64cedcc&order=1&STUDY_ID=61caf85b4892b889f6411591","255","9","2","win","no-go","1"
"pit-trial","309","1346846","0.0-261.0","battery-v0.2","","","-1","r","elianto","#f73b6a7A","32","-1","0","-10","","0","3","","","","","","","60e4ea15046cb3d1e64cedcc&order=1&STUDY_ID=61caf85b4892b889f6411591","256","10","3","lose","go","0"
"pit-trial","310","1351723","0.0-262.0","battery-v0.2","","","-1","y","elianto","#3366ff99","-1","-1","1","+10","","0","3","","","","","","","60e4ea15046cb3d1e64cedcc&order=1&STUDY_ID=61caf85b4892b889f6411591","257","9","2","win","no-go","0"
"pit-trial","311","1355217","0.0-263.0","battery-v0.2","","","631.1999999880791","h","elianto","#3366ff99","32","32","1","+10","1481.3999999910593","1","3","","","","","","","60e4ea15046cb3d1e64cedcc&order=1&STUDY_ID=61caf85b4892b889f6411591","258","8","1","win","go","0"
"pit-trial","312","1360092","0.0-264.0","battery-v0.2","","","-1","m","elianto","#f73b6a7A","-1","-1","1","0","","0","3","","","","","","","60e4ea15046cb3d1e64cedcc&order=1&STUDY_ID=61caf85b4892b889f6411591","259","11","4","lose","no-go","0"
"pit-trial","313","1364037","0.0-265.0","battery-v0.2","","","1075","r","elianto","#f73b6a7A","32","32","1","-10","1930.2000000029802","1","3","","","","","","","60e4ea15046cb3d1e64cedcc&order=1&STUDY_ID=61caf85b4892b889f6411591","260","10","3","lose","go","1"
