"trial_type","trial_index","time_elapsed","internal_node_id","task_version","subject_id","interactions","blur_events","focus_events","fullscreenenter_events","fullscreenexit_events","success","view_history","rt","responses","num_errors","age","subject","participantId","rune","rune_set","hex","correct","choice","accuracy","outcome","keys","total_keys","block","practice","value","sub","trial","stimulus","robot","valence","action","sham","browser_interactions"
"pavlovia","0","26","0.0-0.0","battery-v0.2","","""event"",""trial"",""time""
""fullscreenenter"",""1"",""2266""
","
","
","""event"",""trial"",""time""
""fullscreenenter"",""1"",""2266""
","
","","","","","","","","","","","","","","","","","","","","","","","","","","","",""
"fullscreen","1","3199","0.0-1.0","battery-v0.2","","""event"",""trial"",""time""
""fullscreenenter"",""1"",""2266""
","
","
","""event"",""trial"",""time""
""fullscreenenter"",""1"",""2266""
","
","true","","","","","","","","","","","","","","","","","","","","","","","","","","",""
"pit-instructions","2","9273","0.0-2.0-0.0","battery-v0.2","","""event"",""trial"",""time""
""fullscreenenter"",""1"",""2266""
","
","
","""event"",""trial"",""time""
""fullscreenenter"",""1"",""2266""
","
","","[{""page_index"":0,""viewing_time"":6070}]","6070.899999976158","","","","","","","","","","","","","","","","","","","","","","","","",""
"pit-comprehension","3","11583","0.0-2.0-1.0-0.0","battery-v0.2","","""event"",""trial"",""time""
""fullscreenenter"",""1"",""2266""
","
","
","""event"",""trial"",""time""
""fullscreenenter"",""1"",""2266""
","
","","","2288.0999999046326","[""shark""]","0","23","1214","550","","","","","","","","","","","","","","","","","","","",""
"pit-instructions","4","13059","0.0-2.0-1.0-1.0","battery-v0.2","","""event"",""trial"",""time""
""fullscreenenter"",""1"",""2266""
","
","
","""event"",""trial"",""time""
""fullscreenenter"",""1"",""2266""
","
","","[{""page_index"":0,""viewing_time"":1424.8999999761581}]","1425.6000000238419","","","","","","","","","","","","","","","","","","","","","","","","",""
"pit-comprehension","5","14957","0.0-2.0-2.0-0.0","battery-v0.2","","""event"",""trial"",""time""
""fullscreenenter"",""1"",""2266""
","
","
","""event"",""trial"",""time""
""fullscreenenter"",""1"",""2266""
","
","","","1876.5","[""tiger""]","0","23","1214","550","","","","","","","","","","","","","","","","","","","",""
"pit-instructions","6","20142","0.0-2.0-2.0-1.0","battery-v0.2","","""event"",""trial"",""time""
""fullscreenenter"",""1"",""2266""
","
","
","""event"",""trial"",""time""
""fullscreenenter"",""1"",""2266""
","
","","[{""page_index"":0,""viewing_time"":5176.5}]","5177","","","","","","","","","","","","","","","","","","","","","","","","",""
"pit-instructions","7","208016","0.0-2.0-3.0","battery-v0.2","","""event"",""trial"",""time""
""fullscreenenter"",""1"",""2266""
","
","
","""event"",""trial"",""time""
""fullscreenenter"",""1"",""2266""
","
","","[{""page_index"":0,""viewing_time"":13955.400000095367},{""page_index"":1,""viewing_time"":8273.5},{""page_index"":2,""viewing_time"":7867.299999952316},{""page_index"":3,""viewing_time"":9227.299999952316},{""page_index"":4,""viewing_time"":9545.900000095367},{""page_index"":5,""viewing_time"":22458.599999904633},{""page_index"":6,""viewing_time"":40801.60000002384},{""page_index"":7,""viewing_time"":7067.800000071526},{""page_index"":8,""viewing_time"":12558.399999976158},{""page_index"":9,""viewing_time"":11200.299999952316},{""page_index"":10,""viewing_time"":5027.100000023842},{""page_index"":9,""viewing_time"":9838.899999976158},{""page_index"":10,""viewing_time"":9239.5},{""page_index"":11,""viewing_time"":7976.399999976158},{""page_index"":12,""viewing_time"":7746.300000071526},{""page_index"":13,""viewing_time"":5069.799999952316}]","187855.5","","","","","","","","","","","","","","","","","","","","","","","","",""
"pit-trial","8","211518","0.0-2.0-4.0-0.0","battery-v0.2","","""event"",""trial"",""time""
""fullscreenenter"",""1"",""2266""
","
","
","""event"",""trial"",""time""
""fullscreenenter"",""1"",""2266""
","
","","","619.3999999761581","","","23","1214","550","&#9784;","elianto","#FFFFF080"," "," ","1","&#10004","[1480.3999999761581]","1","0","0","","","","","","","","",""
"pit-trial","9","215887","0.0-2.0-4.1-0.1","battery-v0.2","","""event"",""trial"",""time""
""fullscreenenter"",""1"",""2266""
","
","
","""event"",""trial"",""time""
""fullscreenenter"",""1"",""2266""
","
","","","1487.6999999284744","","","23","1214","550","&#9784;","elianto","#FFFFF080"," "," ","1","&#10004","[2338]","1","0","0","","","","","","","","",""
"pit-trial","10","219440","0.0-2.0-4.2-0.2","battery-v0.2","","""event"",""trial"",""time""
""fullscreenenter"",""1"",""2266""
","
","
","""event"",""trial"",""time""
""fullscreenenter"",""1"",""2266""
","
","","","668.2000000476837","","","23","1214","550","&#9784;","elianto","#FFFFF080"," "," ","1","&#10004","[1519.3999999761581]","1","0","0","","","","","","","","",""
"pit-trial","11","222937","0.0-2.0-4.3-0.3","battery-v0.2","","""event"",""trial"",""time""
""fullscreenenter"",""1"",""2266""
","
","
","""event"",""trial"",""time""
""fullscreenenter"",""1"",""2266""
","
","","","617.2999999523163","","","23","1214","550","&#9784;","elianto","#FFFFF080"," "," ","1","&#10004","[1468.1000000238419]","1","0","0","","","","","","","","",""
"pit-trial","12","226347","0.0-2.0-4.4-0.4","battery-v0.2","","""event"",""trial"",""time""
""fullscreenenter"",""1"",""2266""
","
","
","""event"",""trial"",""time""
""fullscreenenter"",""1"",""2266""
","
","","","527.5","","","23","1214","550","&#9784;","elianto","#FFFFF080"," "," ","1","&#10004","[1380.5]","1","0","0","","","","","","","","",""
"pit-instructions","13","254374","0.0-2.0-5.0","battery-v0.2","","""event"",""trial"",""time""
""fullscreenenter"",""1"",""2266""
","
","
","""event"",""trial"",""time""
""fullscreenenter"",""1"",""2266""
","
","","[{""page_index"":0,""viewing_time"":10007.399999976158},{""page_index"":1,""viewing_time"":6379},{""page_index"":2,""viewing_time"":5770.799999952316},{""page_index"":3,""viewing_time"":5849.200000047684}]","28007.399999976158","","","","","","","","","","","","","","","","","","","","","","","","",""
"pit-trial","14","259258","0.0-2.0-6.0-0.0","battery-v0.2","","""event"",""trial"",""time""
""fullscreenenter"",""1"",""2266""
","
","
","""event"",""trial"",""time""
""fullscreenenter"",""1"",""2266""
","
","","","-1","","","23","1214","550","&#9854;","elianto","#FFFFF080","-1","-1","1","&#10004","[]","0","0","1","","","","","","","","",""
"pit-trial","15","264148","0.0-2.0-6.1-0.1","battery-v0.2","","""event"",""trial"",""time""
""fullscreenenter"",""1"",""2266""
","
","
","""event"",""trial"",""time""
""fullscreenenter"",""1"",""2266""
","
","","","-1","","","23","1214","550","&#9854;","elianto","#FFFFF080","-1","-1","1","&#10004","[]","0","0","1","","","","","","","","",""
"pit-trial","16","269047","0.0-2.0-6.2-0.2","battery-v0.2","","""event"",""trial"",""time""
""fullscreenenter"",""1"",""2266""
","
","
","""event"",""trial"",""time""
""fullscreenenter"",""1"",""2266""
","
","","","-1","","","23","1214","550","&#9854;","elianto","#FFFFF080","-1","-1","1","&#10004","[]","0","0","1","","","","","","","","",""
"pit-trial","17","273921","0.0-2.0-6.3-0.3","battery-v0.2","","""event"",""trial"",""time""
""fullscreenenter"",""1"",""2266""
","
","
","""event"",""trial"",""time""
""fullscreenenter"",""1"",""2266""
","
","","","-1","","","23","1214","550","&#9854;","elianto","#FFFFF080","-1","-1","1","&#10004","[]","0","0","1","","","","","","","","",""
"pit-trial","18","278828","0.0-2.0-6.4-0.4","battery-v0.2","","""event"",""trial"",""time""
""fullscreenenter"",""1"",""2266""
","
","
","""event"",""trial"",""time""
""fullscreenenter"",""1"",""2266""
","
","","","-1","","","23","1214","550","&#9854;","elianto","#FFFFF080","-1","-1","1","&#10004","[]","0","0","1","","","","","","","","",""
"pit-instructions","19","531163","0.0-2.0-7.0","battery-v0.2","","""event"",""trial"",""time""
""fullscreenenter"",""1"",""2266""
","
","
","""event"",""trial"",""time""
""fullscreenenter"",""1"",""2266""
","
","","[{""page_index"":0,""viewing_time"":12752.599999904633},{""page_index"":1,""viewing_time"":8434.400000095367},{""page_index"":2,""viewing_time"":12237.199999928474},{""page_index"":3,""viewing_time"":65466.5},{""page_index"":4,""viewing_time"":8048.800000071526},{""page_index"":5,""viewing_time"":5440.599999904633},{""page_index"":6,""viewing_time"":28814.800000071526},{""page_index"":7,""viewing_time"":9264},{""page_index"":8,""viewing_time"":30473.699999928474},{""page_index"":9,""viewing_time"":6396.800000071526},{""page_index"":10,""viewing_time"":6800.299999952316},{""page_index"":11,""viewing_time"":5437.600000023842},{""page_index"":12,""viewing_time"":7742.600000023842},{""page_index"":13,""viewing_time"":8752.899999976158},{""page_index"":14,""viewing_time"":8336.899999976158},{""page_index"":15,""viewing_time"":6805.300000071526},{""page_index"":16,""viewing_time"":12683},{""page_index"":17,""viewing_time"":8437.599999904633}]","252326.59999990463","","","","","","","","","","","","","","","","","","","","","","","","",""
"pit-trial","20","534985","0.0-2.0-8.0-0.0","battery-v0.2","","""event"",""trial"",""time""
""fullscreenenter"",""1"",""2266""
","
","
","""event"",""trial"",""time""
""fullscreenenter"",""1"",""2266""
","
","","","935.5","","","23","1214","550","&#9776;","elianto","#3366ff99"," "," ","1","+10","[1786.5]","1","0","1","","","","","","","","",""
"pit-trial","21","538674","0.0-2.0-8.0-1.0","battery-v0.2","","""event"",""trial"",""time""
""fullscreenenter"",""1"",""2266""
","
","
","""event"",""trial"",""time""
""fullscreenenter"",""1"",""2266""
","
","","","804.3999999761581","","","23","1214","550","&#9776;","elianto","#3366ff99"," "," ","1","+10","[1654.8999999761581]","1","0","1","","","","","","","","",""
"pit-trial","22","542104","0.0-2.0-8.0-2.0","battery-v0.2","","""event"",""trial"",""time""
""fullscreenenter"",""1"",""2266""
","
","
","""event"",""trial"",""time""
""fullscreenenter"",""1"",""2266""
","
","","","556","","","23","1214","550","&#9776;","elianto","#3366ff99"," "," ","1","+10","[1409.1000000238419]","1","0","1","","","","","","","","",""
"pit-trial","23","545515","0.0-2.0-8.0-3.0","battery-v0.2","","""event"",""trial"",""time""
""fullscreenenter"",""1"",""2266""
","
","
","""event"",""trial"",""time""
""fullscreenenter"",""1"",""2266""
","
","","","530.1000000238419","","","23","1214","550","&#9776;","elianto","#3366ff99"," "," ","1","0","[1382.2999999523163]","1","0","1","","","","","","","","",""
"pit-trial","24","548994","0.0-2.0-8.0-4.0","battery-v0.2","","""event"",""trial"",""time""
""fullscreenenter"",""1"",""2266""
","
","
","""event"",""trial"",""time""
""fullscreenenter"",""1"",""2266""
","
","","","600","","","23","1214","550","&#9776;","elianto","#3366ff99"," "," ","1","+10","[1451.4000000953674]","1","0","1","","","","","","","","",""
"call-function","25","549011","0.0-2.0-9.0","battery-v0.2","","""event"",""trial"",""time""
""fullscreenenter"",""1"",""2266""
","
","
","""event"",""trial"",""time""
""fullscreenenter"",""1"",""2266""
","
","","","","","","","","","","","","","","","","","","","","","","","","","","","",""
"pit-instructions","26","591494","0.0-2.0-10.0","battery-v0.2","","""event"",""trial"",""time""
""fullscreenenter"",""1"",""2266""
","
","
","""event"",""trial"",""time""
""fullscreenenter"",""1"",""2266""
","
","","[{""page_index"":0,""viewing_time"":6237.799999952316},{""page_index"":1,""viewing_time"":6877.800000071526},{""page_index"":2,""viewing_time"":10365.199999928474},{""page_index"":3,""viewing_time"":11032.600000023842},{""page_index"":4,""viewing_time"":7966.600000023842}]","42481.200000047684","","","","","","","","","","","","","","","","","","","","","","","","",""
"pit-trial","27","595064","0.0-2.0-11.0-0.0","battery-v0.2","","""event"",""trial"",""time""
""fullscreenenter"",""1"",""2266""
","
","
","""event"",""trial"",""time""
""fullscreenenter"",""1"",""2266""
","
","","","695.2000000476837","","","23","1214","550","&#9761;","elianto","#3366ff99","-1"," ","0","0","[1549]","1","0","2","","","","","","","","",""
"pit-trial","28","599964","0.0-2.0-11.0-1.0","battery-v0.2","","""event"",""trial"",""time""
""fullscreenenter"",""1"",""2266""
","
","
","""event"",""trial"",""time""
""fullscreenenter"",""1"",""2266""
","
","","","-1","","","23","1214","550","&#9761;","elianto","#3366ff99","-1","-1","1","+10","[]","0","0","2","","","","","","","","",""
"pit-trial","29","604854","0.0-2.0-11.0-2.0","battery-v0.2","","""event"",""trial"",""time""
""fullscreenenter"",""1"",""2266""
","
","
","""event"",""trial"",""time""
""fullscreenenter"",""1"",""2266""
","
","","","-1","","","23","1214","550","&#9761;","elianto","#3366ff99","-1","-1","1","+10","[]","0","0","2","","","","","","","","",""
"pit-trial","30","609734","0.0-2.0-11.0-3.0","battery-v0.2","","""event"",""trial"",""time""
""fullscreenenter"",""1"",""2266""
","
","
","""event"",""trial"",""time""
""fullscreenenter"",""1"",""2266""
","
","","","-1","","","23","1214","550","&#9761;","elianto","#3366ff99","-1","-1","1","0","[]","0","0","2","","","","","","","","",""
"pit-trial","31","614614","0.0-2.0-11.0-4.0","battery-v0.2","","""event"",""trial"",""time""
""fullscreenenter"",""1"",""2266""
","
","
","""event"",""trial"",""time""
""fullscreenenter"",""1"",""2266""
","
","","","-1","","","23","1214","550","&#9761;","elianto","#3366ff99","-1","-1","1","+10","[]","0","0","2","","","","","","","","",""
"call-function","32","614631","0.0-2.0-12.0","battery-v0.2","","""event"",""trial"",""time""
""fullscreenenter"",""1"",""2266""
","
","
","""event"",""trial"",""time""
""fullscreenenter"",""1"",""2266""
","
","","","","","","","","","","","","","","","","","","","","","","","","","","","",""
"pit-instructions","33","662545","0.0-2.0-13.0","battery-v0.2","","""event"",""trial"",""time""
""fullscreenenter"",""1"",""2266""
","
","
","""event"",""trial"",""time""
""fullscreenenter"",""1"",""2266""
","
","","[{""page_index"":0,""viewing_time"":6226.800000071526},{""page_index"":1,""viewing_time"":7864.799999952316},{""page_index"":2,""viewing_time"":4345.200000047684},{""page_index"":3,""viewing_time"":11737.199999928474},{""page_index"":4,""viewing_time"":17737.300000071526}]","47913","","","","","","","","","","","","","","","","","","","","","","","","",""
"pit-trial","34","667444","0.0-2.0-14.0-0.0","battery-v0.2","","""event"",""trial"",""time""
""fullscreenenter"",""1"",""2266""
","
","
","""event"",""trial"",""time""
""fullscreenenter"",""1"",""2266""
","
","","","-1","","","23","1214","550","&#9826;","elianto","#f73b6a7A","-1","-1","1","0","[]","0","0","3","","","","","","","","",""
"pit-trial","35","672322","0.0-2.0-14.0-1.0","battery-v0.2","","""event"",""trial"",""time""
""fullscreenenter"",""1"",""2266""
","
","
","""event"",""trial"",""time""
""fullscreenenter"",""1"",""2266""
","
","","","-1","","","23","1214","550","&#9826;","elianto","#f73b6a7A","-1","-1","1","0","[]","0","0","3","","","","","","","","",""
"pit-trial","36","677197","0.0-2.0-14.0-2.0","battery-v0.2","","""event"",""trial"",""time""
""fullscreenenter"",""1"",""2266""
","
","
","""event"",""trial"",""time""
""fullscreenenter"",""1"",""2266""
","
","","","-1","","","23","1214","550","&#9826;","elianto","#f73b6a7A","-1","-1","1","0","[]","0","0","3","","","","","","","","",""
"pit-trial","37","682074","0.0-2.0-14.0-3.0","battery-v0.2","","""event"",""trial"",""time""
""fullscreenenter"",""1"",""2266""
","
","
","""event"",""trial"",""time""
""fullscreenenter"",""1"",""2266""
","
","","","-1","","","23","1214","550","&#9826;","elianto","#f73b6a7A","-1","-1","1","-10","[]","0","0","3","","","","","","","","",""
"pit-trial","38","686944","0.0-2.0-14.0-4.0","battery-v0.2","","""event"",""trial"",""time""
""fullscreenenter"",""1"",""2266""
","
","
","""event"",""trial"",""time""
""fullscreenenter"",""1"",""2266""
","
","","","-1","","","23","1214","550","&#9826;","elianto","#f73b6a7A","-1","-1","1","0","[]","0","0","3","","","","","","","","",""
"call-function","39","686962","0.0-2.0-15.0","battery-v0.2","","""event"",""trial"",""time""
""fullscreenenter"",""1"",""2266""
","
","
","""event"",""trial"",""time""
""fullscreenenter"",""1"",""2266""
","
","","","","","","","","","","","","","","","","","","","","","","","","","","","",""
"pit-instructions","40","824236","0.0-2.0-16.0","battery-v0.2","","""event"",""trial"",""time""
""fullscreenenter"",""1"",""2266""
","
","
","""event"",""trial"",""time""
""fullscreenenter"",""1"",""2266""
","
","","[{""page_index"":0,""viewing_time"":7161.5},{""page_index"":1,""viewing_time"":111743.5},{""page_index"":2,""viewing_time"":9548.199999928474},{""page_index"":3,""viewing_time"":8818.600000023842}]","137272.89999997616","","","","","","","","","","","","","","","","","","","","","","","","",""
"pit-trial","41","828847","0.0-2.0-17.0-0.0","battery-v0.2","","""event"",""trial"",""time""
""fullscreenenter"",""1"",""2266""
","
","
","""event"",""trial"",""time""
""fullscreenenter"",""1"",""2266""
","
","","","1734.9000000953674","","","23","1214","550","&#9789;","elianto","#f73b6a7A"," "," ","1","0","[2587.9000000953674]","1","0","4","","","","","","","","",""
"pit-trial","42","832057","0.0-2.0-17.0-1.0","battery-v0.2","","""event"",""trial"",""time""
""fullscreenenter"",""1"",""2266""
","
","
","""event"",""trial"",""time""
""fullscreenenter"",""1"",""2266""
","
","","","326.7000000476837","","","23","1214","550","&#9789;","elianto","#f73b6a7A"," "," ","1","0","[1183.6999999284744]","1","0","4","","","","","","","","",""
"pit-trial","43","835830","0.0-2.0-17.0-2.0","battery-v0.2","","""event"",""trial"",""time""
""fullscreenenter"",""1"",""2266""
","
","
","""event"",""trial"",""time""
""fullscreenenter"",""1"",""2266""
","
","","","902","","","23","1214","550","&#9789;","elianto","#f73b6a7A"," "," ","1","0","[1754.3000000715256]","1","0","4","","","","","","","","",""
"pit-trial","44","839677","0.0-2.0-17.0-3.0","battery-v0.2","","""event"",""trial"",""time""
""fullscreenenter"",""1"",""2266""
","
","
","""event"",""trial"",""time""
""fullscreenenter"",""1"",""2266""
","
","","","973.2000000476837","","","23","1214","550","&#9789;","elianto","#f73b6a7A"," "," ","1","-10","[1823.7000000476837]","1","0","4","","","","","","","","",""
"pit-trial","45","843007","0.0-2.0-17.0-4.0","battery-v0.2","","""event"",""trial"",""time""
""fullscreenenter"",""1"",""2266""
","
","
","""event"",""trial"",""time""
""fullscreenenter"",""1"",""2266""
","
","","","456.7999999523163","","","23","1214","550","&#9789;","elianto","#f73b6a7A"," "," ","1","0","[1306.8999999761581]","1","0","4","","","","","","","","",""
"call-function","46","843023","0.0-2.0-18.0","battery-v0.2","","""event"",""trial"",""time""
""fullscreenenter"",""1"",""2266""
","
","
","""event"",""trial"",""time""
""fullscreenenter"",""1"",""2266""
","
","","","","","","","","","","","","","","","","","","","","","","","","","","","",""
"pit-instructions","47","987252","0.0-2.0-19.0","battery-v0.2","","""event"",""trial"",""time""
""fullscreenenter"",""1"",""2266""
","
","
","""event"",""trial"",""time""
""fullscreenenter"",""1"",""2266""
","
","","[{""page_index"":0,""viewing_time"":41489.700000047684},{""page_index"":1,""viewing_time"":6487.600000023842},{""page_index"":2,""viewing_time"":15557.399999976158},{""page_index"":3,""viewing_time"":10889.699999928474},{""page_index"":4,""viewing_time"":13454.300000071526},{""page_index"":5,""viewing_time"":8988},{""page_index"":6,""viewing_time"":15700.199999928474},{""page_index"":7,""viewing_time"":21286.700000047684},{""page_index"":8,""viewing_time"":10373.600000023842}]","144228.20000004768","","","","","","","","","","","","","","","","","","","","","","","","",""
"pit-comprehension","48","992825","0.0-2.0-20.0-0.0","battery-v0.2","","""event"",""trial"",""time""
""fullscreenenter"",""1"",""2266""
","
","
","""event"",""trial"",""time""
""fullscreenenter"",""1"",""2266""
","
","","","5548.899999976158","[""SPACE""]","0","23","1214","550","","","","","","","","","","","","","","","","","","","",""
"pit-instructions","49","999729","0.0-2.0-20.0-1.0","battery-v0.2","","""event"",""trial"",""time""
""fullscreenenter"",""1"",""2266""
","
","
","""event"",""trial"",""time""
""fullscreenenter"",""1"",""2266""
","
","","[{""page_index"":0,""viewing_time"":6836.700000047684}]","6837.600000023842","","","","","","","","","","","","","","","","","","","","","","","","",""
"pit-comprehension","50","1006051","0.0-2.0-21.0-0.0","battery-v0.2","","""event"",""trial"",""time""
""fullscreenenter"",""1"",""2266""
","
","
","""event"",""trial"",""time""
""fullscreenenter"",""1"",""2266""
","
","","","6300","[""10""]","0","23","1214","550","","","","","","","","","","","","","","","","","","","",""
"pit-instructions","51","1008337","0.0-2.0-21.0-1.0","battery-v0.2","","""event"",""trial"",""time""
""fullscreenenter"",""1"",""2266""
","
","
","""event"",""trial"",""time""
""fullscreenenter"",""1"",""2266""
","
","","[{""page_index"":0,""viewing_time"":2240.100000023842}]","2240.7999999523163","","","","","","","","","","","","","","","","","","","","","","","","",""
"pit-comprehension","52","1015180","0.0-2.0-22.0-0.0","battery-v0.2","","""event"",""trial"",""time""
""fullscreenenter"",""1"",""2266""
","
","
","""event"",""trial"",""time""
""fullscreenenter"",""1"",""2266""
","
","","","6821.299999952316","[""0""]","0","23","1214","550","","","","","","","","","","","","","","","","","","","",""
"pit-instructions","53","1017267","0.0-2.0-22.0-1.0","battery-v0.2","","""event"",""trial"",""time""
""fullscreenenter"",""1"",""2266""
","
","
","""event"",""trial"",""time""
""fullscreenenter"",""1"",""2266""
","
","","[{""page_index"":0,""viewing_time"":2039.3999999761581}]","2040.3999999761581","","","","","","","","","","","","","","","","","","","","","","","","",""
"pit-comprehension","54","1029613","0.0-2.0-23.0-0.0","battery-v0.2","","""event"",""trial"",""time""
""fullscreenenter"",""1"",""2266""
","
","
","""event"",""trial"",""time""
""fullscreenenter"",""1"",""2266""
","
","","","12326.100000023842","[""True""]","0","23","1214","550","","","","","","","","","","","","","","","","","","","",""
"pit-instructions","55","1031815","0.0-2.0-23.0-1.0","battery-v0.2","","""event"",""trial"",""time""
""fullscreenenter"",""1"",""2266""
","
","
","""event"",""trial"",""time""
""fullscreenenter"",""1"",""2266""
","
","","[{""page_index"":0,""viewing_time"":2147.600000023842}]","2147.7999999523163","","","","","","","","","","","","","","","","","","","","","","","","",""
"pit-comprehension","56","1039374","0.0-2.0-24.0-0.0","battery-v0.2","","""event"",""trial"",""time""
""fullscreenenter"",""1"",""2266""
","
","
","""event"",""trial"",""time""
""fullscreenenter"",""1"",""2266""
","
","","","7553.299999952316","[""True""]","0","23","1214","550","","","","","","","","","","","","","","","","","","","",""
"pit-instructions","57","1040919","0.0-2.0-24.0-1.0","battery-v0.2","","""event"",""trial"",""time""
""fullscreenenter"",""1"",""2266""
","
","
","""event"",""trial"",""time""
""fullscreenenter"",""1"",""2266""
","
","","[{""page_index"":0,""viewing_time"":1518.3000000715256}]","1519.1000000238419","","","","","","","","","","","","","","","","","","","","","","","","",""
"pit-comprehension","58","1049021","0.0-2.0-25.0-0.0","battery-v0.2","","""event"",""trial"",""time""
""fullscreenenter"",""1"",""2266""
","
","
","""event"",""trial"",""time""
""fullscreenenter"",""1"",""2266""
","
","","","8077.300000071526","[""True""]","0","23","1214","550","","","","","","","","","","","","","","","","","","","",""
"pit-instructions","59","1050943","0.0-2.0-25.0-1.0","battery-v0.2","","""event"",""trial"",""time""
""fullscreenenter"",""1"",""2266""
","
","
","""event"",""trial"",""time""
""fullscreenenter"",""1"",""2266""
","
","","[{""page_index"":0,""viewing_time"":1870.3999999761581}]","1871.1000000238419","","","","","","","","","","","","","","","","","","","","","","","","",""
"pit-comprehension","60","1055703","0.0-2.0-26.0-0.0","battery-v0.2","","""event"",""trial"",""time""
""fullscreenenter"",""1"",""2266""
","
","
","""event"",""trial"",""time""
""fullscreenenter"",""1"",""2266""
","
","","","4739.5","[""False""]","0","23","1214","550","","","","","","","","","","","","","","","","","","","",""
"pit-instructions","61","1057702","0.0-2.0-26.0-1.0","battery-v0.2","","""event"",""trial"",""time""
""fullscreenenter"",""1"",""2266""
","
","
","""event"",""trial"",""time""
""fullscreenenter"",""1"",""2266""
","
","","[{""page_index"":0,""viewing_time"":1948}]","1949.1999999284744","","","","","","","","","","","","","","","","","","","","","","","","",""
"pit-instructions","62","1074623","0.0-3.0","battery-v0.2","","""event"",""trial"",""time""
""fullscreenenter"",""1"",""2266""
","
","
","""event"",""trial"",""time""
""fullscreenenter"",""1"",""2266""
","
","","[{""page_index"":0,""viewing_time"":4192.700000047684},{""page_index"":1,""viewing_time"":5043.700000047684},{""page_index"":2,""viewing_time"":7667.299999952316}]","16904.900000095367","","","","","","","","","","","","","","","","","","","","","","","","",""
"pit-trial","63","1078553","0.0-4.0","battery-v0.2","","""event"",""trial"",""time""
""fullscreenenter"",""1"",""2266""
","
","
","""event"",""trial"",""time""
""fullscreenenter"",""1"",""2266""
","
","","","1054.6000000238419","","","23","1214","550","&#9728;","elianto","#f73b6a7A","-1"," ","0","-10","[1904.8999999761581]","1","1","","","1214","1","0","4","lose","no-go","0","[]"
"pit-trial","64","1082342","0.0-5.0","battery-v0.2","","""event"",""trial"",""time""
""fullscreenenter"",""1"",""2266""
","
","
","""event"",""trial"",""time""
""fullscreenenter"",""1"",""2266""
","
","","","907.9000000953674","","","23","1214","550","&#9752;","elianto","#f73b6a7A"," "," ","1","0","[1761.2000000476837]","1","1","","","1214","2","3","3","lose","go","0","0"
"pit-trial","65","1086124","0.0-6.0","battery-v0.2","","""event"",""trial"",""time""
""fullscreenenter"",""1"",""2266""
","
","
","""event"",""trial"",""time""
""fullscreenenter"",""1"",""2266""
","
","","","913.5","","","23","1214","550","&#9733;","elianto","#3366ff99","-1"," ","0","+10","[1763.6000000238419]","1","1","","","1214","3","2","2","win","no-go","1","0"
"pit-trial","66","1089772","0.0-7.0","battery-v0.2","","""event"",""trial"",""time""
""fullscreenenter"",""1"",""2266""
","
","
","""event"",""trial"",""time""
""fullscreenenter"",""1"",""2266""
","
","","","754.8999999761581","","","23","1214","550","&#9730;","elianto","#3366ff99"," "," ","1","+10","[1612.6000000238419]","1","1","","","1214","4","1","1","win","go","0","0"
"pit-trial","67","1093372","0.0-8.0","battery-v0.2","","""event"",""trial"",""time""
""fullscreenenter"",""1"",""2266""
","
","
","""event"",""trial"",""time""
""fullscreenenter"",""1"",""2266""
","
","","","716.1999999284744","","","23","1214","550","&#9733;","elianto","#3366ff99","-1"," ","0","0","[1574]","1","1","","","1214","5","2","2","win","no-go","0","0"
"pit-trial","68","1098272","0.0-9.0","battery-v0.2","","""event"",""trial"",""time""
""fullscreenenter"",""1"",""2266""
","
","
","""event"",""trial"",""time""
""fullscreenenter"",""1"",""2266""
","
","","","-1","","","23","1214","550","&#9752;","elianto","#f73b6a7A"," ","-1","0","-10","[]","0","1","","","1214","6","3","3","lose","go","0","0"
"pit-trial","69","1103151","0.0-10.0","battery-v0.2","","""event"",""trial"",""time""
""fullscreenenter"",""1"",""2266""
","
","
","""event"",""trial"",""time""
""fullscreenenter"",""1"",""2266""
","
","","","-1","","","23","1214","550","&#9728;","elianto","#f73b6a7A","-1","-1","1","0","[]","0","1","","","1214","7","0","4","lose","no-go","0","0"
"pit-trial","70","1106565","0.0-11.0","battery-v0.2","","""event"",""trial"",""time""
""fullscreenenter"",""1"",""2266""
","
","
","""event"",""trial"",""time""
""fullscreenenter"",""1"",""2266""
","
","","","536.5","","","23","1214","550","&#9730;","elianto","#3366ff99"," "," ","1","+10","[1394.7999999523163]","1","1","","","1214","8","1","1","win","go","0","0"
"pit-trial","71","1110064","0.0-12.0","battery-v0.2","","""event"",""trial"",""time""
""fullscreenenter"",""1"",""2266""
","
","
","""event"",""trial"",""time""
""fullscreenenter"",""1"",""2266""
","
","","","629.5","","","23","1214","550","&#9730;","elianto","#3366ff99"," "," ","1","+10","[1479.7999999523163]","1","1","","","1214","9","1","1","win","go","0","0"
"pit-trial","72","1113544","0.0-13.0","battery-v0.2","","""event"",""trial"",""time""
""fullscreenenter"",""1"",""2266""
","
","
","""event"",""trial"",""time""
""fullscreenenter"",""1"",""2266""
","
","","","611.6999999284744","","","23","1214","550","&#9733;","elianto","#3366ff99","-1"," ","0","0","[1462]","1","1","","","1214","10","2","2","win","no-go","0","0"
"pit-trial","73","1118410","0.0-14.0","battery-v0.2","","""event"",""trial"",""time""
""fullscreenenter"",""1"",""2266""
","
","
","""event"",""trial"",""time""
""fullscreenenter"",""1"",""2266""
","
","","","-1","","","23","1214","550","&#9728;","elianto","#f73b6a7A","-1","-1","1","0","[]","0","1","","","1214","11","0","4","lose","no-go","0","0"
"pit-trial","74","1121973","0.0-15.0","battery-v0.2","","""event"",""trial"",""time""
""fullscreenenter"",""1"",""2266""
","
","
","""event"",""trial"",""time""
""fullscreenenter"",""1"",""2266""
","
","","","697.3000000715256","","","23","1214","550","&#9752;","elianto","#f73b6a7A"," "," ","1","0","[1547.3000000715256]","1","1","","","1214","12","3","3","lose","go","0","0"
"pit-trial","75","1125722","0.0-16.0","battery-v0.2","","""event"",""trial"",""time""
""fullscreenenter"",""1"",""2266""
","
","
","""event"",""trial"",""time""
""fullscreenenter"",""1"",""2266""
","
","","","881.7999999523163","","","23","1214","550","&#9730;","elianto","#3366ff99"," "," ","1","+10","[1732]","1","1","","","1214","13","1","1","win","go","0","0"
"pit-trial","76","1129193","0.0-17.0","battery-v0.2","","""event"",""trial"",""time""
""fullscreenenter"",""1"",""2266""
","
","
","""event"",""trial"",""time""
""fullscreenenter"",""1"",""2266""
","
","","","603.4000000953674","","","23","1214","550","&#9733;","elianto","#3366ff99","-1"," ","0","0","[1454.3000000715256]","1","1","","","1214","14","2","2","win","no-go","0","0"
"pit-trial","77","1134068","0.0-18.0","battery-v0.2","","""event"",""trial"",""time""
""fullscreenenter"",""1"",""2266""
","
","
","""event"",""trial"",""time""
""fullscreenenter"",""1"",""2266""
","
","","","-1","","","23","1214","550","&#9728;","elianto","#f73b6a7A","-1","-1","1","0","[]","0","1","","","1214","15","0","4","lose","no-go","0","0"
"pit-trial","78","1137913","0.0-19.0","battery-v0.2","","""event"",""trial"",""time""
""fullscreenenter"",""1"",""2266""
","
","
","""event"",""trial"",""time""
""fullscreenenter"",""1"",""2266""
","
","","","977.5","","","23","1214","550","&#9752;","elianto","#f73b6a7A"," "," ","1","0","[1830.8999999761581]","1","1","","","1214","16","3","3","lose","go","0","0"
"pit-trial","79","1141576","0.0-20.0","battery-v0.2","","""event"",""trial"",""time""
""fullscreenenter"",""1"",""2266""
","
","
","""event"",""trial"",""time""
""fullscreenenter"",""1"",""2266""
","
","","","795.8999999761581","","","23","1214","550","&#9730;","elianto","#3366ff99"," "," ","1","+10","[1646.3999999761581]","1","1","","","1214","17","1","1","win","go","0","0"
"pit-trial","80","1146003","0.0-21.0","battery-v0.2","","""event"",""trial"",""time""
""fullscreenenter"",""1"",""2266""
","
","
","""event"",""trial"",""time""
""fullscreenenter"",""1"",""2266""
","
","","","1560","","","23","1214","550","&#9752;","elianto","#f73b6a7A"," "," ","1","-10","[2411.100000023842]","1","1","","","1214","18","3","3","lose","go","1","0"
"pit-trial","81","1150869","0.0-22.0","battery-v0.2","","""event"",""trial"",""time""
""fullscreenenter"",""1"",""2266""
","
","
","""event"",""trial"",""time""
""fullscreenenter"",""1"",""2266""
","
","","","-1","","","23","1214","550","&#9728;","elianto","#f73b6a7A","-1","-1","1","-10","[]","0","1","","","1214","19","0","4","lose","no-go","1","0"
"pit-trial","82","1154285","0.0-23.0","battery-v0.2","","""event"",""trial"",""time""
""fullscreenenter"",""1"",""2266""
","
","
","""event"",""trial"",""time""
""fullscreenenter"",""1"",""2266""
","
","","","548.6000000238419","","","23","1214","550","&#9733;","elianto","#3366ff99","-1"," ","0","0","[1399.1000000238419]","1","1","","","1214","20","2","2","win","no-go","0","0"
"pit-instructions","83","1169510","0.0-24.0","battery-v0.2","","""event"",""trial"",""time""
""fullscreenenter"",""1"",""2266""
","
","
","""event"",""trial"",""time""
""fullscreenenter"",""1"",""2266""
","
","","[{""page_index"":0,""viewing_time"":7912.5},{""page_index"":1,""viewing_time"":7297}]","15210.399999976158","","","","","","","","","","","","","","","","","","","","","","","","",""
"pit-trial","84","1173272","0.0-25.0","battery-v0.2","","""event"",""trial"",""time""
""fullscreenenter"",""1"",""2266""
","
","
","""event"",""trial"",""time""
""fullscreenenter"",""1"",""2266""
","
","","","873","","","23","1214","550","u","elianto","#3366ff99","-1"," ","0","0","[1732.8999999761581]","1","2","","","1214","21","0","2","win","no-go","0","0"
"pit-trial","85","1176726","0.0-26.0","battery-v0.2","","""event"",""trial"",""time""
""fullscreenenter"",""1"",""2266""
","
","
","""event"",""trial"",""time""
""fullscreenenter"",""1"",""2266""
","
","","","574.2000000476837","","","23","1214","550","g","elianto","#3366ff99"," "," ","1","+10","[1424.8999999761581]","1","2","","","1214","22","3","1","win","go","0","0"
"pit-trial","86","1181596","0.0-27.0","battery-v0.2","","""event"",""trial"",""time""
""fullscreenenter"",""1"",""2266""
","
","
","""event"",""trial"",""time""
""fullscreenenter"",""1"",""2266""
","
","","","-1","","","23","1214","550","l","elianto","#f73b6a7A"," ","-1","0","-10","[]","0","2","","","1214","23","1","3","lose","go","0","0"
"pit-trial","87","1186486","0.0-28.0","battery-v0.2","","""event"",""trial"",""time""
""fullscreenenter"",""1"",""2266""
","
","
","""event"",""trial"",""time""
""fullscreenenter"",""1"",""2266""
","
","","","-1","","","23","1214","550","a","elianto","#f73b6a7A","-1","-1","1","0","[]","0","2","","","1214","24","2","4","lose","no-go","0","0"
"pit-trial","88","1190076","0.0-29.0","battery-v0.2","","""event"",""trial"",""time""
""fullscreenenter"",""1"",""2266""
","
","
","""event"",""trial"",""time""
""fullscreenenter"",""1"",""2266""
","
","","","722.8999999761581","","","23","1214","550","u","elianto","#3366ff99","-1"," ","0","0","[1574.1999999284744]","1","2","","","1214","25","0","2","win","no-go","0","0"
"pit-trial","89","1193816","0.0-30.0","battery-v0.2","","""event"",""trial"",""time""
""fullscreenenter"",""1"",""2266""
","
","
","""event"",""trial"",""time""
""fullscreenenter"",""1"",""2266""
","
","","","861.6999999284744","","","23","1214","550","l","elianto","#f73b6a7A"," "," ","1","0","[1722.5999999046326]","1","2","","","1214","26","1","3","lose","go","0","0"
"pit-trial","90","1198695","0.0-31.0","battery-v0.2","","""event"",""trial"",""time""
""fullscreenenter"",""1"",""2266""
","
","
","""event"",""trial"",""time""
""fullscreenenter"",""1"",""2266""
","
","","","-1","","","23","1214","550","a","elianto","#f73b6a7A","-1","-1","1","0","[]","0","2","","","1214","27","2","4","lose","no-go","0","0"
"pit-trial","91","1202055","0.0-32.0","battery-v0.2","","""event"",""trial"",""time""
""fullscreenenter"",""1"",""2266""
","
","
","""event"",""trial"",""time""
""fullscreenenter"",""1"",""2266""
","
","","","491.89999997615814","","","23","1214","550","g","elianto","#3366ff99"," "," ","1","+10","[1343.7000000476837]","1","2","","","1214","28","3","1","win","go","0","0"
"pit-trial","92","1205947","0.0-33.0","battery-v0.2","","""event"",""trial"",""time""
""fullscreenenter"",""1"",""2266""
","
","
","""event"",""trial"",""time""
""fullscreenenter"",""1"",""2266""
","
","","","1025.5","","","23","1214","550","l","elianto","#f73b6a7A"," "," ","1","0","[1876]","1","2","","","1214","29","1","3","lose","go","0","0"
"pit-trial","93","1209553","0.0-34.0","battery-v0.2","","""event"",""trial"",""time""
""fullscreenenter"",""1"",""2266""
","
","
","""event"",""trial"",""time""
""fullscreenenter"",""1"",""2266""
","
","","","738.6000000238419","","","23","1214","550","u","elianto","#3366ff99","-1"," ","0","0","[1589.7999999523163]","1","2","","","1214","30","0","2","win","no-go","0","0"
"pit-trial","94","1214419","0.0-35.0","battery-v0.2","","""event"",""trial"",""time""
""fullscreenenter"",""1"",""2266""
","
","
","""event"",""trial"",""time""
""fullscreenenter"",""1"",""2266""
","
","","","-1","","","23","1214","550","g","elianto","#3366ff99"," ","-1","0","0","[]","0","2","","","1214","31","3","1","win","go","0","0"
"pit-trial","95","1219234","0.0-36.0","battery-v0.2","","""event"",""trial"",""time""
""fullscreenenter"",""1"",""2266""
","
","
","""event"",""trial"",""time""
""fullscreenenter"",""1"",""2266""
","
","","","1947.8999999761581","","","23","1214","550","a","elianto","#f73b6a7A","-1"," ","0","0","[2798.399999976158]","1","2","","","1214","32","2","4","lose","no-go","1","0"
"pit-trial","96","1224103","0.0-37.0","battery-v0.2","","""event"",""trial"",""time""
""fullscreenenter"",""1"",""2266""
","
","
","""event"",""trial"",""time""
""fullscreenenter"",""1"",""2266""
","
","","","-1","","","23","1214","550","a","elianto","#f73b6a7A","-1","-1","1","0","[]","0","2","","","1214","33","2","4","lose","no-go","0","0"
"pit-trial","97","1228463","0.0-38.0","battery-v0.2","","""event"",""trial"",""time""
""fullscreenenter"",""1"",""2266""
","
","
","""event"",""trial"",""time""
""fullscreenenter"",""1"",""2266""
","
","","","1493","","","23","1214","550","g","elianto","#3366ff99"," "," ","1","0","[2344.7000000476837]","1","2","","","1214","34","3","1","win","go","1","0"
"pit-trial","98","1231945","0.0-39.0","battery-v0.2","","""event"",""trial"",""time""
""fullscreenenter"",""1"",""2266""
","
","
","""event"",""trial"",""time""
""fullscreenenter"",""1"",""2266""
","
","","","612.1000000238419","","","23","1214","550","u","elianto","#3366ff99","-1"," ","0","0","[1464.1000000238419]","1","2","","","1214","35","0","2","win","no-go","0","0"
"pit-trial","99","1236272","0.0-40.0","battery-v0.2","","""event"",""trial"",""time""
""fullscreenenter"",""1"",""2266""
","
","
","""event"",""trial"",""time""
""fullscreenenter"",""1"",""2266""
","
","","","1461","","","23","1214","550","l","elianto","#f73b6a7A"," "," ","1","-10","[2311.5]","1","2","","","1214","36","1","3","lose","go","1","0"
"pit-trial","100","1239833","0.0-41.0","battery-v0.2","","""event"",""trial"",""time""
""fullscreenenter"",""1"",""2266""
","
","
","""event"",""trial"",""time""
""fullscreenenter"",""1"",""2266""
","
","","","693.3999999761581","","","23","1214","550","g","elianto","#3366ff99"," "," ","1","+10","[1544.6999999284744]","1","2","","","1214","37","3","1","win","go","0","0"
"pit-trial","101","1243324","0.0-42.0","battery-v0.2","","""event"",""trial"",""time""
""fullscreenenter"",""1"",""2266""
","
","
","""event"",""trial"",""time""
""fullscreenenter"",""1"",""2266""
","
","","","624.8999999761581","","","23","1214","550","u","elianto","#3366ff99","-1"," ","0","0","[1474.8999999761581]","1","2","","","1214","38","0","2","win","no-go","0","0"
"pit-trial","102","1247045","0.0-43.0","battery-v0.2","","""event"",""trial"",""time""
""fullscreenenter"",""1"",""2266""
","
","
","""event"",""trial"",""time""
""fullscreenenter"",""1"",""2266""
","
","","","852.1000000238419","","","23","1214","550","l","elianto","#f73b6a7A"," "," ","1","0","[1705.3000000715256]","1","2","","","1214","39","1","3","lose","go","0","0"
"pit-trial","103","1251912","0.0-44.0","battery-v0.2","","""event"",""trial"",""time""
""fullscreenenter"",""1"",""2266""
","
","
","""event"",""trial"",""time""
""fullscreenenter"",""1"",""2266""
","
","","","-1","","","23","1214","550","a","elianto","#f73b6a7A","-1","-1","1","-10","[]","0","2","","","1214","40","2","4","lose","no-go","1","0"
"pit-trial","104","1255314","0.0-45.0","battery-v0.2","","""event"",""trial"",""time""
""fullscreenenter"",""1"",""2266""
","
","
","""event"",""trial"",""time""
""fullscreenenter"",""1"",""2266""
","
","","","536.3000000715256","","","23","1214","550","a","elianto","#f73b6a7A","-1"," ","0","-10","[1386.5]","1","2","","","1214","41","2","4","lose","no-go","0","0"
"pit-trial","105","1258884","0.0-46.0","battery-v0.2","","""event"",""trial"",""time""
""fullscreenenter"",""1"",""2266""
","
","
","""event"",""trial"",""time""
""fullscreenenter"",""1"",""2266""
","
","","","702","","","23","1214","550","u","elianto","#3366ff99","-1"," ","0","+10","[1552.7000000476837]","1","2","","","1214","42","0","2","win","no-go","1","0"
"pit-trial","106","1262524","0.0-47.0","battery-v0.2","","""event"",""trial"",""time""
""fullscreenenter"",""1"",""2266""
","
","
","""event"",""trial"",""time""
""fullscreenenter"",""1"",""2266""
","
","","","773.7999999523163","","","23","1214","550","l","elianto","#f73b6a7A"," "," ","1","-10","[1624.1000000238419]","1","2","","","1214","43","1","3","lose","go","1","0"
"pit-trial","107","1267185","0.0-48.0","battery-v0.2","","""event"",""trial"",""time""
""fullscreenenter"",""1"",""2266""
","
","
","""event"",""trial"",""time""
""fullscreenenter"",""1"",""2266""
","
","","","1794","","","23","1214","550","g","elianto","#3366ff99"," "," ","1","+10","[2646.2000000476837]","1","2","","","1214","44","3","1","win","go","0","0"
"pit-trial","108","1270633","0.0-49.0","battery-v0.2","","""event"",""trial"",""time""
""fullscreenenter"",""1"",""2266""
","
","
","""event"",""trial"",""time""
""fullscreenenter"",""1"",""2266""
","
","","","590.3999999761581","","","23","1214","550","g","elianto","#3366ff99"," "," ","1","+10","[1443.1000000238419]","1","2","","","1214","45","3","1","win","go","0","0"
"pit-trial","109","1275499","0.0-50.0","battery-v0.2","","""event"",""trial"",""time""
""fullscreenenter"",""1"",""2266""
","
","
","""event"",""trial"",""time""
""fullscreenenter"",""1"",""2266""
","
","","","-1","","","23","1214","550","a","elianto","#f73b6a7A","-1","-1","1","0","[]","0","2","","","1214","46","2","4","lose","no-go","0","0"
"pit-trial","110","1278906","0.0-51.0","battery-v0.2","","""event"",""trial"",""time""
""fullscreenenter"",""1"",""2266""
","
","
","""event"",""trial"",""time""
""fullscreenenter"",""1"",""2266""
","
","","","539.2000000476837","","","23","1214","550","u","elianto","#3366ff99","-1"," ","0","0","[1390.6000000238419]","1","2","","","1214","47","0","2","win","no-go","0","0"
"pit-trial","111","1283564","0.0-52.0","battery-v0.2","","""event"",""trial"",""time""
""fullscreenenter"",""1"",""2266""
","
","
","""event"",""trial"",""time""
""fullscreenenter"",""1"",""2266""
","
","","","1790.6000000238419","","","23","1214","550","l","elianto","#f73b6a7A"," "," ","1","0","[2642.5]","1","2","","","1214","48","1","3","lose","go","0","0"
"pit-trial","112","1287105","0.0-53.0","battery-v0.2","","""event"",""trial"",""time""
""fullscreenenter"",""1"",""2266""
","
","
","""event"",""trial"",""time""
""fullscreenenter"",""1"",""2266""
","
","","","673.1000000238419","","","23","1214","550","u","elianto","#3366ff99","-1"," ","0","0","[1524.2999999523163]","1","2","","","1214","49","0","2","win","no-go","0","0"
"pit-trial","113","1291972","0.0-54.0","battery-v0.2","","""event"",""trial"",""time""
""fullscreenenter"",""1"",""2266""
","
","
","""event"",""trial"",""time""
""fullscreenenter"",""1"",""2266""
","
","","","-1","","","23","1214","550","a","elianto","#f73b6a7A","-1","-1","1","0","[]","0","2","","","1214","50","2","4","lose","no-go","0","0"
"pit-trial","114","1295776","0.0-55.0","battery-v0.2","","""event"",""trial"",""time""
""fullscreenenter"",""1"",""2266""
","
","
","""event"",""trial"",""time""
""fullscreenenter"",""1"",""2266""
","
","","","938.2000000476837","","","23","1214","550","l","elianto","#f73b6a7A"," "," ","1","0","[1788.3999999761581]","1","2","","","1214","51","1","3","lose","go","0","0"
"pit-trial","115","1299364","0.0-56.0","battery-v0.2","","""event"",""trial"",""time""
""fullscreenenter"",""1"",""2266""
","
","
","""event"",""trial"",""time""
""fullscreenenter"",""1"",""2266""
","
","","","722.2000000476837","","","23","1214","550","g","elianto","#3366ff99"," "," ","1","+10","[1572.7000000476837]","1","2","","","1214","52","3","1","win","go","0","0"
"pit-trial","116","1304231","0.0-57.0","battery-v0.2","","""event"",""trial"",""time""
""fullscreenenter"",""1"",""2266""
","
","
","""event"",""trial"",""time""
""fullscreenenter"",""1"",""2266""
","
","","","-1","","","23","1214","550","a","elianto","#f73b6a7A","-1","-1","1","0","[]","0","2","","","1214","53","2","4","lose","no-go","0","0"
"pit-trial","117","1307685","0.0-58.0","battery-v0.2","","""event"",""trial"",""time""
""fullscreenenter"",""1"",""2266""
","
","
","""event"",""trial"",""time""
""fullscreenenter"",""1"",""2266""
","
","","","588.2999999523163","","","23","1214","550","l","elianto","#f73b6a7A"," "," ","1","-10","[1438.3999999761581]","1","2","","","1214","54","1","3","lose","go","1","0"
"pit-trial","118","1311254","0.0-59.0","battery-v0.2","","""event"",""trial"",""time""
""fullscreenenter"",""1"",""2266""
","
","
","""event"",""trial"",""time""
""fullscreenenter"",""1"",""2266""
","
","","","703.1999999284744","","","23","1214","550","p","elianto","#f73b6a7A"," "," ","1","-10","[1553.5999999046326]","1","2","","","1214","55","4","3","lose","go","1","0"
"pit-trial","119","1314774","0.0-60.0","battery-v0.2","","""event"",""trial"",""time""
""fullscreenenter"",""1"",""2266""
","
","
","""event"",""trial"",""time""
""fullscreenenter"",""1"",""2266""
","
","","","650.3999999761581","","","23","1214","550","s","elianto","#f73b6a7A","-1"," ","0","-10","[1503.6000000238419]","1","2","","","1214","56","5","4","lose","no-go","0","0"
"pit-trial","120","1319642","0.0-61.0","battery-v0.2","","""event"",""trial"",""time""
""fullscreenenter"",""1"",""2266""
","
","
","""event"",""trial"",""time""
""fullscreenenter"",""1"",""2266""
","
","","","-1","","","23","1214","550","s","elianto","#f73b6a7A","-1","-1","1","0","[]","0","2","","","1214","57","5","4","lose","no-go","0","0"
"pit-trial","121","1324510","0.0-62.0","battery-v0.2","","""event"",""trial"",""time""
""fullscreenenter"",""1"",""2266""
","
","
","""event"",""trial"",""time""
""fullscreenenter"",""1"",""2266""
","
","","","-1","","","23","1214","550","a","elianto","#f73b6a7A","-1","-1","1","-10","[]","0","2","","","1214","58","2","4","lose","no-go","1","0"
"pit-trial","122","1328655","0.0-63.0","battery-v0.2","","""event"",""trial"",""time""
""fullscreenenter"",""1"",""2266""
","
","
","""event"",""trial"",""time""
""fullscreenenter"",""1"",""2266""
","
","","","1280.3999999761581","","","23","1214","550","l","elianto","#f73b6a7A"," "," ","1","0","[2130.7999999523163]","1","2","","","1214","59","1","3","lose","go","0","0"
"pit-trial","123","1333513","0.0-64.0","battery-v0.2","","""event"",""trial"",""time""
""fullscreenenter"",""1"",""2266""
","
","
","""event"",""trial"",""time""
""fullscreenenter"",""1"",""2266""
","
","","","-1","","","23","1214","550","p","elianto","#f73b6a7A"," ","-1","0","-10","[]","0","2","","","1214","60","4","3","lose","go","0","0"
"pit-trial","124","1338379","0.0-65.0","battery-v0.2","","""event"",""trial"",""time""
""fullscreenenter"",""1"",""2266""
","
","
","""event"",""trial"",""time""
""fullscreenenter"",""1"",""2266""
","
","","","-1","","","23","1214","550","s","elianto","#f73b6a7A","-1","-1","1","-10","[]","0","2","","","1214","61","5","4","lose","no-go","1","0"
"pit-trial","125","1343245","0.0-66.0","battery-v0.2","","""event"",""trial"",""time""
""fullscreenenter"",""1"",""2266""
","
","
","""event"",""trial"",""time""
""fullscreenenter"",""1"",""2266""
","
","","","-1","","","23","1214","550","a","elianto","#f73b6a7A","-1","-1","1","0","[]","0","2","","","1214","62","2","4","lose","no-go","0","0"
"pit-trial","126","1346895","0.0-67.0","battery-v0.2","","""event"",""trial"",""time""
""fullscreenenter"",""1"",""2266""
","
","
","""event"",""trial"",""time""
""fullscreenenter"",""1"",""2266""
","
","","","782.7999999523163","","","23","1214","550","w","elianto","#3366ff99","-1"," ","0","0","[1634.8999999761581]","1","2","","","1214","63","6","2","win","no-go","0","0"
"pit-trial","127","1351762","0.0-68.0","battery-v0.2","","""event"",""trial"",""time""
""fullscreenenter"",""1"",""2266""
","
","
","""event"",""trial"",""time""
""fullscreenenter"",""1"",""2266""
","
","","","-1","","","23","1214","550","p","elianto","#f73b6a7A"," ","-1","0","-10","[]","0","2","","","1214","64","4","3","lose","go","0","0"
"pit-trial","128","1356628","0.0-69.0","battery-v0.2","","""event"",""trial"",""time""
""fullscreenenter"",""1"",""2266""
","
","
","""event"",""trial"",""time""
""fullscreenenter"",""1"",""2266""
","
","","","-1","","","23","1214","550","a","elianto","#f73b6a7A","-1","-1","1","0","[]","0","2","","","1214","65","2","4","lose","no-go","0","0"
"pit-trial","129","1360457","0.0-70.0","battery-v0.2","","""event"",""trial"",""time""
""fullscreenenter"",""1"",""2266""
","
","
","""event"",""trial"",""time""
""fullscreenenter"",""1"",""2266""
","
","","","962","","","23","1214","550","p","elianto","#f73b6a7A"," "," ","1","0","[1813.2000000476837]","1","2","","","1214","66","4","3","lose","go","0","0"
"pit-trial","130","1363925","0.0-71.0","battery-v0.2","","""event"",""trial"",""time""
""fullscreenenter"",""1"",""2266""
","
","
","""event"",""trial"",""time""
""fullscreenenter"",""1"",""2266""
","
","","","604.0999999046326","","","23","1214","550","w","elianto","#3366ff99","-1"," ","0","0","[1454]","1","2","","","1214","67","6","2","win","no-go","0","0"
"pit-trial","131","1368792","0.0-72.0","battery-v0.2","","""event"",""trial"",""time""
""fullscreenenter"",""1"",""2266""
","
","
","""event"",""trial"",""time""
""fullscreenenter"",""1"",""2266""
","
","","","-1","","","23","1214","550","s","elianto","#f73b6a7A","-1","-1","1","-10","[]","0","2","","","1214","68","5","4","lose","no-go","1","0"
"pit-trial","132","1373658","0.0-73.0","battery-v0.2","","""event"",""trial"",""time""
""fullscreenenter"",""1"",""2266""
","
","
","""event"",""trial"",""time""
""fullscreenenter"",""1"",""2266""
","
","","","-1","","","23","1214","550","s","elianto","#f73b6a7A","-1","-1","1","0","[]","0","2","","","1214","69","5","4","lose","no-go","0","0"
"pit-trial","133","1377067","0.0-74.0","battery-v0.2","","""event"",""trial"",""time""
""fullscreenenter"",""1"",""2266""
","
","
","""event"",""trial"",""time""
""fullscreenenter"",""1"",""2266""
","
","","","542.1999999284744","","","23","1214","550","e","elianto","#3366ff99"," "," ","1","+10","[1393.2999999523163]","1","2","","","1214","70","7","1","win","go","0","0"
"pit-trial","134","1380456","0.0-75.0","battery-v0.2","","""event"",""trial"",""time""
""fullscreenenter"",""1"",""2266""
","
","
","""event"",""trial"",""time""
""fullscreenenter"",""1"",""2266""
","
","","","522.6000000238419","","","23","1214","550","w","elianto","#3366ff99","-1"," ","0","0","[1372.6999999284744]","1","2","","","1214","71","6","2","win","no-go","0","0"
"pit-trial","135","1385322","0.0-76.0","battery-v0.2","","""event"",""trial"",""time""
""fullscreenenter"",""1"",""2266""
","
","
","""event"",""trial"",""time""
""fullscreenenter"",""1"",""2266""
","
","","","-1","","","23","1214","550","p","elianto","#f73b6a7A"," ","-1","0","-10","[]","0","2","","","1214","72","4","3","lose","go","0","0"
"pit-trial","136","1390190","0.0-77.0","battery-v0.2","","""event"",""trial"",""time""
""fullscreenenter"",""1"",""2266""
","
","
","""event"",""trial"",""time""
""fullscreenenter"",""1"",""2266""
","
","","","-1","","","23","1214","550","s","elianto","#f73b6a7A","-1","-1","1","0","[]","0","2","","","1214","73","5","4","lose","no-go","0","0"
"pit-trial","137","1393717","0.0-78.0","battery-v0.2","","""event"",""trial"",""time""
""fullscreenenter"",""1"",""2266""
","
","
","""event"",""trial"",""time""
""fullscreenenter"",""1"",""2266""
","
","","","659.3999999761581","","","23","1214","550","p","elianto","#f73b6a7A"," "," ","1","0","[1510.2000000476837]","1","2","","","1214","74","4","3","lose","go","0","0"
"pit-trial","138","1397306","0.0-79.0","battery-v0.2","","""event"",""trial"",""time""
""fullscreenenter"",""1"",""2266""
","
","
","""event"",""trial"",""time""
""fullscreenenter"",""1"",""2266""
","
","","","722.7000000476837","","","23","1214","550","e","elianto","#3366ff99"," "," ","1","+10","[1573.1000000238419]","1","2","","","1214","75","7","1","win","go","0","0"
"pit-trial","139","1400737","0.0-80.0","battery-v0.2","","""event"",""trial"",""time""
""fullscreenenter"",""1"",""2266""
","
","
","""event"",""trial"",""time""
""fullscreenenter"",""1"",""2266""
","
","","","563.5","","","23","1214","550","w","elianto","#3366ff99","-1"," ","0","0","[1414.8999999761581]","1","2","","","1214","76","6","2","win","no-go","0","0"
"pit-trial","140","1405604","0.0-81.0","battery-v0.2","","""event"",""trial"",""time""
""fullscreenenter"",""1"",""2266""
","
","
","""event"",""trial"",""time""
""fullscreenenter"",""1"",""2266""
","
","","","-1","","","23","1214","550","s","elianto","#f73b6a7A","-1","-1","1","0","[]","0","2","","","1214","77","5","4","lose","no-go","0","0"
"pit-trial","141","1409126","0.0-82.0","battery-v0.2","","""event"",""trial"",""time""
""fullscreenenter"",""1"",""2266""
","
","
","""event"",""trial"",""time""
""fullscreenenter"",""1"",""2266""
","
","","","653","","","23","1214","550","e","elianto","#3366ff99"," "," ","1","0","[1505.3999999761581]","1","2","","","1214","78","7","1","win","go","1","0"
"pit-trial","142","1412617","0.0-83.0","battery-v0.2","","""event"",""trial"",""time""
""fullscreenenter"",""1"",""2266""
","
","
","""event"",""trial"",""time""
""fullscreenenter"",""1"",""2266""
","
","","","624.6000000238419","","","23","1214","550","w","elianto","#3366ff99","-1"," ","0","0","[1474.7999999523163]","1","2","","","1214","79","6","2","win","no-go","0","0"
"pit-trial","143","1416236","0.0-84.0","battery-v0.2","","""event"",""trial"",""time""
""fullscreenenter"",""1"",""2266""
","
","
","""event"",""trial"",""time""
""fullscreenenter"",""1"",""2266""
","
","","","752.2999999523163","","","23","1214","550","p","elianto","#f73b6a7A"," "," ","1","0","[1603.2999999523163]","1","2","","","1214","80","4","3","lose","go","0","0"
"pit-trial","144","1419835","0.0-85.0","battery-v0.2","","""event"",""trial"",""time""
""fullscreenenter"",""1"",""2266""
","
","
","""event"",""trial"",""time""
""fullscreenenter"",""1"",""2266""
","
","","","733.2999999523163","","","23","1214","550","w","elianto","#3366ff99","-1"," ","0","0","[1583.2999999523163]","1","2","","","1214","81","6","2","win","no-go","0","0"
"pit-trial","145","1424347","0.0-86.0","battery-v0.2","","""event"",""trial"",""time""
""fullscreenenter"",""1"",""2266""
","
","
","""event"",""trial"",""time""
""fullscreenenter"",""1"",""2266""
","
","","","1646.7999999523163","","","23","1214","550","p","elianto","#f73b6a7A"," "," ","1","0","[2497.100000023842]","1","2","","","1214","82","4","3","lose","go","0","0"
"pit-trial","146","1429212","0.0-87.0","battery-v0.2","","""event"",""trial"",""time""
""fullscreenenter"",""1"",""2266""
","
","
","""event"",""trial"",""time""
""fullscreenenter"",""1"",""2266""
","
","","","-1","","","23","1214","550","s","elianto","#f73b6a7A","-1","-1","1","0","[]","0","2","","","1214","83","5","4","lose","no-go","0","0"
"pit-trial","147","1432619","0.0-88.0","battery-v0.2","","""event"",""trial"",""time""
""fullscreenenter"",""1"",""2266""
","
","
","""event"",""trial"",""time""
""fullscreenenter"",""1"",""2266""
","
","","","539.2000000476837","","","23","1214","550","e","elianto","#3366ff99"," "," ","1","+10","[1389.7000000476837]","1","2","","","1214","84","7","1","win","go","0","0"
"pit-trial","148","1436159","0.0-89.0","battery-v0.2","","""event"",""trial"",""time""
""fullscreenenter"",""1"",""2266""
","
","
","""event"",""trial"",""time""
""fullscreenenter"",""1"",""2266""
","
","","","674.1000000238419","","","23","1214","550","w","elianto","#3366ff99","-1"," ","0","0","[1524.2999999523163]","1","2","","","1214","85","6","2","win","no-go","0","0"
"pit-trial","149","1440275","0.0-90.0","battery-v0.2","","""event"",""trial"",""time""
""fullscreenenter"",""1"",""2266""
","
","
","""event"",""trial"",""time""
""fullscreenenter"",""1"",""2266""
","
","","","1248.9000000953674","","","23","1214","550","p","elianto","#f73b6a7A"," "," ","1","0","[2101.3000000715256]","1","2","","","1214","86","4","3","lose","go","0","0"
"pit-trial","150","1443685","0.0-91.0","battery-v0.2","","""event"",""trial"",""time""
""fullscreenenter"",""1"",""2266""
","
","
","""event"",""trial"",""time""
""fullscreenenter"",""1"",""2266""
","
","","","544.7000000476837","","","23","1214","550","s","elianto","#f73b6a7A","-1"," ","0","0","[1394.7999999523163]","1","2","","","1214","87","5","4","lose","no-go","1","0"
"pit-trial","151","1447155","0.0-92.0","battery-v0.2","","""event"",""trial"",""time""
""fullscreenenter"",""1"",""2266""
","
","
","""event"",""trial"",""time""
""fullscreenenter"",""1"",""2266""
","
","","","603.3999999761581","","","23","1214","550","e","elianto","#3366ff99"," "," ","1","+10","[1454.6999999284744]","1","2","","","1214","88","7","1","win","go","0","0"
"pit-trial","152","1450465","0.0-93.0","battery-v0.2","","""event"",""trial"",""time""
""fullscreenenter"",""1"",""2266""
","
","
","""event"",""trial"",""time""
""fullscreenenter"",""1"",""2266""
","
","","","451.8000000715256","","","23","1214","550","s","elianto","#f73b6a7A","-1"," ","0","-10","[1303.5]","1","2","","","1214","89","5","4","lose","no-go","0","0"
"pit-trial","153","1453515","0.0-94.0","battery-v0.2","","""event"",""trial"",""time""
""fullscreenenter"",""1"",""2266""
","
","
","""event"",""trial"",""time""
""fullscreenenter"",""1"",""2266""
","
","","","183.10000002384186","","","23","1214","550","p","elianto","#f73b6a7A"," "," ","1","-10","[1034]","1","2","","","1214","90","4","3","lose","go","1","0"
"pit-trial","154","1456856","0.0-95.0","battery-v0.2","","""event"",""trial"",""time""
""fullscreenenter"",""1"",""2266""
","
","
","""event"",""trial"",""time""
""fullscreenenter"",""1"",""2266""
","
","","","471.7000000476837","","","23","1214","550","w","elianto","#3366ff99","-1"," ","0","0","[1322.6000000238419]","1","2","","","1214","91","6","2","win","no-go","0","0"
"pit-trial","155","1460499","0.0-96.0","battery-v0.2","","""event"",""trial"",""time""
""fullscreenenter"",""1"",""2266""
","
","
","""event"",""trial"",""time""
""fullscreenenter"",""1"",""2266""
","
","","","773.2999999523163","","","23","1214","550","e","elianto","#3366ff99"," "," ","1","+10","[1626.7000000476837]","1","2","","","1214","92","7","1","win","go","0","0"
"pit-trial","156","1463957","0.0-97.0","battery-v0.2","","""event"",""trial"",""time""
""fullscreenenter"",""1"",""2266""
","
","
","""event"",""trial"",""time""
""fullscreenenter"",""1"",""2266""
","
","","","591.3000000715256","","","23","1214","550","w","elianto","#3366ff99","-1"," ","0","0","[1442.2000000476837]","1","2","","","1214","93","6","2","win","no-go","0","0"
"pit-trial","157","1468256","0.0-98.0","battery-v0.2","","""event"",""trial"",""time""
""fullscreenenter"",""1"",""2266""
","
","
","""event"",""trial"",""time""
""fullscreenenter"",""1"",""2266""
","
","","","1432.6999999284744","","","23","1214","550","p","elianto","#f73b6a7A"," "," ","1","0","[2282.9000000953674]","1","2","","","1214","94","4","3","lose","go","0","0"
"pit-trial","158","1471648","0.0-99.0","battery-v0.2","","""event"",""trial"",""time""
""fullscreenenter"",""1"",""2266""
","
","
","""event"",""trial"",""time""
""fullscreenenter"",""1"",""2266""
","
","","","523.7000000476837","","","23","1214","550","e","elianto","#3366ff99"," "," ","1","+10","[1373.8999999761581]","1","2","","","1214","95","7","1","win","go","0","0"
"pit-trial","159","1475047","0.0-100.0","battery-v0.2","","""event"",""trial"",""time""
""fullscreenenter"",""1"",""2266""
","
","
","""event"",""trial"",""time""
""fullscreenenter"",""1"",""2266""
","
","","","533.5","","","23","1214","550","k","elianto","#3366ff99"," "," ","1","+10","[1383.6999999284744]","1","2","","","1214","96","8","1","win","go","0","0"
"pit-trial","160","1478337","0.0-101.0","battery-v0.2","","""event"",""trial"",""time""
""fullscreenenter"",""1"",""2266""
","
","
","""event"",""trial"",""time""
""fullscreenenter"",""1"",""2266""
","
","","","423","","","23","1214","550","e","elianto","#3366ff99"," "," ","1","+10","[1273.3999999761581]","1","2","","","1214","97","7","1","win","go","0","0"
"pit-trial","161","1481722","0.0-102.0","battery-v0.2","","""event"",""trial"",""time""
""fullscreenenter"",""1"",""2266""
","
","
","""event"",""trial"",""time""
""fullscreenenter"",""1"",""2266""
","
","","","516.3999999761581","","","23","1214","550","w","elianto","#3366ff99","-1"," ","0","+10","[1369]","1","2","","","1214","98","6","2","win","no-go","1","0"
"pit-trial","162","1484997","0.0-103.0","battery-v0.2","","""event"",""trial"",""time""
""fullscreenenter"",""1"",""2266""
","
","
","""event"",""trial"",""time""
""fullscreenenter"",""1"",""2266""
","
","","","408.7000000476837","","","23","1214","550","k","elianto","#3366ff99"," "," ","1","+10","[1258.8000000715256]","1","2","","","1214","99","8","1","win","go","0","0"
"pit-trial","163","1488227","0.0-104.0","battery-v0.2","","""event"",""trial"",""time""
""fullscreenenter"",""1"",""2266""
","
","
","""event"",""trial"",""time""
""fullscreenenter"",""1"",""2266""
","
","","","364.2000000476837","","","23","1214","550","p","elianto","#f73b6a7A"," "," ","1","0","[1215.2000000476837]","1","2","","","1214","100","4","3","lose","go","0","0"
"pit-trial","164","1491657","0.0-105.0","battery-v0.2","","""event"",""trial"",""time""
""fullscreenenter"",""1"",""2266""
","
","
","""event"",""trial"",""time""
""fullscreenenter"",""1"",""2266""
","
","","","560.3999999761581","","","23","1214","550","d","elianto","#3366ff99","-1"," ","0","0","[1414]","1","2","","","1214","101","9","2","win","no-go","0","0"
"pit-trial","165","1495031","0.0-106.0","battery-v0.2","","""event"",""trial"",""time""
""fullscreenenter"",""1"",""2266""
","
","
","""event"",""trial"",""time""
""fullscreenenter"",""1"",""2266""
","
","","","507","","","23","1214","550","k","elianto","#3366ff99"," "," ","1","+10","[1357.5]","1","2","","","1214","102","8","1","win","go","0","0"
"pit-trial","166","1498566","0.0-107.0","battery-v0.2","","""event"",""trial"",""time""
""fullscreenenter"",""1"",""2266""
","
","
","""event"",""trial"",""time""
""fullscreenenter"",""1"",""2266""
","
","","","665.8999999761581","","","23","1214","550","w","elianto","#3366ff99","-1"," ","0","0","[1519.2999999523163]","1","2","","","1214","103","6","2","win","no-go","0","0"
"pit-trial","167","1501909","0.0-108.0","battery-v0.2","","""event"",""trial"",""time""
""fullscreenenter"",""1"",""2266""
","
","
","""event"",""trial"",""time""
""fullscreenenter"",""1"",""2266""
","
","","","477.89999997615814","","","23","1214","550","e","elianto","#3366ff99"," "," ","1","+10","[1328]","1","2","","","1214","104","7","1","win","go","0","0"
"pit-trial","168","1505407","0.0-109.0","battery-v0.2","","""event"",""trial"",""time""
""fullscreenenter"",""1"",""2266""
","
","
","""event"",""trial"",""time""
""fullscreenenter"",""1"",""2266""
","
","","","632.2000000476837","","","23","1214","550","d","elianto","#3366ff99","-1"," ","0","0","[1483.1000000238419]","1","2","","","1214","105","9","2","win","no-go","0","0"
"pit-trial","169","1508815","0.0-110.0","battery-v0.2","","""event"",""trial"",""time""
""fullscreenenter"",""1"",""2266""
","
","
","""event"",""trial"",""time""
""fullscreenenter"",""1"",""2266""
","
","","","540.6000000238419","","","23","1214","550","w","elianto","#3366ff99","-1"," ","0","0","[1391.7999999523163]","1","2","","","1214","106","6","2","win","no-go","0","0"
"pit-trial","170","1513681","0.0-111.0","battery-v0.2","","""event"",""trial"",""time""
""fullscreenenter"",""1"",""2266""
","
","
","""event"",""trial"",""time""
""fullscreenenter"",""1"",""2266""
","
","","","-1","","","23","1214","550","k","elianto","#3366ff99"," ","-1","0","+10","[]","0","2","","","1214","107","8","1","win","go","1","0"
"pit-trial","171","1518547","0.0-112.0","battery-v0.2","","""event"",""trial"",""time""
""fullscreenenter"",""1"",""2266""
","
","
","""event"",""trial"",""time""
""fullscreenenter"",""1"",""2266""
","
","","","-1","","","23","1214","550","e","elianto","#3366ff99"," ","-1","0","0","[]","0","2","","","1214","108","7","1","win","go","0","0"
"pit-trial","172","1523414","0.0-113.0","battery-v0.2","","""event"",""trial"",""time""
""fullscreenenter"",""1"",""2266""
","
","
","""event"",""trial"",""time""
""fullscreenenter"",""1"",""2266""
","
","","","-1","","","23","1214","550","d","elianto","#3366ff99","-1","-1","1","+10","[]","0","2","","","1214","109","9","2","win","no-go","0","0"
"pit-trial","173","1528282","0.0-114.0","battery-v0.2","","""event"",""trial"",""time""
""fullscreenenter"",""1"",""2266""
","
","
","""event"",""trial"",""time""
""fullscreenenter"",""1"",""2266""
","
","","","-1","","","23","1214","550","k","elianto","#3366ff99"," ","-1","0","0","[]","0","2","","","1214","110","8","1","win","go","0","0"
"pit-trial","174","1533149","0.0-115.0","battery-v0.2","","""event"",""trial"",""time""
""fullscreenenter"",""1"",""2266""
","
","
","""event"",""trial"",""time""
""fullscreenenter"",""1"",""2266""
","
","","","-1","","","23","1214","550","j","elianto","#f73b6a7A"," ","-1","0","0","[]","0","2","","","1214","111","10","3","lose","go","1","0"
"pit-trial","175","1536547","0.0-116.0","battery-v0.2","","""event"",""trial"",""time""
""fullscreenenter"",""1"",""2266""
","
","
","""event"",""trial"",""time""
""fullscreenenter"",""1"",""2266""
","
","","","531.1000000238419","","","23","1214","550","v","elianto","#f73b6a7A","-1"," ","0","-10","[1381.7999999523163]","1","2","","","1214","112","11","4","lose","no-go","0","0"
"pit-trial","176","1541414","0.0-117.0","battery-v0.2","","""event"",""trial"",""time""
""fullscreenenter"",""1"",""2266""
","
","
","""event"",""trial"",""time""
""fullscreenenter"",""1"",""2266""
","
","","","-1","","","23","1214","550","v","elianto","#f73b6a7A","-1","-1","1","0","[]","0","2","","","1214","113","11","4","lose","no-go","0","0"
"pit-trial","177","1546280","0.0-118.0","battery-v0.2","","""event"",""trial"",""time""
""fullscreenenter"",""1"",""2266""
","
","
","""event"",""trial"",""time""
""fullscreenenter"",""1"",""2266""
","
","","","-1","","","23","1214","550","j","elianto","#f73b6a7A"," ","-1","0","-10","[]","0","2","","","1214","114","10","3","lose","go","0","0"
"pit-trial","178","1549565","0.0-119.0","battery-v0.2","","""event"",""trial"",""time""
""fullscreenenter"",""1"",""2266""
","
","
","""event"",""trial"",""time""
""fullscreenenter"",""1"",""2266""
","
","","","419.10000002384186","","","23","1214","550","d","elianto","#3366ff99","-1"," ","0","0","[1269.2000000476837]","1","2","","","1214","115","9","2","win","no-go","0","0"
"pit-trial","179","1554432","0.0-120.0","battery-v0.2","","""event"",""trial"",""time""
""fullscreenenter"",""1"",""2266""
","
","
","""event"",""trial"",""time""
""fullscreenenter"",""1"",""2266""
","
","","","-1","","","23","1214","550","k","elianto","#3366ff99"," ","-1","0","0","[]","0","2","","","1214","116","8","1","win","go","0","0"
"pit-trial","180","1559299","0.0-121.0","battery-v0.2","","""event"",""trial"",""time""
""fullscreenenter"",""1"",""2266""
","
","
","""event"",""trial"",""time""
""fullscreenenter"",""1"",""2266""
","
","","","-1","","","23","1214","550","v","elianto","#f73b6a7A","-1","-1","1","0","[]","0","2","","","1214","117","11","4","lose","no-go","0","0"
"pit-trial","181","1562692","0.0-122.0","battery-v0.2","","""event"",""trial"",""time""
""fullscreenenter"",""1"",""2266""
","
","
","""event"",""trial"",""time""
""fullscreenenter"",""1"",""2266""
","
","","","526.5","","","23","1214","550","k","elianto","#3366ff99"," "," ","1","+10","[1377.6000000238419]","1","2","","","1214","118","8","1","win","go","0","0"
"pit-trial","182","1566120","0.0-123.0","battery-v0.2","","""event"",""trial"",""time""
""fullscreenenter"",""1"",""2266""
","
","
","""event"",""trial"",""time""
""fullscreenenter"",""1"",""2266""
","
","","","559.5","","","23","1214","550","d","elianto","#3366ff99","-1"," ","0","0","[1410.2999999523163]","1","2","","","1214","119","9","2","win","no-go","0","0"
"pit-trial","183","1570986","0.0-124.0","battery-v0.2","","""event"",""trial"",""time""
""fullscreenenter"",""1"",""2266""
","
","
","""event"",""trial"",""time""
""fullscreenenter"",""1"",""2266""
","
","","","-1","","","23","1214","550","j","elianto","#f73b6a7A"," ","-1","0","0","[]","0","2","","","1214","120","10","3","lose","go","1","0"
"pit-trial","184","1574569","0.0-125.0","battery-v0.2","","""event"",""trial"",""time""
""fullscreenenter"",""1"",""2266""
","
","
","""event"",""trial"",""time""
""fullscreenenter"",""1"",""2266""
","
","","","714.3999999761581","","","23","1214","550","k","elianto","#3366ff99"," "," ","1","0","[1566.0999999046326]","1","2","","","1214","121","8","1","win","go","1","0"
"pit-trial","185","1579436","0.0-126.0","battery-v0.2","","""event"",""trial"",""time""
""fullscreenenter"",""1"",""2266""
","
","
","""event"",""trial"",""time""
""fullscreenenter"",""1"",""2266""
","
","","","-1","","","23","1214","550","v","elianto","#f73b6a7A","-1","-1","1","0","[]","0","2","","","1214","122","11","4","lose","no-go","0","0"
"pit-trial","186","1584294","0.0-127.0","battery-v0.2","","""event"",""trial"",""time""
""fullscreenenter"",""1"",""2266""
","
","
","""event"",""trial"",""time""
""fullscreenenter"",""1"",""2266""
","
","","","-1","","","23","1214","550","j","elianto","#f73b6a7A"," ","-1","0","-10","[]","0","2","","","1214","123","10","3","lose","go","0","0"
"pit-trial","187","1587869","0.0-128.0","battery-v0.2","","""event"",""trial"",""time""
""fullscreenenter"",""1"",""2266""
","
","
","""event"",""trial"",""time""
""fullscreenenter"",""1"",""2266""
","
","","","707.1000000238419","","","23","1214","550","d","elianto","#3366ff99","-1"," ","0","0","[1557.5]","1","2","","","1214","124","9","2","win","no-go","0","0"
"pit-trial","188","1592577","0.0-129.0","battery-v0.2","","""event"",""trial"",""time""
""fullscreenenter"",""1"",""2266""
","
","
","""event"",""trial"",""time""
""fullscreenenter"",""1"",""2266""
","
","","","1843.1999999284744","","","23","1214","550","k","elianto","#3366ff99"," "," ","1","+10","[2693.7999999523163]","1","2","","","1214","125","8","1","win","go","0","0"
"pit-trial","189","1597443","0.0-130.0","battery-v0.2","","""event"",""trial"",""time""
""fullscreenenter"",""1"",""2266""
","
","
","""event"",""trial"",""time""
""fullscreenenter"",""1"",""2266""
","
","","","-1","","","23","1214","550","j","elianto","#f73b6a7A"," ","-1","0","-10","[]","0","2","","","1214","126","10","3","lose","go","0","0"
"pit-trial","190","1600859","0.0-131.0","battery-v0.2","","""event"",""trial"",""time""
""fullscreenenter"",""1"",""2266""
","
","
","""event"",""trial"",""time""
""fullscreenenter"",""1"",""2266""
","
","","","549.6000000238419","","","23","1214","550","d","elianto","#3366ff99","-1"," ","0","0","[1400.5]","1","2","","","1214","127","9","2","win","no-go","0","0"
"pit-trial","191","1605407","0.0-132.0","battery-v0.2","","""event"",""trial"",""time""
""fullscreenenter"",""1"",""2266""
","
","
","""event"",""trial"",""time""
""fullscreenenter"",""1"",""2266""
","
","","","1681.6000000238419","","","23","1214","550","v","elianto","#f73b6a7A","-1"," ","0","-10","[2533.1999999284744]","1","2","","","1214","128","11","4","lose","no-go","0","0"
"pit-trial","192","1610274","0.0-133.0","battery-v0.2","","""event"",""trial"",""time""
""fullscreenenter"",""1"",""2266""
","
","
","""event"",""trial"",""time""
""fullscreenenter"",""1"",""2266""
","
","","","-1","","","23","1214","550","j","elianto","#f73b6a7A"," ","-1","0","-10","[]","0","2","","","1214","129","10","3","lose","go","0","0"
"pit-trial","193","1615145","0.0-134.0","battery-v0.2","","""event"",""trial"",""time""
""fullscreenenter"",""1"",""2266""
","
","
","""event"",""trial"",""time""
""fullscreenenter"",""1"",""2266""
","
","","","-1","","","23","1214","550","k","elianto","#3366ff99"," ","-1","0","+10","[]","0","2","","","1214","130","8","1","win","go","1","0"
"pit-trial","194","1620011","0.0-135.0","battery-v0.2","","""event"",""trial"",""time""
""fullscreenenter"",""1"",""2266""
","
","
","""event"",""trial"",""time""
""fullscreenenter"",""1"",""2266""
","
","","","-1","","","23","1214","550","d","elianto","#3366ff99","-1","-1","1","+10","[]","0","2","","","1214","131","9","2","win","no-go","0","0"
"pit-trial","195","1624877","0.0-136.0","battery-v0.2","","""event"",""trial"",""time""
""fullscreenenter"",""1"",""2266""
","
","
","""event"",""trial"",""time""
""fullscreenenter"",""1"",""2266""
","
","","","-1","","","23","1214","550","v","elianto","#f73b6a7A","-1","-1","1","0","[]","0","2","","","1214","132","11","4","lose","no-go","0","0"
"pit-trial","196","1629742","0.0-137.0","battery-v0.2","","""event"",""trial"",""time""
""fullscreenenter"",""1"",""2266""
","
","
","""event"",""trial"",""time""
""fullscreenenter"",""1"",""2266""
","
","","","-1","","","23","1214","550","j","elianto","#f73b6a7A"," ","-1","0","0","[]","0","2","","","1214","133","10","3","lose","go","1","0"
"pit-trial","197","1634611","0.0-138.0","battery-v0.2","","""event"",""trial"",""time""
""fullscreenenter"",""1"",""2266""
","
","
","""event"",""trial"",""time""
""fullscreenenter"",""1"",""2266""
","
","","","-1","","","23","1214","550","k","elianto","#3366ff99"," ","-1","0","0","[]","0","2","","","1214","134","8","1","win","go","0","0"
"pit-trial","198","1639480","0.0-139.0","battery-v0.2","","""event"",""trial"",""time""
""fullscreenenter"",""1"",""2266""
","
","
","""event"",""trial"",""time""
""fullscreenenter"",""1"",""2266""
","
","","","-1","","","23","1214","550","v","elianto","#f73b6a7A","-1","-1","1","0","[]","0","2","","","1214","135","11","4","lose","no-go","0","0"
"pit-trial","199","1644347","0.0-140.0","battery-v0.2","","""event"",""trial"",""time""
""fullscreenenter"",""1"",""2266""
","
","
","""event"",""trial"",""time""
""fullscreenenter"",""1"",""2266""
","
","","","-1","","","23","1214","550","d","elianto","#3366ff99","-1","-1","1","+10","[]","0","2","","","1214","136","9","2","win","no-go","0","0"
"pit-trial","200","1649214","0.0-141.0","battery-v0.2","","""event"",""trial"",""time""
""fullscreenenter"",""1"",""2266""
","
","
","""event"",""trial"",""time""
""fullscreenenter"",""1"",""2266""
","
","","","-1","","","23","1214","550","j","elianto","#f73b6a7A"," ","-1","0","-10","[]","0","2","","","1214","137","10","3","lose","go","0","0"
"pit-trial","201","1654081","0.0-142.0","battery-v0.2","","""event"",""trial"",""time""
""fullscreenenter"",""1"",""2266""
","
","
","""event"",""trial"",""time""
""fullscreenenter"",""1"",""2266""
","
","","","-1","","","23","1214","550","v","elianto","#f73b6a7A","-1","-1","1","0","[]","0","2","","","1214","138","11","4","lose","no-go","0","0"
"pit-trial","202","1658946","0.0-143.0","battery-v0.2","","""event"",""trial"",""time""
""fullscreenenter"",""1"",""2266""
","
","
","""event"",""trial"",""time""
""fullscreenenter"",""1"",""2266""
","
","","","-1","","","23","1214","550","k","elianto","#3366ff99"," ","-1","0","0","[]","0","2","","","1214","139","8","1","win","go","0","0"
"pit-trial","203","1663813","0.0-144.0","battery-v0.2","","""event"",""trial"",""time""
""fullscreenenter"",""1"",""2266""
","
","
","""event"",""trial"",""time""
""fullscreenenter"",""1"",""2266""
","
","","","-1","","","23","1214","550","d","elianto","#3366ff99","-1","-1","1","+10","[]","0","2","","","1214","140","9","2","win","no-go","0","0"
"pit-instructions","204","1773119","0.0-145.0","battery-v0.2","","""event"",""trial"",""time""
""fullscreenenter"",""1"",""2266""
","
","
","""event"",""trial"",""time""
""fullscreenenter"",""1"",""2266""
","
","","[{""page_index"":0,""viewing_time"":99508.79999995232},{""page_index"":1,""viewing_time"":9782.799999952316}]","109292","","","","","","","","","","","","","","","","","","","","","","","","",""
"pit-trial","205","1777252","0.0-146.0","battery-v0.2","","""event"",""trial"",""time""
""fullscreenenter"",""1"",""2266""
","
","
","""event"",""trial"",""time""
""fullscreenenter"",""1"",""2266""
","
","","","1263.7000000476837","","","23","1214","550","m","elianto","#3366ff99","-1"," ","0","+10","[2114.600000023842]","1","3","","","1214","141","0","2","win","no-go","1","0"
"pit-trial","206","1780768","0.0-147.0","battery-v0.2","","""event"",""trial"",""time""
""fullscreenenter"",""1"",""2266""
","
","
","""event"",""trial"",""time""
""fullscreenenter"",""1"",""2266""
","
","","","640.8000000715256","","","23","1214","550","r","elianto","#3366ff99","-1"," ","0","0","[1492]","1","3","","","1214","142","1","2","win","no-go","0","0"
"pit-trial","207","1784402","0.0-148.0","battery-v0.2","","""event"",""trial"",""time""
""fullscreenenter"",""1"",""2266""
","
","
","""event"",""trial"",""time""
""fullscreenenter"",""1"",""2266""
","
","","","748.6000000238419","","","23","1214","550","y","elianto","#3366ff99"," "," ","1","+10","[1607.8999999761581]","1","3","","","1214","143","2","1","win","go","0","0"
"pit-trial","208","1787962","0.0-149.0","battery-v0.2","","""event"",""trial"",""time""
""fullscreenenter"",""1"",""2266""
","
","
","""event"",""trial"",""time""
""fullscreenenter"",""1"",""2266""
","
","","","674.7000000476837","","","23","1214","550","h","elianto","#f73b6a7A"," "," ","1","0","[1535.2000000476837]","1","3","","","1214","144","3","3","lose","go","0","0"
"pit-trial","209","1791352","0.0-150.0","battery-v0.2","","""event"",""trial"",""time""
""fullscreenenter"",""1"",""2266""
","
","
","""event"",""trial"",""time""
""fullscreenenter"",""1"",""2266""
","
","","","520.5","","","23","1214","550","h","elianto","#f73b6a7A"," "," ","1","-10","[1374]","1","3","","","1214","145","3","3","lose","go","1","0"
"pit-trial","210","1795242","0.0-151.0","battery-v0.2","","""event"",""trial"",""time""
""fullscreenenter"",""1"",""2266""
","
","
","""event"",""trial"",""time""
""fullscreenenter"",""1"",""2266""
","
","","","1016.7999999523163","","","23","1214","550","y","elianto","#3366ff99"," "," ","1","+10","[1870.6000000238419]","1","3","","","1214","146","2","1","win","go","0","0"
"pit-trial","211","1799342","0.0-152.0","battery-v0.2","","""event"",""trial"",""time""
""fullscreenenter"",""1"",""2266""
","
","
","""event"",""trial"",""time""
""fullscreenenter"",""1"",""2266""
","
","","","1202.8999999761581","","","23","1214","550","r","elianto","#3366ff99","-1"," ","0","0","[2064.4000000953674]","1","3","","","1214","147","1","2","win","no-go","0","0"
"pit-trial","212","1803401","0.0-153.0","battery-v0.2","","""event"",""trial"",""time""
""fullscreenenter"",""1"",""2266""
","
","
","""event"",""trial"",""time""
""fullscreenenter"",""1"",""2266""
","
","","","1192","","","23","1214","550","m","elianto","#3366ff99","-1"," ","0","0","[2043.8999999761581]","1","3","","","1214","148","0","2","win","no-go","0","0"
"pit-trial","213","1807501","0.0-154.0","battery-v0.2","","""event"",""trial"",""time""
""fullscreenenter"",""1"",""2266""
","
","
","""event"",""trial"",""time""
""fullscreenenter"",""1"",""2266""
","
","","","1233.5","","","23","1214","550","h","elianto","#f73b6a7A"," "," ","1","0","[2084.8000000715256]","1","3","","","1214","149","3","3","lose","go","0","0"
"pit-trial","214","1811284","0.0-155.0","battery-v0.2","","""event"",""trial"",""time""
""fullscreenenter"",""1"",""2266""
","
","
","""event"",""trial"",""time""
""fullscreenenter"",""1"",""2266""
","
","","","912.8999999761581","","","23","1214","550","y","elianto","#3366ff99"," "," ","1","+10","[1764.5]","1","3","","","1214","150","2","1","win","go","0","0"
"pit-trial","215","1816149","0.0-156.0","battery-v0.2","","""event"",""trial"",""time""
""fullscreenenter"",""1"",""2266""
","
","
","""event"",""trial"",""time""
""fullscreenenter"",""1"",""2266""
","
","","","-1","","","23","1214","550","r","elianto","#3366ff99","-1","-1","1","+10","[]","0","3","","","1214","151","1","2","win","no-go","0","0"
"pit-trial","216","1819763","0.0-157.0","battery-v0.2","","""event"",""trial"",""time""
""fullscreenenter"",""1"",""2266""
","
","
","""event"",""trial"",""time""
""fullscreenenter"",""1"",""2266""
","
","","","745.3999999761581","","","23","1214","550","m","elianto","#3366ff99","-1"," ","0","+10","[1596.1999999284744]","1","3","","","1214","152","0","2","win","no-go","1","0"
"pit-trial","217","1824629","0.0-158.0","battery-v0.2","","""event"",""trial"",""time""
""fullscreenenter"",""1"",""2266""
","
","
","""event"",""trial"",""time""
""fullscreenenter"",""1"",""2266""
","
","","","-1","","","23","1214","550","h","elianto","#f73b6a7A"," ","-1","0","0","[]","0","3","","","1214","153","3","3","lose","go","1","0"
"pit-trial","218","1828234","0.0-159.0","battery-v0.2","","""event"",""trial"",""time""
""fullscreenenter"",""1"",""2266""
","
","
","""event"",""trial"",""time""
""fullscreenenter"",""1"",""2266""
","
","","","723.2999999523163","","","23","1214","550","m","elianto","#3366ff99","-1"," ","0","0","[1574.8999999761581]","1","3","","","1214","154","0","2","win","no-go","0","0"
"pit-trial","219","1832304","0.0-160.0","battery-v0.2","","""event"",""trial"",""time""
""fullscreenenter"",""1"",""2266""
","
","
","""event"",""trial"",""time""
""fullscreenenter"",""1"",""2266""
","
","","","1194.3000000715256","","","23","1214","550","y","elianto","#3366ff99"," "," ","1","+10","[2045.1000000238419]","1","3","","","1214","155","2","1","win","go","0","0"
"pit-trial","220","1836102","0.0-161.0","battery-v0.2","","""event"",""trial"",""time""
""fullscreenenter"",""1"",""2266""
","
","
","""event"",""trial"",""time""
""fullscreenenter"",""1"",""2266""
","
","","","931","","","23","1214","550","r","elianto","#3366ff99","-1"," ","0","0","[1782.2999999523163]","1","3","","","1214","156","1","2","win","no-go","0","0"
"pit-trial","221","1840968","0.0-162.0","battery-v0.2","","""event"",""trial"",""time""
""fullscreenenter"",""1"",""2266""
","
","
","""event"",""trial"",""time""
""fullscreenenter"",""1"",""2266""
","
","","","-1","","","23","1214","550","y","elianto","#3366ff99"," ","-1","0","+10","[2954.3000000715256]","1","3","","","1214","157","2","1","win","go","1","0"
"pit-trial","222","1845334","0.0-163.0","battery-v0.2","","""event"",""trial"",""time""
""fullscreenenter"",""1"",""2266""
","
","
","""event"",""trial"",""time""
""fullscreenenter"",""1"",""2266""
","
","","","1495.8999999761581","","","23","1214","550","h","elianto","#f73b6a7A"," "," ","1","0","[2348.399999976158]","1","3","","","1214","158","3","3","lose","go","0","0"
"pit-trial","223","1849898","0.0-164.0","battery-v0.2","","""event"",""trial"",""time""
""fullscreenenter"",""1"",""2266""
","
","
","""event"",""trial"",""time""
""fullscreenenter"",""1"",""2266""
","
","","","1682.6999999284744","","","23","1214","550","m","elianto","#3366ff99","-1"," ","0","0","[2532.7000000476837]","1","3","","","1214","159","0","2","win","no-go","0","0"
"pit-trial","224","1854764","0.0-165.0","battery-v0.2","","""event"",""trial"",""time""
""fullscreenenter"",""1"",""2266""
","
","
","""event"",""trial"",""time""
""fullscreenenter"",""1"",""2266""
","
","","","-1","","","23","1214","550","r","elianto","#3366ff99","-1","-1","1","+10","[]","0","3","","","1214","160","1","2","win","no-go","0","0"
"pit-trial","225","1858773","0.0-166.0","battery-v0.2","","""event"",""trial"",""time""
""fullscreenenter"",""1"",""2266""
","
","
","""event"",""trial"",""time""
""fullscreenenter"",""1"",""2266""
","
","","","1143.3000000715256","","","23","1214","550","h","elianto","#f73b6a7A"," "," ","1","0","[1993.8999999761581]","1","3","","","1214","161","3","3","lose","go","0","0"
"pit-trial","226","1863640","0.0-167.0","battery-v0.2","","""event"",""trial"",""time""
""fullscreenenter"",""1"",""2266""
","
","
","""event"",""trial"",""time""
""fullscreenenter"",""1"",""2266""
","
","","","-1","","","23","1214","550","r","elianto","#3366ff99","-1","-1","1","+10","[]","0","3","","","1214","162","1","2","win","no-go","0","0"
"pit-trial","227","1868323","0.0-168.0","battery-v0.2","","""event"",""trial"",""time""
""fullscreenenter"",""1"",""2266""
","
","
","""event"",""trial"",""time""
""fullscreenenter"",""1"",""2266""
","
","","","1816.5","","","23","1214","550","m","elianto","#3366ff99","-1"," ","0","0","[2667.5]","1","3","","","1214","163","0","2","win","no-go","0","0"
"pit-trial","228","1871888","0.0-169.0","battery-v0.2","","""event"",""trial"",""time""
""fullscreenenter"",""1"",""2266""
","
","
","""event"",""trial"",""time""
""fullscreenenter"",""1"",""2266""
","
","","","694.3999999761581","","","23","1214","550","y","elianto","#3366ff99"," "," ","1","+10","[1544.5]","1","3","","","1214","164","2","1","win","go","0","0"
"pit-trial","229","1875682","0.0-170.0","battery-v0.2","","""event"",""trial"",""time""
""fullscreenenter"",""1"",""2266""
","
","
","""event"",""trial"",""time""
""fullscreenenter"",""1"",""2266""
","
","","","936.3999999761581","","","23","1214","550","y","elianto","#3366ff99"," "," ","1","+10","[1786.9000000953674]","1","3","","","1214","165","2","1","win","go","0","0"
"pit-trial","230","1880548","0.0-171.0","battery-v0.2","","""event"",""trial"",""time""
""fullscreenenter"",""1"",""2266""
","
","
","""event"",""trial"",""time""
""fullscreenenter"",""1"",""2266""
","
","","","-1","","","23","1214","550","h","elianto","#f73b6a7A"," ","-1","0","-10","[3054.3000000715256]","1","3","","","1214","166","3","3","lose","go","0","0"
"pit-trial","231","1883901","0.0-172.0","battery-v0.2","","""event"",""trial"",""time""
""fullscreenenter"",""1"",""2266""
","
","
","""event"",""trial"",""time""
""fullscreenenter"",""1"",""2266""
","
","","","482.39999997615814","","","23","1214","550","m","elianto","#3366ff99","-1"," ","0","0","[1332.5]","1","3","","","1214","167","0","2","win","no-go","0","0"
"pit-trial","232","1888768","0.0-173.0","battery-v0.2","","""event"",""trial"",""time""
""fullscreenenter"",""1"",""2266""
","
","
","""event"",""trial"",""time""
""fullscreenenter"",""1"",""2266""
","
","","","-1","","","23","1214","550","r","elianto","#3366ff99","-1","-1","1","+10","[]","0","3","","","1214","168","1","2","win","no-go","0","0"
"pit-trial","233","1893232","0.0-174.0","battery-v0.2","","""event"",""trial"",""time""
""fullscreenenter"",""1"",""2266""
","
","
","""event"",""trial"",""time""
""fullscreenenter"",""1"",""2266""
","
","","","1595.2000000476837","","","23","1214","550","y","elianto","#3366ff99"," "," ","1","+10","[2447.600000023842]","1","3","","","1214","169","2","1","win","go","0","0"
"pit-trial","234","1897184","0.0-175.0","battery-v0.2","","""event"",""trial"",""time""
""fullscreenenter"",""1"",""2266""
","
","
","""event"",""trial"",""time""
""fullscreenenter"",""1"",""2266""
","
","","","1084.5","","","23","1214","550","h","elianto","#f73b6a7A"," "," ","1","0","[1935.2000000476837]","1","3","","","1214","170","3","3","lose","go","0","0"
"pit-trial","235","1902050","0.0-176.0","battery-v0.2","","""event"",""trial"",""time""
""fullscreenenter"",""1"",""2266""
","
","
","""event"",""trial"",""time""
""fullscreenenter"",""1"",""2266""
","
","","","-1","","","23","1214","550","m","elianto","#3366ff99","-1","-1","1","+10","[]","0","3","","","1214","171","0","2","win","no-go","0","0"
"pit-trial","236","1906931","0.0-177.0","battery-v0.2","","""event"",""trial"",""time""
""fullscreenenter"",""1"",""2266""
","
","
","""event"",""trial"",""time""
""fullscreenenter"",""1"",""2266""
","
","","","-1","","","23","1214","550","r","elianto","#3366ff99","-1","-1","1","+10","[]","0","3","","","1214","172","1","2","win","no-go","0","0"
"pit-trial","237","1911797","0.0-178.0","battery-v0.2","","""event"",""trial"",""time""
""fullscreenenter"",""1"",""2266""
","
","
","""event"",""trial"",""time""
""fullscreenenter"",""1"",""2266""
","
","","","-1","","","23","1214","550","m","elianto","#3366ff99","-1","-1","1","+10","[2970]","1","3","","","1214","173","0","2","win","no-go","0","0"
"pit-trial","238","1916663","0.0-179.0","battery-v0.2","","""event"",""trial"",""time""
""fullscreenenter"",""1"",""2266""
","
","
","""event"",""trial"",""time""
""fullscreenenter"",""1"",""2266""
","
","","","-1","","","23","1214","550","y","elianto","#3366ff99"," ","-1","0","0","[2989.399999976158]","1","3","","","1214","174","2","1","win","go","0","0"
"pit-trial","239","1921530","0.0-180.0","battery-v0.2","","""event"",""trial"",""time""
""fullscreenenter"",""1"",""2266""
","
","
","""event"",""trial"",""time""
""fullscreenenter"",""1"",""2266""
","
","","","-1","","","23","1214","550","c","elianto","#f73b6a7A"," ","-1","0","-10","[]","0","3","","","1214","175","5","3","lose","go","0","0"
"pit-trial","240","1926397","0.0-181.0","battery-v0.2","","""event"",""trial"",""time""
""fullscreenenter"",""1"",""2266""
","
","
","""event"",""trial"",""time""
""fullscreenenter"",""1"",""2266""
","
","","","-1","","","23","1214","550","z","elianto","#f73b6a7A","-1","-1","1","0","[]","0","3","","","1214","176","4","4","lose","no-go","0","0"
"pit-trial","241","1931270","0.0-182.0","battery-v0.2","","""event"",""trial"",""time""
""fullscreenenter"",""1"",""2266""
","
","
","""event"",""trial"",""time""
""fullscreenenter"",""1"",""2266""
","
","","","-1","","","23","1214","550","c","elianto","#f73b6a7A"," ","-1","0","0","[]","0","3","","","1214","177","5","3","lose","go","1","0"
"pit-trial","242","1935060","0.0-183.0","battery-v0.2","","""event"",""trial"",""time""
""fullscreenenter"",""1"",""2266""
","
","
","""event"",""trial"",""time""
""fullscreenenter"",""1"",""2266""
","
","","","918.3999999761581","","","23","1214","550","y","elianto","#3366ff99"," "," ","1","+10","[1769.8999999761581]","1","3","","","1214","178","2","1","win","go","0","0"
"pit-trial","243","1939938","0.0-184.0","battery-v0.2","","""event"",""trial"",""time""
""fullscreenenter"",""1"",""2266""
","
","
","""event"",""trial"",""time""
""fullscreenenter"",""1"",""2266""
","
","","","-1","","","23","1214","550","m","elianto","#3366ff99","-1","-1","1","0","[]","0","3","","","1214","179","0","2","win","no-go","1","0"
"pit-trial","244","1943999","0.0-185.0","battery-v0.2","","""event"",""trial"",""time""
""fullscreenenter"",""1"",""2266""
","
","
","""event"",""trial"",""time""
""fullscreenenter"",""1"",""2266""
","
","","","1183.3999999761581","","","23","1214","550","z","elianto","#f73b6a7A","-1"," ","0","-10","[2034.1000000238419]","1","3","","","1214","180","4","4","lose","no-go","0","0"
"pit-trial","245","1948867","0.0-186.0","battery-v0.2","","""event"",""trial"",""time""
""fullscreenenter"",""1"",""2266""
","
","
","""event"",""trial"",""time""
""fullscreenenter"",""1"",""2266""
","
","","","-1","","","23","1214","550","c","elianto","#f73b6a7A"," ","-1","0","0","[]","0","3","","","1214","181","5","3","lose","go","1","0"
"pit-trial","246","1952976","0.0-187.0","battery-v0.2","","""event"",""trial"",""time""
""fullscreenenter"",""1"",""2266""
","
","
","""event"",""trial"",""time""
""fullscreenenter"",""1"",""2266""
","
","","","1240.4000000953674","","","23","1214","550","b","elianto","#3366ff99","-1"," ","0","0","[2090.600000023842]","1","3","","","1214","182","6","2","win","no-go","0","0"
"pit-trial","247","1957845","0.0-188.0","battery-v0.2","","""event"",""trial"",""time""
""fullscreenenter"",""1"",""2266""
","
","
","""event"",""trial"",""time""
""fullscreenenter"",""1"",""2266""
","
","","","-1","","","23","1214","550","z","elianto","#f73b6a7A","-1","-1","1","0","[]","0","3","","","1214","183","4","4","lose","no-go","0","0"
"pit-trial","248","1961945","0.0-189.0","battery-v0.2","","""event"",""trial"",""time""
""fullscreenenter"",""1"",""2266""
","
","
","""event"",""trial"",""time""
""fullscreenenter"",""1"",""2266""
","
","","","1234.1000000238419","","","23","1214","550","y","elianto","#3366ff99"," "," ","1","0","[2084.2999999523163]","1","3","","","1214","184","2","1","win","go","1","0"
"pit-trial","249","1966813","0.0-190.0","battery-v0.2","","""event"",""trial"",""time""
""fullscreenenter"",""1"",""2266""
","
","
","""event"",""trial"",""time""
""fullscreenenter"",""1"",""2266""
","
","","","-1","","","23","1214","550","c","elianto","#f73b6a7A"," ","-1","0","-10","[]","0","3","","","1214","185","5","3","lose","go","0","0"
"pit-trial","250","1971679","0.0-191.0","battery-v0.2","","""event"",""trial"",""time""
""fullscreenenter"",""1"",""2266""
","
","
","""event"",""trial"",""time""
""fullscreenenter"",""1"",""2266""
","
","","","-1","","","23","1214","550","z","elianto","#f73b6a7A","-1","-1","1","-10","[]","0","3","","","1214","186","4","4","lose","no-go","1","0"
"pit-trial","251","1976546","0.0-192.0","battery-v0.2","","""event"",""trial"",""time""
""fullscreenenter"",""1"",""2266""
","
","
","""event"",""trial"",""time""
""fullscreenenter"",""1"",""2266""
","
","","","-1","","","23","1214","550","y","elianto","#3366ff99"," ","-1","0","0","[]","0","3","","","1214","187","2","1","win","go","0","0"
"pit-trial","252","1981411","0.0-193.0","battery-v0.2","","""event"",""trial"",""time""
""fullscreenenter"",""1"",""2266""
","
","
","""event"",""trial"",""time""
""fullscreenenter"",""1"",""2266""
","
","","","-1","","","23","1214","550","b","elianto","#3366ff99","-1","-1","1","+10","[]","0","3","","","1214","188","6","2","win","no-go","0","0"
"pit-trial","253","1986277","0.0-194.0","battery-v0.2","","""event"",""trial"",""time""
""fullscreenenter"",""1"",""2266""
","
","
","""event"",""trial"",""time""
""fullscreenenter"",""1"",""2266""
","
","","","-1","","","23","1214","550","t","elianto","#f73b6a7A","-1","-1","1","-10","[]","0","3","","","1214","189","7","4","lose","no-go","1","0"
"pit-trial","254","1989707","0.0-195.0","battery-v0.2","","""event"",""trial"",""time""
""fullscreenenter"",""1"",""2266""
","
","
","""event"",""trial"",""time""
""fullscreenenter"",""1"",""2266""
","
","","","562.8999999761581","","","23","1214","550","b","elianto","#3366ff99","-1"," ","0","+10","[1413.8999999761581]","1","3","","","1214","190","6","2","win","no-go","1","0"
"pit-trial","255","1994354","0.0-196.0","battery-v0.2","","""event"",""trial"",""time""
""fullscreenenter"",""1"",""2266""
","
","
","""event"",""trial"",""time""
""fullscreenenter"",""1"",""2266""
","
","","","1778.6999999284744","","","23","1214","550","c","elianto","#f73b6a7A"," "," ","1","0","[2630.3000000715256]","1","3","","","1214","191","5","3","lose","go","0","0"
"pit-trial","256","1999243","0.0-197.0","battery-v0.2","","""event"",""trial"",""time""
""fullscreenenter"",""1"",""2266""
","
","
","""event"",""trial"",""time""
""fullscreenenter"",""1"",""2266""
","
","","","-1","","","23","1214","550","z","elianto","#f73b6a7A","-1","-1","1","0","[]","0","3","","","1214","192","4","4","lose","no-go","0","0"
"pit-trial","257","2004116","0.0-198.0","battery-v0.2","","""event"",""trial"",""time""
""fullscreenenter"",""1"",""2266""
","
","
","""event"",""trial"",""time""
""fullscreenenter"",""1"",""2266""
","
","","","-1","","","23","1214","550","z","elianto","#f73b6a7A","-1","-1","1","0","[]","0","3","","","1214","193","4","4","lose","no-go","0","0"
"pit-trial","258","2008995","0.0-199.0","battery-v0.2","","""event"",""trial"",""time""
""fullscreenenter"",""1"",""2266""
","
","
","""event"",""trial"",""time""
""fullscreenenter"",""1"",""2266""
","
","","","-1","","","23","1214","550","t","elianto","#f73b6a7A","-1","-1","1","0","[]","0","3","","","1214","194","7","4","lose","no-go","0","0"
"pit-trial","259","2012936","0.0-200.0","battery-v0.2","","""event"",""trial"",""time""
""fullscreenenter"",""1"",""2266""
","
","
","""event"",""trial"",""time""
""fullscreenenter"",""1"",""2266""
","
","","","1073.6999999284744","","","23","1214","550","b","elianto","#3366ff99","-1"," ","0","+10","[1924.3000000715256]","1","3","","","1214","195","6","2","win","no-go","1","0"
"pit-trial","260","2017802","0.0-201.0","battery-v0.2","","""event"",""trial"",""time""
""fullscreenenter"",""1"",""2266""
","
","
","""event"",""trial"",""time""
""fullscreenenter"",""1"",""2266""
","
","","","-1","","","23","1214","550","c","elianto","#f73b6a7A"," ","-1","0","0","[]","0","3","","","1214","196","5","3","lose","go","1","0"
"pit-trial","261","2022669","0.0-202.0","battery-v0.2","","""event"",""trial"",""time""
""fullscreenenter"",""1"",""2266""
","
","
","""event"",""trial"",""time""
""fullscreenenter"",""1"",""2266""
","
","","","-1","","","23","1214","550","t","elianto","#f73b6a7A","-1","-1","1","0","[]","0","3","","","1214","197","7","4","lose","no-go","0","0"
"pit-trial","262","2027139","0.0-203.0","battery-v0.2","","""event"",""trial"",""time""
""fullscreenenter"",""1"",""2266""
","
","
","""event"",""trial"",""time""
""fullscreenenter"",""1"",""2266""
","
","","","1601.8999999761581","","","23","1214","550","b","elianto","#3366ff99","-1"," ","0","0","[2453]","1","3","","","1214","198","6","2","win","no-go","0","0"
"pit-trial","263","2032011","0.0-204.0","battery-v0.2","","""event"",""trial"",""time""
""fullscreenenter"",""1"",""2266""
","
","
","""event"",""trial"",""time""
""fullscreenenter"",""1"",""2266""
","
","","","-1","","","23","1214","550","z","elianto","#f73b6a7A","-1","-1","1","0","[]","0","3","","","1214","199","4","4","lose","no-go","0","0"
