"trial_type","trial_index","time_elapsed","internal_node_id","task_version","view_history","rt","rune","rune_set","hex","correct","choice","accuracy","outcome","keys","total_keys","block","practice","subject","participantId","value","responses","num_errors","sub","trial","stimulus","robot","valence","action","sham"
"pavlovia","0","27","0.0-0.0","battery-v0.2","","","","","","","","","","","","","","","","","","","","","","","","",""
"pit-instructions","1","4089","0.0-1.0-0.0","battery-v0.2","[{""page_index"":0,""viewing_time"":1652.2999999523163},{""page_index"":1,""viewing_time"":498.40000009536743},{""page_index"":2,""viewing_time"":242.09999990463257},{""page_index"":3,""viewing_time"":136.79999995231628},{""page_index"":4,""viewing_time"":145.29999995231628},{""page_index"":5,""viewing_time"":148.80000019073486},{""page_index"":6,""viewing_time"":160.19999980926514},{""page_index"":7,""viewing_time"":355.60000014305115},{""page_index"":8,""viewing_time"":161.59999990463257},{""page_index"":9,""viewing_time"":144.70000004768372},{""page_index"":10,""viewing_time"":178.40000009536743},{""page_index"":11,""viewing_time"":234.39999985694885}]","4059.2999999523163","","","","","","","","","","","","","","","","","","","","","","",""
"pit-trial","2","8597","0.0-1.0-1.0-0.0","battery-v0.2","","-1","&#9776;","elianto","#3366ff99","32","-1","0","0","","0","0","1","4ee95e0e8737a0304baac70a&order=1&STUDY_ID=61caf85b4892b889f6411591","999","","","","","","","","","",""
"pit-trial","3","13108","0.0-1.0-1.0-1.0","battery-v0.2","","-1","&#9776;","elianto","#3366ff99","32","-1","0","0","","0","0","1","4ee95e0e8737a0304baac70a&order=1&STUDY_ID=61caf85b4892b889f6411591","999","","","","","","","","","",""
"pit-trial","4","17612","0.0-1.0-1.0-2.0","battery-v0.2","","-1","&#9776;","elianto","#3366ff99","32","-1","0","0","","0","0","1","4ee95e0e8737a0304baac70a&order=1&STUDY_ID=61caf85b4892b889f6411591","999","","","","","","","","","",""
"pit-trial","5","20936","0.0-1.0-1.0-3.0","battery-v0.2","","819.5","&#9776;","elianto","#3366ff99","32","32","1","0","1319.7999999523163","1","0","1","4ee95e0e8737a0304baac70a&order=1&STUDY_ID=61caf85b4892b889f6411591","999","","","","","","","","","",""
"pit-trial","6","23845","0.0-1.0-1.0-4.0","battery-v0.2","","401.90000009536743","&#9776;","elianto","#3366ff99","32","32","1","+10","902.2999999523163","1","0","1","4ee95e0e8737a0304baac70a&order=1&STUDY_ID=61caf85b4892b889f6411591","999","","","","","","","","","",""
"pit-trial","7","28354","0.0-1.0-1.1-0.1","battery-v0.2","","-1","&#9776;","elianto","#3366ff99","32","-1","0","0","","0","0","1","4ee95e0e8737a0304baac70a&order=1&STUDY_ID=61caf85b4892b889f6411591","999","","","","","","","","","",""
"pit-trial","8","32863","0.0-1.0-1.1-1.1","battery-v0.2","","-1","&#9776;","elianto","#3366ff99","32","-1","0","0","","0","0","1","4ee95e0e8737a0304baac70a&order=1&STUDY_ID=61caf85b4892b889f6411591","999","","","","","","","","","",""
"pit-trial","9","37372","0.0-1.0-1.1-2.1","battery-v0.2","","-1","&#9776;","elianto","#3366ff99","32","-1","0","0","","0","0","1","4ee95e0e8737a0304baac70a&order=1&STUDY_ID=61caf85b4892b889f6411591","999","","","","","","","","","",""
"pit-trial","10","41880","0.0-1.0-1.1-3.1","battery-v0.2","","-1","&#9776;","elianto","#3366ff99","32","-1","0","+10","","0","0","1","4ee95e0e8737a0304baac70a&order=1&STUDY_ID=61caf85b4892b889f6411591","999","","","","","","","","","",""
"pit-trial","11","46392","0.0-1.0-1.1-4.1","battery-v0.2","","-1","&#9776;","elianto","#3366ff99","32","-1","0","0","","0","0","1","4ee95e0e8737a0304baac70a&order=1&STUDY_ID=61caf85b4892b889f6411591","999","","","","","","","","","",""
"pit-trial","12","50900","0.0-1.0-1.2-0.2","battery-v0.2","","-1","&#9776;","elianto","#3366ff99","32","-1","0","0","","0","0","1","4ee95e0e8737a0304baac70a&order=1&STUDY_ID=61caf85b4892b889f6411591","999","","","","","","","","","",""
"pit-trial","13","55409","0.0-1.0-1.2-1.2","battery-v0.2","","-1","&#9776;","elianto","#3366ff99","32","-1","0","0","","0","0","1","4ee95e0e8737a0304baac70a&order=1&STUDY_ID=61caf85b4892b889f6411591","999","","","","","","","","","",""
"pit-trial","14","59916","0.0-1.0-1.2-2.2","battery-v0.2","","-1","&#9776;","elianto","#3366ff99","32","-1","0","0","","0","0","1","4ee95e0e8737a0304baac70a&order=1&STUDY_ID=61caf85b4892b889f6411591","999","","","","","","","","","",""
"pit-trial","15","64429","0.0-1.0-1.2-3.2","battery-v0.2","","-1","&#9776;","elianto","#3366ff99","32","-1","0","+10","","0","0","1","4ee95e0e8737a0304baac70a&order=1&STUDY_ID=61caf85b4892b889f6411591","999","","","","","","","","","",""
"pit-trial","16","68937","0.0-1.0-1.2-4.2","battery-v0.2","","-1","&#9776;","elianto","#3366ff99","32","-1","0","0","","0","0","1","4ee95e0e8737a0304baac70a&order=1&STUDY_ID=61caf85b4892b889f6411591","999","","","","","","","","","",""
"pit-trial","17","73444","0.0-1.0-1.3-0.3","battery-v0.2","","-1","&#9776;","elianto","#3366ff99","32","-1","0","0","","0","0","1","4ee95e0e8737a0304baac70a&order=1&STUDY_ID=61caf85b4892b889f6411591","999","","","","","","","","","",""
"pit-trial","18","77952","0.0-1.0-1.3-1.3","battery-v0.2","","-1","&#9776;","elianto","#3366ff99","32","-1","0","0","","0","0","1","4ee95e0e8737a0304baac70a&order=1&STUDY_ID=61caf85b4892b889f6411591","999","","","","","","","","","",""
"pit-trial","19","82461","0.0-1.0-1.3-2.3","battery-v0.2","","-1","&#9776;","elianto","#3366ff99","32","-1","0","0","","0","0","1","4ee95e0e8737a0304baac70a&order=1&STUDY_ID=61caf85b4892b889f6411591","999","","","","","","","","","",""
"pit-trial","20","86969","0.0-1.0-1.3-3.3","battery-v0.2","","-1","&#9776;","elianto","#3366ff99","32","-1","0","+10","","0","0","1","4ee95e0e8737a0304baac70a&order=1&STUDY_ID=61caf85b4892b889f6411591","999","","","","","","","","","",""
"pit-trial","21","91480","0.0-1.0-1.3-4.3","battery-v0.2","","-1","&#9776;","elianto","#3366ff99","32","-1","0","0","","0","0","1","4ee95e0e8737a0304baac70a&order=1&STUDY_ID=61caf85b4892b889f6411591","999","","","","","","","","","",""
"pit-trial","22","96507","0.0-1.0-1.4-0.4","battery-v0.2","","-1","&#9776;","elianto","#3366ff99","32","-1","0","0","","0","0","1","4ee95e0e8737a0304baac70a&order=1&STUDY_ID=61caf85b4892b889f6411591","999","","","","","","","","","",""
"pit-trial","23","101016","0.0-1.0-1.4-1.4","battery-v0.2","","-1","&#9776;","elianto","#3366ff99","32","-1","0","0","","0","0","1","4ee95e0e8737a0304baac70a&order=1&STUDY_ID=61caf85b4892b889f6411591","999","","","","","","","","","",""
"pit-trial","24","106514","0.0-1.0-1.4-2.4","battery-v0.2","","-1","&#9776;","elianto","#3366ff99","32","-1","0","0","","0","0","1","4ee95e0e8737a0304baac70a&order=1&STUDY_ID=61caf85b4892b889f6411591","999","","","","","","","","","",""
"pit-trial","25","111505","0.0-1.0-1.4-3.4","battery-v0.2","","-1","&#9776;","elianto","#3366ff99","32","-1","0","+10","","0","0","1","4ee95e0e8737a0304baac70a&order=1&STUDY_ID=61caf85b4892b889f6411591","999","","","","","","","","","",""
"pit-trial","26","116016","0.0-1.0-1.4-4.4","battery-v0.2","","-1","&#9776;","elianto","#3366ff99","32","-1","0","0","","0","0","1","4ee95e0e8737a0304baac70a&order=1&STUDY_ID=61caf85b4892b889f6411591","999","","","","","","","","","",""
"pit-trial","27","120525","0.0-1.0-1.5-0.5","battery-v0.2","","-1","&#9776;","elianto","#3366ff99","32","-1","0","0","","0","0","1","4ee95e0e8737a0304baac70a&order=1&STUDY_ID=61caf85b4892b889f6411591","999","","","","","","","","","",""
"pit-trial","28","125033","0.0-1.0-1.5-1.5","battery-v0.2","","-1","&#9776;","elianto","#3366ff99","32","-1","0","0","","0","0","1","4ee95e0e8737a0304baac70a&order=1&STUDY_ID=61caf85b4892b889f6411591","999","","","","","","","","","",""
"pit-trial","29","129541","0.0-1.0-1.5-2.5","battery-v0.2","","-1","&#9776;","elianto","#3366ff99","32","-1","0","0","","0","0","1","4ee95e0e8737a0304baac70a&order=1&STUDY_ID=61caf85b4892b889f6411591","999","","","","","","","","","",""
"pit-trial","30","134044","0.0-1.0-1.5-3.5","battery-v0.2","","-1","&#9776;","elianto","#3366ff99","32","-1","0","+10","","0","0","1","4ee95e0e8737a0304baac70a&order=1&STUDY_ID=61caf85b4892b889f6411591","999","","","","","","","","","",""
"pit-trial","31","138547","0.0-1.0-1.5-4.5","battery-v0.2","","-1","&#9776;","elianto","#3366ff99","32","-1","0","0","","0","0","1","4ee95e0e8737a0304baac70a&order=1&STUDY_ID=61caf85b4892b889f6411591","999","","","","","","","","","",""
"pit-trial","32","143055","0.0-1.0-1.6-0.6","battery-v0.2","","-1","&#9776;","elianto","#3366ff99","32","-1","0","0","","0","0","1","4ee95e0e8737a0304baac70a&order=1&STUDY_ID=61caf85b4892b889f6411591","999","","","","","","","","","",""
"pit-trial","33","147564","0.0-1.0-1.6-1.6","battery-v0.2","","-1","&#9776;","elianto","#3366ff99","32","-1","0","0","","0","0","1","4ee95e0e8737a0304baac70a&order=1&STUDY_ID=61caf85b4892b889f6411591","999","","","","","","","","","",""
"pit-trial","34","152071","0.0-1.0-1.6-2.6","battery-v0.2","","-1","&#9776;","elianto","#3366ff99","32","-1","0","0","","0","0","1","4ee95e0e8737a0304baac70a&order=1&STUDY_ID=61caf85b4892b889f6411591","999","","","","","","","","","",""
"pit-trial","35","156576","0.0-1.0-1.6-3.6","battery-v0.2","","-1","&#9776;","elianto","#3366ff99","32","-1","0","+10","","0","0","1","4ee95e0e8737a0304baac70a&order=1&STUDY_ID=61caf85b4892b889f6411591","999","","","","","","","","","",""
"pit-trial","36","161085","0.0-1.0-1.6-4.6","battery-v0.2","","-1","&#9776;","elianto","#3366ff99","32","-1","0","0","","0","0","1","4ee95e0e8737a0304baac70a&order=1&STUDY_ID=61caf85b4892b889f6411591","999","","","","","","","","","",""
"pit-trial","37","165591","0.0-1.0-1.7-0.7","battery-v0.2","","-1","&#9776;","elianto","#3366ff99","32","-1","0","0","","0","0","1","4ee95e0e8737a0304baac70a&order=1&STUDY_ID=61caf85b4892b889f6411591","999","","","","","","","","","",""
"pit-trial","38","170097","0.0-1.0-1.7-1.7","battery-v0.2","","-1","&#9776;","elianto","#3366ff99","32","-1","0","0","","0","0","1","4ee95e0e8737a0304baac70a&order=1&STUDY_ID=61caf85b4892b889f6411591","999","","","","","","","","","",""
"pit-trial","39","174605","0.0-1.0-1.7-2.7","battery-v0.2","","-1","&#9776;","elianto","#3366ff99","32","-1","0","0","","0","0","1","4ee95e0e8737a0304baac70a&order=1&STUDY_ID=61caf85b4892b889f6411591","999","","","","","","","","","",""
"pit-trial","40","179111","0.0-1.0-1.7-3.7","battery-v0.2","","-1","&#9776;","elianto","#3366ff99","32","-1","0","+10","","0","0","1","4ee95e0e8737a0304baac70a&order=1&STUDY_ID=61caf85b4892b889f6411591","999","","","","","","","","","",""
"pit-trial","41","183619","0.0-1.0-1.7-4.7","battery-v0.2","","-1","&#9776;","elianto","#3366ff99","32","-1","0","0","","0","0","1","4ee95e0e8737a0304baac70a&order=1&STUDY_ID=61caf85b4892b889f6411591","999","","","","","","","","","",""
"pit-trial","42","188126","0.0-1.0-1.8-0.8","battery-v0.2","","-1","&#9776;","elianto","#3366ff99","32","-1","0","0","","0","0","1","4ee95e0e8737a0304baac70a&order=1&STUDY_ID=61caf85b4892b889f6411591","999","","","","","","","","","",""
"pit-trial","43","192633","0.0-1.0-1.8-1.8","battery-v0.2","","-1","&#9776;","elianto","#3366ff99","32","-1","0","0","","0","0","1","4ee95e0e8737a0304baac70a&order=1&STUDY_ID=61caf85b4892b889f6411591","999","","","","","","","","","",""
"pit-trial","44","197139","0.0-1.0-1.8-2.8","battery-v0.2","","-1","&#9776;","elianto","#3366ff99","32","-1","0","0","","0","0","1","4ee95e0e8737a0304baac70a&order=1&STUDY_ID=61caf85b4892b889f6411591","999","","","","","","","","","",""
"pit-trial","45","201646","0.0-1.0-1.8-3.8","battery-v0.2","","-1","&#9776;","elianto","#3366ff99","32","-1","0","+10","","0","0","1","4ee95e0e8737a0304baac70a&order=1&STUDY_ID=61caf85b4892b889f6411591","999","","","","","","","","","",""
"pit-trial","46","206153","0.0-1.0-1.8-4.8","battery-v0.2","","-1","&#9776;","elianto","#3366ff99","32","-1","0","0","","0","0","1","4ee95e0e8737a0304baac70a&order=1&STUDY_ID=61caf85b4892b889f6411591","999","","","","","","","","","",""
"pit-trial","47","210661","0.0-1.0-1.9-0.9","battery-v0.2","","-1","&#9776;","elianto","#3366ff99","32","-1","0","0","","0","0","1","4ee95e0e8737a0304baac70a&order=1&STUDY_ID=61caf85b4892b889f6411591","999","","","","","","","","","",""
"pit-trial","48","215169","0.0-1.0-1.9-1.9","battery-v0.2","","-1","&#9776;","elianto","#3366ff99","32","-1","0","0","","0","0","1","4ee95e0e8737a0304baac70a&order=1&STUDY_ID=61caf85b4892b889f6411591","999","","","","","","","","","",""
"pit-trial","49","219672","0.0-1.0-1.9-2.9","battery-v0.2","","-1","&#9776;","elianto","#3366ff99","32","-1","0","0","","0","0","1","4ee95e0e8737a0304baac70a&order=1&STUDY_ID=61caf85b4892b889f6411591","999","","","","","","","","","",""
"pit-trial","50","224212","0.0-1.0-1.9-3.9","battery-v0.2","","-1","&#9776;","elianto","#3366ff99","32","-1","0","+10","","0","0","1","4ee95e0e8737a0304baac70a&order=1&STUDY_ID=61caf85b4892b889f6411591","999","","","","","","","","","",""
"pit-trial","51","228715","0.0-1.0-1.9-4.9","battery-v0.2","","-1","&#9776;","elianto","#3366ff99","32","-1","0","0","","0","0","1","4ee95e0e8737a0304baac70a&order=1&STUDY_ID=61caf85b4892b889f6411591","999","","","","","","","","","",""
"pit-trial","52","233234","0.0-1.0-1.10-0.10","battery-v0.2","","-1","&#9776;","elianto","#3366ff99","32","-1","0","0","","0","0","1","4ee95e0e8737a0304baac70a&order=1&STUDY_ID=61caf85b4892b889f6411591","999","","","","","","","","","",""
"pit-trial","53","237737","0.0-1.0-1.10-1.10","battery-v0.2","","-1","&#9776;","elianto","#3366ff99","32","-1","0","0","","0","0","1","4ee95e0e8737a0304baac70a&order=1&STUDY_ID=61caf85b4892b889f6411591","999","","","","","","","","","",""
"pit-trial","54","242242","0.0-1.0-1.10-2.10","battery-v0.2","","-1","&#9776;","elianto","#3366ff99","32","-1","0","0","","0","0","1","4ee95e0e8737a0304baac70a&order=1&STUDY_ID=61caf85b4892b889f6411591","999","","","","","","","","","",""
"pit-trial","55","246748","0.0-1.0-1.10-3.10","battery-v0.2","","-1","&#9776;","elianto","#3366ff99","32","-1","0","+10","","0","0","1","4ee95e0e8737a0304baac70a&order=1&STUDY_ID=61caf85b4892b889f6411591","999","","","","","","","","","",""
"pit-trial","56","251253","0.0-1.0-1.10-4.10","battery-v0.2","","-1","&#9776;","elianto","#3366ff99","32","-1","0","0","","0","0","1","4ee95e0e8737a0304baac70a&order=1&STUDY_ID=61caf85b4892b889f6411591","999","","","","","","","","","",""
"pit-trial","57","255758","0.0-1.0-1.11-0.11","battery-v0.2","","-1","&#9776;","elianto","#3366ff99","32","-1","0","0","","0","0","1","4ee95e0e8737a0304baac70a&order=1&STUDY_ID=61caf85b4892b889f6411591","999","","","","","","","","","",""
"pit-trial","58","260265","0.0-1.0-1.11-1.11","battery-v0.2","","-1","&#9776;","elianto","#3366ff99","32","-1","0","0","","0","0","1","4ee95e0e8737a0304baac70a&order=1&STUDY_ID=61caf85b4892b889f6411591","999","","","","","","","","","",""
"pit-trial","59","264772","0.0-1.0-1.11-2.11","battery-v0.2","","-1","&#9776;","elianto","#3366ff99","32","-1","0","0","","0","0","1","4ee95e0e8737a0304baac70a&order=1&STUDY_ID=61caf85b4892b889f6411591","999","","","","","","","","","",""
"pit-trial","60","269282","0.0-1.0-1.11-3.11","battery-v0.2","","-1","&#9776;","elianto","#3366ff99","32","-1","0","+10","","0","0","1","4ee95e0e8737a0304baac70a&order=1&STUDY_ID=61caf85b4892b889f6411591","999","","","","","","","","","",""
"pit-trial","61","273794","0.0-1.0-1.11-4.11","battery-v0.2","","-1","&#9776;","elianto","#3366ff99","32","-1","0","0","","0","0","1","4ee95e0e8737a0304baac70a&order=1&STUDY_ID=61caf85b4892b889f6411591","999","","","","","","","","","",""
"pit-trial","62","278301","0.0-1.0-1.12-0.12","battery-v0.2","","-1","&#9776;","elianto","#3366ff99","32","-1","0","0","","0","0","1","4ee95e0e8737a0304baac70a&order=1&STUDY_ID=61caf85b4892b889f6411591","999","","","","","","","","","",""
"pit-trial","63","282809","0.0-1.0-1.12-1.12","battery-v0.2","","-1","&#9776;","elianto","#3366ff99","32","-1","0","0","","0","0","1","4ee95e0e8737a0304baac70a&order=1&STUDY_ID=61caf85b4892b889f6411591","999","","","","","","","","","",""
"pit-trial","64","287314","0.0-1.0-1.12-2.12","battery-v0.2","","-1","&#9776;","elianto","#3366ff99","32","-1","0","0","","0","0","1","4ee95e0e8737a0304baac70a&order=1&STUDY_ID=61caf85b4892b889f6411591","999","","","","","","","","","",""
"pit-trial","65","291820","0.0-1.0-1.12-3.12","battery-v0.2","","-1","&#9776;","elianto","#3366ff99","32","-1","0","+10","","0","0","1","4ee95e0e8737a0304baac70a&order=1&STUDY_ID=61caf85b4892b889f6411591","999","","","","","","","","","",""
"pit-trial","66","296329","0.0-1.0-1.12-4.12","battery-v0.2","","-1","&#9776;","elianto","#3366ff99","32","-1","0","0","","0","0","1","4ee95e0e8737a0304baac70a&order=1&STUDY_ID=61caf85b4892b889f6411591","999","","","","","","","","","",""
"pit-trial","67","300838","0.0-1.0-1.13-0.13","battery-v0.2","","-1","&#9776;","elianto","#3366ff99","32","-1","0","0","","0","0","1","4ee95e0e8737a0304baac70a&order=1&STUDY_ID=61caf85b4892b889f6411591","999","","","","","","","","","",""
"pit-trial","68","305347","0.0-1.0-1.13-1.13","battery-v0.2","","-1","&#9776;","elianto","#3366ff99","32","-1","0","0","","0","0","1","4ee95e0e8737a0304baac70a&order=1&STUDY_ID=61caf85b4892b889f6411591","999","","","","","","","","","",""
"pit-trial","69","309854","0.0-1.0-1.13-2.13","battery-v0.2","","-1","&#9776;","elianto","#3366ff99","32","-1","0","0","","0","0","1","4ee95e0e8737a0304baac70a&order=1&STUDY_ID=61caf85b4892b889f6411591","999","","","","","","","","","",""
"pit-trial","70","314362","0.0-1.0-1.13-3.13","battery-v0.2","","-1","&#9776;","elianto","#3366ff99","32","-1","0","+10","","0","0","1","4ee95e0e8737a0304baac70a&order=1&STUDY_ID=61caf85b4892b889f6411591","999","","","","","","","","","",""
"pit-trial","71","318870","0.0-1.0-1.13-4.13","battery-v0.2","","-1","&#9776;","elianto","#3366ff99","32","-1","0","0","","0","0","1","4ee95e0e8737a0304baac70a&order=1&STUDY_ID=61caf85b4892b889f6411591","999","","","","","","","","","",""
"pit-trial","72","323373","0.0-1.0-1.14-0.14","battery-v0.2","","-1","&#9776;","elianto","#3366ff99","32","-1","0","0","","0","0","1","4ee95e0e8737a0304baac70a&order=1&STUDY_ID=61caf85b4892b889f6411591","999","","","","","","","","","",""
"pit-trial","73","327877","0.0-1.0-1.14-1.14","battery-v0.2","","-1","&#9776;","elianto","#3366ff99","32","-1","0","0","","0","0","1","4ee95e0e8737a0304baac70a&order=1&STUDY_ID=61caf85b4892b889f6411591","999","","","","","","","","","",""
"pit-trial","74","332383","0.0-1.0-1.14-2.14","battery-v0.2","","-1","&#9776;","elianto","#3366ff99","32","-1","0","0","","0","0","1","4ee95e0e8737a0304baac70a&order=1&STUDY_ID=61caf85b4892b889f6411591","999","","","","","","","","","",""
"pit-trial","75","336893","0.0-1.0-1.14-3.14","battery-v0.2","","-1","&#9776;","elianto","#3366ff99","32","-1","0","+10","","0","0","1","4ee95e0e8737a0304baac70a&order=1&STUDY_ID=61caf85b4892b889f6411591","999","","","","","","","","","",""
"pit-trial","76","341403","0.0-1.0-1.14-4.14","battery-v0.2","","-1","&#9776;","elianto","#3366ff99","32","-1","0","0","","0","0","1","4ee95e0e8737a0304baac70a&order=1&STUDY_ID=61caf85b4892b889f6411591","999","","","","","","","","","",""
"pit-trial","77","345907","0.0-1.0-1.15-0.15","battery-v0.2","","-1","&#9776;","elianto","#3366ff99","32","-1","0","0","","0","0","1","4ee95e0e8737a0304baac70a&order=1&STUDY_ID=61caf85b4892b889f6411591","999","","","","","","","","","",""
"pit-trial","78","350414","0.0-1.0-1.15-1.15","battery-v0.2","","-1","&#9776;","elianto","#3366ff99","32","-1","0","0","","0","0","1","4ee95e0e8737a0304baac70a&order=1&STUDY_ID=61caf85b4892b889f6411591","999","","","","","","","","","",""
"pit-trial","79","354921","0.0-1.0-1.15-2.15","battery-v0.2","","-1","&#9776;","elianto","#3366ff99","32","-1","0","0","","0","0","1","4ee95e0e8737a0304baac70a&order=1&STUDY_ID=61caf85b4892b889f6411591","999","","","","","","","","","",""
"pit-trial","80","359432","0.0-1.0-1.15-3.15","battery-v0.2","","-1","&#9776;","elianto","#3366ff99","32","-1","0","+10","","0","0","1","4ee95e0e8737a0304baac70a&order=1&STUDY_ID=61caf85b4892b889f6411591","999","","","","","","","","","",""
"pit-trial","81","363937","0.0-1.0-1.15-4.15","battery-v0.2","","-1","&#9776;","elianto","#3366ff99","32","-1","0","0","","0","0","1","4ee95e0e8737a0304baac70a&order=1&STUDY_ID=61caf85b4892b889f6411591","999","","","","","","","","","",""
"pit-trial","82","367292","0.0-1.0-1.16-0.16","battery-v0.2","","852.2000000476837","&#9776;","elianto","#3366ff99","32","32","1","+10","1352.7000000476837","1","0","1","4ee95e0e8737a0304baac70a&order=1&STUDY_ID=61caf85b4892b889f6411591","999","","","","","","","","","",""
"pit-trial","83","370133","0.0-1.0-1.16-1.16","battery-v0.2","","333.5","&#9776;","elianto","#3366ff99","32","32","1","+10","835.5","1","0","1","4ee95e0e8737a0304baac70a&order=1&STUDY_ID=61caf85b4892b889f6411591","999","","","","","","","","","",""
"pit-trial","84","373026","0.0-1.0-1.16-2.16","battery-v0.2","","387.90000009536743","&#9776;","elianto","#3366ff99","32","32","1","+10","888.1000001430511","1","0","1","4ee95e0e8737a0304baac70a&order=1&STUDY_ID=61caf85b4892b889f6411591","999","","","","","","","","","",""
"pit-trial","85","375889","0.0-1.0-1.16-3.16","battery-v0.2","","360.09999990463257","&#9776;","elianto","#3366ff99","32","32","1","0","860.7000000476837","1","0","1","4ee95e0e8737a0304baac70a&order=1&STUDY_ID=61caf85b4892b889f6411591","999","","","","","","","","","",""
"pit-trial","86","378594","0.0-1.0-1.16-4.16","battery-v0.2","","201.10000014305115","&#9776;","elianto","#3366ff99","32","32","1","+10","701.2999999523163","1","0","1","4ee95e0e8737a0304baac70a&order=1&STUDY_ID=61caf85b4892b889f6411591","999","","","","","","","","","",""
"call-function","87","378596","0.0-1.0-2.0","battery-v0.2","","","","","","","","","","","","","","","","","","","","","","","","",""
"pit-instructions","88","395569","0.0-1.0-3.0","battery-v0.2","[{""page_index"":0,""viewing_time"":14520.799999952316},{""page_index"":1,""viewing_time"":986.5999999046326},{""page_index"":2,""viewing_time"":323.2000000476837},{""page_index"":3,""viewing_time"":468.60000014305115},{""page_index"":4,""viewing_time"":494.39999985694885},{""page_index"":5,""viewing_time"":178.29999995231628}]","16972.200000047684","","","","","","","","","","","","","","","","","","","","","","",""
"pit-trial","89","398462","0.0-1.0-4.0-0.0","battery-v0.2","","387.7000000476837","&#9761;","elianto","#3366ff99","-1","32","0","0","888","1","0","2","4ee95e0e8737a0304baac70a&order=1&STUDY_ID=61caf85b4892b889f6411591","999","","","","","","","","","",""
"pit-trial","90","402044","0.0-1.0-4.0-1.0","battery-v0.2","","1077.7000000476837","&#9761;","elianto","#3366ff99","-1","32","0","0","492.40000009536743,1578","2","0","2","4ee95e0e8737a0304baac70a&order=1&STUDY_ID=61caf85b4892b889f6411591","999","","","","","","","","","",""
"pit-trial","91","404733","0.0-1.0-4.0-2.0","battery-v0.2","","183.5","&#9761;","elianto","#3366ff99","-1","32","0","0","366.59999990463257,683.7000000476837","2","0","2","4ee95e0e8737a0304baac70a&order=1&STUDY_ID=61caf85b4892b889f6411591","999","","","","","","","","","",""
"pit-trial","92","407473","0.0-1.0-4.0-3.0","battery-v0.2","","232.40000009536743","&#9761;","elianto","#3366ff99","-1","32","0","0","733.6000001430511","1","0","2","4ee95e0e8737a0304baac70a&order=1&STUDY_ID=61caf85b4892b889f6411591","999","","","","","","","","","",""
"pit-trial","93","410289","0.0-1.0-4.0-4.0","battery-v0.2","","313.09999990463257","&#9761;","elianto","#3366ff99","-1","32","0","+10","813.2000000476837","1","0","2","4ee95e0e8737a0304baac70a&order=1&STUDY_ID=61caf85b4892b889f6411591","999","","","","","","","","","",""
"pit-trial","94","414795","0.0-1.0-4.1-0.1","battery-v0.2","","-1","&#9761;","elianto","#3366ff99","-1","-1","1","+10","","0","0","2","4ee95e0e8737a0304baac70a&order=1&STUDY_ID=61caf85b4892b889f6411591","999","","","","","","","","","",""
"pit-trial","95","419301","0.0-1.0-4.1-1.1","battery-v0.2","","-1","&#9761;","elianto","#3366ff99","-1","-1","1","+10","","0","0","2","4ee95e0e8737a0304baac70a&order=1&STUDY_ID=61caf85b4892b889f6411591","999","","","","","","","","","",""
"pit-trial","96","423810","0.0-1.0-4.1-2.1","battery-v0.2","","-1","&#9761;","elianto","#3366ff99","-1","-1","1","+10","","0","0","2","4ee95e0e8737a0304baac70a&order=1&STUDY_ID=61caf85b4892b889f6411591","999","","","","","","","","","",""
"pit-trial","97","428318","0.0-1.0-4.1-3.1","battery-v0.2","","-1","&#9761;","elianto","#3366ff99","-1","-1","1","+10","","0","0","2","4ee95e0e8737a0304baac70a&order=1&STUDY_ID=61caf85b4892b889f6411591","999","","","","","","","","","",""
"pit-trial","98","432827","0.0-1.0-4.1-4.1","battery-v0.2","","-1","&#9761;","elianto","#3366ff99","-1","-1","1","0","482","1","0","2","4ee95e0e8737a0304baac70a&order=1&STUDY_ID=61caf85b4892b889f6411591","999","","","","","","","","","",""
"call-function","99","432828","0.0-1.0-5.0","battery-v0.2","","","","","","","","","","","","","","","","","","","","","","","","",""
"pit-instructions","100","440177","0.0-1.0-6.0","battery-v0.2","[{""page_index"":0,""viewing_time"":4368.5},{""page_index"":1,""viewing_time"":1867.0999999046326},{""page_index"":2,""viewing_time"":593.9000000953674},{""page_index"":3,""viewing_time"":323.89999985694885},{""page_index"":4,""viewing_time"":194.20000004768372}]","7348","","","","","","","","","","","","","","","","","","","","","","",""
"pit-trial","101","444686","0.0-1.0-7.0-0.0","battery-v0.2","","-1","&#9826;","elianto","#f73b6a7A","-1","-1","1","0","","0","0","3","4ee95e0e8737a0304baac70a&order=1&STUDY_ID=61caf85b4892b889f6411591","999","","","","","","","","","",""
"pit-trial","102","449195","0.0-1.0-7.0-1.0","battery-v0.2","","-1","&#9826;","elianto","#f73b6a7A","-1","-1","1","0","","0","0","3","4ee95e0e8737a0304baac70a&order=1&STUDY_ID=61caf85b4892b889f6411591","999","","","","","","","","","",""
"pit-trial","103","453703","0.0-1.0-7.0-2.0","battery-v0.2","","-1","&#9826;","elianto","#f73b6a7A","-1","-1","1","-10","","0","0","3","4ee95e0e8737a0304baac70a&order=1&STUDY_ID=61caf85b4892b889f6411591","999","","","","","","","","","",""
"pit-trial","104","458212","0.0-1.0-7.0-3.0","battery-v0.2","","-1","&#9826;","elianto","#f73b6a7A","-1","-1","1","0","","0","0","3","4ee95e0e8737a0304baac70a&order=1&STUDY_ID=61caf85b4892b889f6411591","999","","","","","","","","","",""
"pit-trial","105","461767","0.0-1.0-7.0-4.0","battery-v0.2","","1049.2000000476837","&#9826;","elianto","#f73b6a7A","-1","32","0","-10","1549.8999998569489","1","0","3","4ee95e0e8737a0304baac70a&order=1&STUDY_ID=61caf85b4892b889f6411591","999","","","","","","","","","",""
"pit-trial","106","465243","0.0-1.0-7.1-0.1","battery-v0.2","","973.5","&#9826;","elianto","#f73b6a7A","-1","32","0","-10","1474.3000001907349","1","0","3","4ee95e0e8737a0304baac70a&order=1&STUDY_ID=61caf85b4892b889f6411591","999","","","","","","","","","",""
"pit-trial","107","468115","0.0-1.0-7.1-1.1","battery-v0.2","","364.7999999523163","&#9826;","elianto","#f73b6a7A","-1","32","0","-10","865","1","0","3","4ee95e0e8737a0304baac70a&order=1&STUDY_ID=61caf85b4892b889f6411591","999","","","","","","","","","",""
"pit-trial","108","472621","0.0-1.0-7.1-2.1","battery-v0.2","","-1","&#9826;","elianto","#f73b6a7A","-1","-1","1","-10","","0","0","3","4ee95e0e8737a0304baac70a&order=1&STUDY_ID=61caf85b4892b889f6411591","999","","","","","","","","","",""
"pit-trial","109","475471","0.0-1.0-7.1-3.1","battery-v0.2","","342.10000014305115","&#9826;","elianto","#f73b6a7A","-1","32","0","-10","843.1000001430511","1","0","3","4ee95e0e8737a0304baac70a&order=1&STUDY_ID=61caf85b4892b889f6411591","999","","","","","","","","","",""
"pit-trial","110","479260","0.0-1.0-7.1-4.1","battery-v0.2","","1283.0999999046326","&#9826;","elianto","#f73b6a7A","-1","32","0","-10","1783.1999998092651","1","0","3","4ee95e0e8737a0304baac70a&order=1&STUDY_ID=61caf85b4892b889f6411591","999","","","","","","","","","",""
"pit-trial","111","482039","0.0-1.0-7.2-0.2","battery-v0.2","","273.30000019073486","&#9826;","elianto","#f73b6a7A","-1","32","0","-10","773.5","1","0","3","4ee95e0e8737a0304baac70a&order=1&STUDY_ID=61caf85b4892b889f6411591","999","","","","","","","","","",""
"pit-trial","112","484840","0.0-1.0-7.2-1.2","battery-v0.2","","294.39999985694885","&#9826;","elianto","#f73b6a7A","-1","32","0","-10","795.2999999523163","1","0","3","4ee95e0e8737a0304baac70a&order=1&STUDY_ID=61caf85b4892b889f6411591","999","","","","","","","","","",""
"pit-trial","113","487469","0.0-1.0-7.2-2.2","battery-v0.2","","126.29999995231628","&#9826;","elianto","#f73b6a7A","-1","32","0","0","626.4000000953674","1","0","3","4ee95e0e8737a0304baac70a&order=1&STUDY_ID=61caf85b4892b889f6411591","999","","","","","","","","","",""
"pit-trial","114","490317","0.0-1.0-7.2-3.2","battery-v0.2","","344.40000009536743","&#9826;","elianto","#f73b6a7A","-1","32","0","-10","845.1000001430511","1","0","3","4ee95e0e8737a0304baac70a&order=1&STUDY_ID=61caf85b4892b889f6411591","999","","","","","","","","","",""
"pit-trial","115","494827","0.0-1.0-7.2-4.2","battery-v0.2","","-1","&#9826;","elianto","#f73b6a7A","-1","-1","1","0","","0","0","3","4ee95e0e8737a0304baac70a&order=1&STUDY_ID=61caf85b4892b889f6411591","999","","","","","","","","","",""
"pit-trial","116","498294","0.0-1.0-7.3-0.3","battery-v0.2","","960.3999998569489","&#9826;","elianto","#f73b6a7A","-1","32","0","-10","1460.8999998569489","1","0","3","4ee95e0e8737a0304baac70a&order=1&STUDY_ID=61caf85b4892b889f6411591","999","","","","","","","","","",""
"pit-trial","117","502799","0.0-1.0-7.3-1.3","battery-v0.2","","-1","&#9826;","elianto","#f73b6a7A","-1","-1","1","0","","0","0","3","4ee95e0e8737a0304baac70a&order=1&STUDY_ID=61caf85b4892b889f6411591","999","","","","","","","","","",""
"pit-trial","118","507304","0.0-1.0-7.3-2.3","battery-v0.2","","-1","&#9826;","elianto","#f73b6a7A","-1","-1","1","-10","","0","0","3","4ee95e0e8737a0304baac70a&order=1&STUDY_ID=61caf85b4892b889f6411591","999","","","","","","","","","",""
"pit-trial","119","511812","0.0-1.0-7.3-3.3","battery-v0.2","","-1","&#9826;","elianto","#f73b6a7A","-1","-1","1","0","","0","0","3","4ee95e0e8737a0304baac70a&order=1&STUDY_ID=61caf85b4892b889f6411591","999","","","","","","","","","",""
"pit-trial","120","516319","0.0-1.0-7.3-4.3","battery-v0.2","","-1","&#9826;","elianto","#f73b6a7A","-1","-1","1","0","","0","0","3","4ee95e0e8737a0304baac70a&order=1&STUDY_ID=61caf85b4892b889f6411591","999","","","","","","","","","",""
"call-function","121","516321","0.0-1.0-8.0","battery-v0.2","","","","","","","","","","","","","","","","","","","","","","","","",""
"pit-instructions","122","520018","0.0-1.0-9.0","battery-v0.2","[{""page_index"":0,""viewing_time"":1292.2999999523163},{""page_index"":1,""viewing_time"":1867.9000000953674},{""page_index"":2,""viewing_time"":535.2999999523163}]","3696.0999999046326","","","","","","","","","","","","","","","","","","","","","","",""
"pit-trial","123","524525","0.0-1.0-10.0-0.0","battery-v0.2","","-1","&#9789;","elianto","#f73b6a7A","32","-1","0","-10","","0","0","4","4ee95e0e8737a0304baac70a&order=1&STUDY_ID=61caf85b4892b889f6411591","999","","","","","","","","","",""
"pit-trial","124","529034","0.0-1.0-10.0-1.0","battery-v0.2","","-1","&#9789;","elianto","#f73b6a7A","32","-1","0","-10","","0","0","4","4ee95e0e8737a0304baac70a&order=1&STUDY_ID=61caf85b4892b889f6411591","999","","","","","","","","","",""
"pit-trial","125","533541","0.0-1.0-10.0-2.0","battery-v0.2","","-1","&#9789;","elianto","#f73b6a7A","32","-1","0","-10","","0","0","4","4ee95e0e8737a0304baac70a&order=1&STUDY_ID=61caf85b4892b889f6411591","999","","","","","","","","","",""
"pit-trial","126","538049","0.0-1.0-10.0-3.0","battery-v0.2","","-1","&#9789;","elianto","#f73b6a7A","32","-1","0","-10","","0","0","4","4ee95e0e8737a0304baac70a&order=1&STUDY_ID=61caf85b4892b889f6411591","999","","","","","","","","","",""
"pit-trial","127","542552","0.0-1.0-10.0-4.0","battery-v0.2","","-1","&#9789;","elianto","#f73b6a7A","32","-1","0","0","","0","0","4","4ee95e0e8737a0304baac70a&order=1&STUDY_ID=61caf85b4892b889f6411591","999","","","","","","","","","",""
"pit-trial","128","547060","0.0-1.0-10.1-0.1","battery-v0.2","","-1","&#9789;","elianto","#f73b6a7A","32","-1","0","-10","","0","0","4","4ee95e0e8737a0304baac70a&order=1&STUDY_ID=61caf85b4892b889f6411591","999","","","","","","","","","",""
"pit-trial","129","550040","0.0-1.0-10.1-1.1","battery-v0.2","","474.09999990463257","&#9789;","elianto","#f73b6a7A","32","32","1","0","974.1999998092651","1","0","4","4ee95e0e8737a0304baac70a&order=1&STUDY_ID=61caf85b4892b889f6411591","999","","","","","","","","","",""
"pit-trial","130","553342","0.0-1.0-10.1-2.1","battery-v0.2","","797.5","&#9789;","elianto","#f73b6a7A","32","32","1","0","1297.7000000476837","1","0","4","4ee95e0e8737a0304baac70a&order=1&STUDY_ID=61caf85b4892b889f6411591","999","","","","","","","","","",""
"pit-trial","131","556272","0.0-1.0-10.1-3.1","battery-v0.2","","424.2000000476837","&#9789;","elianto","#f73b6a7A","32","32","1","0","924.4000000953674","1","0","4","4ee95e0e8737a0304baac70a&order=1&STUDY_ID=61caf85b4892b889f6411591","999","","","","","","","","","",""
"pit-trial","132","559879","0.0-1.0-10.1-4.1","battery-v0.2","","1103.6000001430511","&#9789;","elianto","#f73b6a7A","32","32","1","-10","1604.9000000953674","1","0","4","4ee95e0e8737a0304baac70a&order=1&STUDY_ID=61caf85b4892b889f6411591","999","","","","","","","","","",""
"call-function","133","559880","0.0-1.0-11.0","battery-v0.2","","","","","","","","","","","","","","","","","","","","","","","","",""
"pit-instructions","134","580196","0.0-1.0-12.0","battery-v0.2","[{""page_index"":0,""viewing_time"":14967.700000047684},{""page_index"":1,""viewing_time"":2466.7999999523163},{""page_index"":2,""viewing_time"":557.5},{""page_index"":3,""viewing_time"":1084.5999999046326},{""page_index"":4,""viewing_time"":751},{""page_index"":5,""viewing_time"":487.7000000476837}]","20316","","","","","","","","","","","","","","","","","","","","","","",""
"pit-comprehension","135","585712","0.0-1.0-13.0-0.0","battery-v0.2","","5510.799999952316","","","","","","","","","","","","","","","ENTER","1","","","","","","",""
"pit-instructions","136","587110","0.0-1.0-13.0-1.0","battery-v0.2","[{""page_index"":0,""viewing_time"":1360.7999999523163}]","1361.6999998092651","","","","","","","","","","","","","","","","","","","","","","",""
"pit-instructions","137","587901","0.0-1.0-13.0-2.0-0.0","battery-v0.2","[{""page_index"":0,""viewing_time"":789}]","789.2999999523163","","","","","","","","","","","","","","","","","","","","","","",""
"pit-comprehension","138","591645","0.0-1.0-13.1-0.1","battery-v0.2","","3742.899999856949","","","","","","","","","","","","","","","SPACE","0","","","","","","",""
"pit-instructions","139","592471","0.0-1.0-13.1-1.1","battery-v0.2","[{""page_index"":0,""viewing_time"":796.5999999046326}]","796.9000000953674","","","","","","","","","","","","","","","","","","","","","","",""
"pit-comprehension","140","597354","0.0-1.0-14.0-0.0","battery-v0.2","","4880.200000047684","","","","","","","","","","","","","","","10","0","","","","","","",""
"pit-instructions","141","598186","0.0-1.0-14.0-1.0","battery-v0.2","[{""page_index"":0,""viewing_time"":801.4000000953674}]","801.7000000476837","","","","","","","","","","","","","","","","","","","","","","",""
"pit-comprehension","142","600736","0.0-1.0-15.0-0.0","battery-v0.2","","2548","","","","","","","","","","","","","","","0","1","","","","","","",""
"pit-instructions","143","602224","0.0-1.0-15.0-1.0","battery-v0.2","[{""page_index"":0,""viewing_time"":1455.4000000953674}]","1456","","","","","","","","","","","","","","","","","","","","","","",""
"pit-instructions","144","602698","0.0-1.0-15.0-2.0-0.0","battery-v0.2","[{""page_index"":0,""viewing_time"":472.59999990463257}]","473","","","","","","","","","","","","","","","","","","","","","","",""
"pit-comprehension","145","604704","0.0-1.0-15.1-0.1","battery-v0.2","","2003.3999998569489","","","","","","","","","","","","","","","10","0","","","","","","",""
"pit-instructions","146","605408","0.0-1.0-15.1-1.1","battery-v0.2","[{""page_index"":0,""viewing_time"":674.2000000476837}]","674.5999999046326","","","","","","","","","","","","","","","","","","","","","","",""
"pit-comprehension","147","607874","0.0-1.0-16.0-0.0","battery-v0.2","","2463.5","","","","","","","","","","","","","","","True","0","","","","","","",""
"pit-instructions","148","608521","0.0-1.0-16.0-1.0","battery-v0.2","[{""page_index"":0,""viewing_time"":613.9000000953674}]","614.3000001907349","","","","","","","","","","","","","","","","","","","","","","",""
"pit-comprehension","149","611949","0.0-1.0-17.0-0.0","battery-v0.2","","3423.9000000953674","","","","","","","","","","","","","","","True","0","","","","","","",""
"pit-instructions","150","613339","0.0-1.0-17.0-1.0","battery-v0.2","[{""page_index"":0,""viewing_time"":1360.7000000476837}]","1361","","","","","","","","","","","","","","","","","","","","","","",""
"pit-comprehension","151","616080","0.0-1.0-18.0-0.0","battery-v0.2","","2738.7999999523163","","","","","","","","","","","","","","","True","0","","","","","","",""
"pit-instructions","152","616848","0.0-1.0-18.0-1.0","battery-v0.2","[{""page_index"":0,""viewing_time"":736.2999999523163}]","736.5999999046326","","","","","","","","","","","","","","","","","","","","","","",""
"pit-instructions","153","624602","0.0-2.0","battery-v0.2","[{""page_index"":0,""viewing_time"":863.0999999046326},{""page_index"":1,""viewing_time"":4932.900000095367},{""page_index"":2,""viewing_time"":1956.7999999523163}]","7753.099999904633","","","","","","","","","","","","","","","","","","","","","","",""
"pit-trial","154","627861","0.0-3.0","battery-v0.2","","749.6999998092651","&#9730;","elianto","#3366ff99","32","32","1","+10","1251","1","1","","","","","","","4ee95e0e8737a0304baac70a&order=1&STUDY_ID=61caf85b4892b889f6411591","1","1","1","win","go","0"
"pit-trial","155","630422","0.0-4.0","battery-v0.2","","54.09999990463257","&#9752;","elianto","#f73b6a7A","32","32","1","0","554.7999999523163","1","1","","","","","","","4ee95e0e8737a0304baac70a&order=1&STUDY_ID=61caf85b4892b889f6411591","2","3","3","lose","go","0"
"pit-trial","156","633124","0.0-5.0","battery-v0.2","","196.79999995231628","&#9728;","elianto","#f73b6a7A","-1","32","0","-10","697.0999999046326","1","1","","","","","","","4ee95e0e8737a0304baac70a&order=1&STUDY_ID=61caf85b4892b889f6411591","3","0","4","lose","no-go","0"
"pit-trial","157","635682","0.0-6.0","battery-v0.2","","51.200000047683716","&#9733;","elianto","#3366ff99","-1","32","0","0","551.5","1","1","","","","","","","4ee95e0e8737a0304baac70a&order=1&STUDY_ID=61caf85b4892b889f6411591","4","2","2","win","no-go","0"
"pit-trial","158","638199","0.0-7.0","battery-v0.2","","10.600000143051147","&#9752;","elianto","#f73b6a7A","32","32","1","0","513.2999999523163","1","1","","","","","","","4ee95e0e8737a0304baac70a&order=1&STUDY_ID=61caf85b4892b889f6411591","5","3","3","lose","go","0"
"pit-trial","159","640948","0.0-8.0","battery-v0.2","","244.5","&#9733;","elianto","#3366ff99","-1","32","0","0","465.7999999523163,746.3999998569489","2","1","","","","","","","4ee95e0e8737a0304baac70a&order=1&STUDY_ID=61caf85b4892b889f6411591","6","2","2","win","no-go","0"
"pit-trial","160","643862","0.0-9.0","battery-v0.2","","405.89999985694885","&#9728;","elianto","#f73b6a7A","-1","32","0","-10","907.8999998569489","1","1","","","","","","","4ee95e0e8737a0304baac70a&order=1&STUDY_ID=61caf85b4892b889f6411591","7","0","4","lose","no-go","0"
"pit-trial","161","648372","0.0-10.0","battery-v0.2","","-1","&#9730;","elianto","#3366ff99","32","-1","0","0","","0","1","","","","","","","4ee95e0e8737a0304baac70a&order=1&STUDY_ID=61caf85b4892b889f6411591","8","1","1","win","go","0"
"pit-trial","162","651260","0.0-11.0","battery-v0.2","","379.7999999523163","&#9730;","elianto","#3366ff99","32","32","1","+10","880.0999999046326","1","1","","","","","","","4ee95e0e8737a0304baac70a&order=1&STUDY_ID=61caf85b4892b889f6411591","9","1","1","win","go","0"
"pit-trial","163","654043","0.0-12.0","battery-v0.2","","278.7000000476837","&#9728;","elianto","#f73b6a7A","-1","32","0","0","781.2000000476837","1","1","","","","","","","4ee95e0e8737a0304baac70a&order=1&STUDY_ID=61caf85b4892b889f6411591","10","0","4","lose","no-go","1"
"pit-trial","164","656658","0.0-13.0","battery-v0.2","","107.70000004768372","&#9752;","elianto","#f73b6a7A","32","32","1","0","610.5","1","1","","","","","","","4ee95e0e8737a0304baac70a&order=1&STUDY_ID=61caf85b4892b889f6411591","11","3","3","lose","go","0"
