"trial_type","trial_index","time_elapsed","internal_node_id","task_version","view_history","rt","rune","rune_set","hex","correct","choice","accuracy","outcome","keys","total_keys","block","practice","value"
"pavlovia","0","4","0.0-0.0","battery-v0.2","","","","","","","","","","","","","",""
"pit-instructions","1","57121","0.0-1.0-0.0","battery-v0.2","[{""page_index"":0,""viewing_time"":7661.059999954887},{""page_index"":1,""viewing_time"":3677.3700000485405},{""page_index"":2,""viewing_time"":3358.3550000330433},{""page_index"":3,""viewing_time"":3627.8199999360368},{""page_index"":4,""viewing_time"":3460.0599999539554},{""page_index"":5,""viewing_time"":6326.100000063889},{""page_index"":6,""viewing_time"":5329.234999953769},{""page_index"":7,""viewing_time"":10680.739999981597},{""page_index"":8,""viewing_time"":3345.770000014454},{""page_index"":9,""viewing_time"":9647.69500005059}]","57114.60500000976","","","","","","","","","","","",""
"pit-trial","2","60293","0.0-1.0-1.0-0.0","battery-v0.2","","468.19499996490777","1","elianto","#3366ff99","32","32","1","+10","1968.4399999678135","1","0","1",""
"pit-trial","3","63395","0.0-1.0-1.1-0.1","battery-v0.2","","396.40500000678","1","elianto","#3366ff99","32","32","1","+10","1897.1950000850484","1","0","1",""
"pit-trial","4","66200","0.0-1.0-1.2-0.2","battery-v0.2","","100.89000000152737","1","elianto","#3366ff99","32","32","1","+10","1601.5549999428913","1","0","1",""
"pit-trial","5","69040","0.0-1.0-1.3-0.3","battery-v0.2","","132.96499999705702","1","elianto","#3366ff99","32","32","1","+10","1633.3350000204518","1","0","1",""
"call-function","6","69042","0.0-1.0-2.0","battery-v0.2","","","","","","","","","","","","","",""
"pit-instructions","7","72442","0.0-1.0-3.0","battery-v0.2","[{""page_index"":0,""viewing_time"":2956.069999956526},{""page_index"":1,""viewing_time"":443.48999997600913}]","3399.9149999581277","","","","","","","","","","","",""
"pit-trial","8","76455","0.0-1.0-4.0-0.0","battery-v0.2","","-1","2","elianto","#3366ff99","-1","-1","1","+10","","0","0","2",""
"pit-trial","9","80468","0.0-1.0-4.1-0.1","battery-v0.2","","-1","2","elianto","#3366ff99","-1","-1","1","+10","","0","0","2",""
"pit-trial","10","84481","0.0-1.0-4.2-0.2","battery-v0.2","","-1","2","elianto","#3366ff99","-1","-1","1","+10","","0","0","2",""
"pit-trial","11","88493","0.0-1.0-4.3-0.3","battery-v0.2","","-1","2","elianto","#3366ff99","-1","-1","1","+10","","0","0","2",""
"call-function","12","88495","0.0-1.0-5.0","battery-v0.2","","","","","","","","","","","","","",""
"pit-instructions","13","115743","0.0-1.0-6.0","battery-v0.2","[{""page_index"":0,""viewing_time"":19450.920000090264},{""page_index"":1,""viewing_time"":7796.999999904074}]","27248.295000055805","","","","","","","","","","","",""
"pit-trial","14","119753","0.0-1.0-7.0-0.0","battery-v0.2","","-1","3","elianto","#f73b6a7A","-1","-1","1","0","","0","0","3",""
"pit-trial","15","123759","0.0-1.0-7.1-0.1","battery-v0.2","","-1","3","elianto","#f73b6a7A","-1","-1","1","0","","0","0","3",""
"pit-trial","16","127764","0.0-1.0-7.2-0.2","battery-v0.2","","-1","3","elianto","#f73b6a7A","-1","-1","1","0","","0","0","3",""
"pit-trial","17","131775","0.0-1.0-7.3-0.3","battery-v0.2","","-1","3","elianto","#f73b6a7A","-1","-1","1","0","","0","0","3",""
"call-function","18","131776","0.0-1.0-8.0","battery-v0.2","","","","","","","","","","","","","",""
"pit-instructions","19","158290","0.0-1.0-9.0","battery-v0.2","[{""page_index"":0,""viewing_time"":12721.889999927953},{""page_index"":1,""viewing_time"":13792.030000011437}]","26514.33499995619","","","","","","","","","","","",""
"pit-trial","20","162299","0.0-1.0-10.0-0.0","battery-v0.2","","-1","4","elianto","#f73b6a7A","32","-1","0","-10","","0","0","4",""
"pit-trial","21","166310","0.0-1.0-10.1-0.1","battery-v0.2","","-1","4","elianto","#f73b6a7A","32","-1","0","-10","","0","0","4",""
"pit-trial","22","170318","0.0-1.0-10.2-0.2","battery-v0.2","","-1","4","elianto","#f73b6a7A","32","-1","0","-10","","0","0","4",""
"pit-trial","23","174325","0.0-1.0-10.3-0.3","battery-v0.2","","-1","4","elianto","#f73b6a7A","32","-1","0","-10","","0","0","4",""
"pit-trial","24","178330","0.0-1.0-10.4-0.4","battery-v0.2","","-1","4","elianto","#f73b6a7A","32","-1","0","-10","","0","0","4",""
"pit-trial","25","182337","0.0-1.0-10.5-0.5","battery-v0.2","","-1","4","elianto","#f73b6a7A","32","-1","0","-10","","0","0","4",""
"pit-trial","26","186345","0.0-1.0-10.6-0.6","battery-v0.2","","-1","4","elianto","#f73b6a7A","32","-1","0","-10","","0","0","4",""
"pit-trial","27","190349","0.0-1.0-10.7-0.7","battery-v0.2","","-1","4","elianto","#f73b6a7A","32","-1","0","-10","","0","0","4",""
"pit-trial","28","194356","0.0-1.0-10.8-0.8","battery-v0.2","","-1","4","elianto","#f73b6a7A","32","-1","0","-10","","0","0","4",""
"pit-trial","29","198367","0.0-1.0-10.9-0.9","battery-v0.2","","-1","4","elianto","#f73b6a7A","32","-1","0","-10","","0","0","4",""
"pit-trial","30","202377","0.0-1.0-10.10-0.10","battery-v0.2","","-1","4","elianto","#f73b6a7A","32","-1","0","-10","","0","0","4",""
"pit-trial","31","206389","0.0-1.0-10.11-0.11","battery-v0.2","","-1","4","elianto","#f73b6a7A","32","-1","0","-10","","0","0","4",""
"pit-trial","32","210396","0.0-1.0-10.12-0.12","battery-v0.2","","-1","4","elianto","#f73b6a7A","32","-1","0","-10","","0","0","4",""
"pit-trial","33","214408","0.0-1.0-10.13-0.13","battery-v0.2","","-1","4","elianto","#f73b6a7A","32","-1","0","-10","","0","0","4",""
"pit-trial","34","218416","0.0-1.0-10.14-0.14","battery-v0.2","","-1","4","elianto","#f73b6a7A","32","-1","0","-10","","0","0","4",""
"pit-trial","35","222424","0.0-1.0-10.15-0.15","battery-v0.2","","-1","4","elianto","#f73b6a7A","32","-1","0","-10","","0","0","4",""
"pit-trial","36","226435","0.0-1.0-10.16-0.16","battery-v0.2","","-1","4","elianto","#f73b6a7A","32","-1","0","-10","","0","0","4",""
"pit-trial","37","230446","0.0-1.0-10.17-0.17","battery-v0.2","","-1","4","elianto","#f73b6a7A","32","-1","0","-10","","0","0","4",""
"pit-trial","38","234457","0.0-1.0-10.18-0.18","battery-v0.2","","-1","4","elianto","#f73b6a7A","32","-1","0","-10","","0","0","4",""
"pit-trial","39","238463","0.0-1.0-10.19-0.19","battery-v0.2","","-1","4","elianto","#f73b6a7A","32","-1","0","-10","","0","0","4",""
"pit-trial","40","242470","0.0-1.0-10.20-0.20","battery-v0.2","","-1","4","elianto","#f73b6a7A","32","-1","0","-10","","0","0","4",""
"pit-trial","41","246478","0.0-1.0-10.21-0.21","battery-v0.2","","-1","4","elianto","#f73b6a7A","32","-1","0","-10","","0","0","4",""
"pit-trial","42","250487","0.0-1.0-10.22-0.22","battery-v0.2","","-1","4","elianto","#f73b6a7A","32","-1","0","-10","","0","0","4",""
"pit-trial","43","254495","0.0-1.0-10.23-0.23","battery-v0.2","","-1","4","elianto","#f73b6a7A","32","-1","0","-10","","0","0","4",""
"pit-trial","44","258498","0.0-1.0-10.24-0.24","battery-v0.2","","-1","4","elianto","#f73b6a7A","32","-1","0","-10","","0","0","4",""
"pit-trial","45","262500","0.0-1.0-10.25-0.25","battery-v0.2","","-1","4","elianto","#f73b6a7A","32","-1","0","-10","","0","0","4",""
"pit-trial","46","266504","0.0-1.0-10.26-0.26","battery-v0.2","","-1","4","elianto","#f73b6a7A","32","-1","0","-10","","0","0","4",""
"pit-trial","47","270509","0.0-1.0-10.27-0.27","battery-v0.2","","-1","4","elianto","#f73b6a7A","32","-1","0","-10","","0","0","4",""
"pit-trial","48","274515","0.0-1.0-10.28-0.28","battery-v0.2","","-1","4","elianto","#f73b6a7A","32","-1","0","-10","","0","0","4",""
"pit-trial","49","278526","0.0-1.0-10.29-0.29","battery-v0.2","","-1","4","elianto","#f73b6a7A","32","-1","0","-10","","0","0","4",""
"pit-trial","50","282535","0.0-1.0-10.30-0.30","battery-v0.2","","-1","4","elianto","#f73b6a7A","32","-1","0","-10","","0","0","4",""
"pit-trial","51","287790","0.0-1.0-10.31-0.31","battery-v0.2","","-1","4","elianto","#f73b6a7A","32","-1","0","-10","","0","0","4",""
"pit-trial","52","292789","0.0-1.0-10.32-0.32","battery-v0.2","","-1","4","elianto","#f73b6a7A","32","-1","0","-10","","0","0","4",""
"pit-trial","53","298560","0.0-1.0-10.33-0.33","battery-v0.2","","-1","4","elianto","#f73b6a7A","32","-1","0","-10","","0","0","4",""
"pit-trial","54","303789","0.0-1.0-10.34-0.34","battery-v0.2","","-1","4","elianto","#f73b6a7A","32","-1","0","-10","","0","0","4",""
"pit-trial","55","307795","0.0-1.0-10.35-0.35","battery-v0.2","","-1","4","elianto","#f73b6a7A","32","-1","0","-10","","0","0","4",""
"pit-trial","56","311802","0.0-1.0-10.36-0.36","battery-v0.2","","-1","4","elianto","#f73b6a7A","32","-1","0","-10","","0","0","4",""
