"trial_type","trial_index","time_elapsed","internal_node_id","task_version","success","view_history","rt","responses","num_errors","age","subject","participantId","rune","rune_set","hex","correct","choice","accuracy","outcome","keys","total_keys","block","practice","value","sub","trial","stimulus","robot","valence","action","sham","browser_interactions"
"pavlovia","0","16","0.0-0.0","battery-v0.2","","","","","","","","","","","","","","","","","","","","","","","","","","","",""
"fullscreen","1","4105","0.0-1.0","battery-v0.2","true","","","","","","","","","","","","","","","","","","","","","","","","","","",""
"pit-instructions","2","8628","0.0-2.0-0.0","battery-v0.2","","[{""page_index"":0,""viewing_time"":4518.5}]","4519.100000023842","","","","","","","","","","","","","","","","","","","","","","","","",""
"pit-comprehension","3","12708","0.0-2.0-1.0-0.0","battery-v0.2","","","4076.5","[""shark""]","0","13","852","679","","","","","","","","","","","","","","","","","","","",""
"pit-instructions","4","14043","0.0-2.0-1.0-1.0","battery-v0.2","","[{""page_index"":0,""viewing_time"":1322.5}]","1322.8000000715256","","","","","","","","","","","","","","","","","","","","","","","","",""
"pit-comprehension","5","16579","0.0-2.0-2.0-0.0","battery-v0.2","","","2533.899999976158","[""tiger""]","0","13","852","679","","","","","","","","","","","","","","","","","","","",""
"pit-instructions","6","17419","0.0-2.0-2.0-1.0","battery-v0.2","","[{""page_index"":0,""viewing_time"":837.2999999523163}]","837.6000000238419","","","","","","","","","","","","","","","","","","","","","","","","",""
"pit-instructions","7","126149","0.0-2.0-3.0","battery-v0.2","","[{""page_index"":0,""viewing_time"":9093.5},{""page_index"":1,""viewing_time"":6304.300000071526},{""page_index"":2,""viewing_time"":6623.699999928474},{""page_index"":3,""viewing_time"":5320.200000047684},{""page_index"":4,""viewing_time"":7552.299999952316},{""page_index"":5,""viewing_time"":8320},{""page_index"":6,""viewing_time"":8672.300000071526},{""page_index"":7,""viewing_time"":8600.299999952316},{""page_index"":8,""viewing_time"":7943.5},{""page_index"":9,""viewing_time"":13800.300000071526},{""page_index"":10,""viewing_time"":7647.699999928474},{""page_index"":11,""viewing_time"":7488.200000047684},{""page_index"":12,""viewing_time"":6144.5},{""page_index"":13,""viewing_time"":5215.600000023842}]","108726.80000007153","","","","","","","","","","","","","","","","","","","","","","","","",""
"pit-trial","8","130033","0.0-2.0-4.0-0.0","battery-v0.2","","","1020.1000000238419","","","13","852","679","&#9784;","elianto","#FFFFF080"," "," ","1","&#10004","[1871.2000000476837]","1","0","0","","","","","","","","",""
"pit-trial","9","133872","0.0-2.0-4.1-0.1","battery-v0.2","","","966.7999999523163","","","13","852","679","&#9784;","elianto","#FFFFF080"," "," ","1","&#10004","[1824.3999999761581]","1","0","0","","","","","","","","",""
"pit-trial","10","137648","0.0-2.0-4.2-0.2","battery-v0.2","","","911.2000000476837","","","13","852","679","&#9784;","elianto","#FFFFF080"," "," ","1","&#10004","[1761.6999999284744]","1","0","0","","","","","","","","",""
"pit-trial","11","141132","0.0-2.0-4.3-0.3","battery-v0.2","","","615.6000000238419","","","13","852","679","&#9784;","elianto","#FFFFF080"," "," ","1","&#10004","[1466.2000000476837]","1","0","0","","","","","","","","",""
"pit-trial","12","144812","0.0-2.0-4.4-0.4","battery-v0.2","","","811.3999999761581","","","13","852","679","&#9784;","elianto","#FFFFF080"," "," ","1","&#10004","[1661.6000000238419]","1","0","0","","","","","","","","",""
"pit-instructions","13","168053","0.0-2.0-5.0","battery-v0.2","","[{""page_index"":0,""viewing_time"":5142},{""page_index"":1,""viewing_time"":6744.200000047684},{""page_index"":2,""viewing_time"":5599.899999976158},{""page_index"":3,""viewing_time"":5752}]","23238.5","","","","","","","","","","","","","","","","","","","","","","","","",""
"pit-trial","14","172931","0.0-2.0-6.0-0.0","battery-v0.2","","","-1","","","13","852","679","&#9854;","elianto","#FFFFF080","-1","-1","1","&#10004","[]","0","0","1","","","","","","","","",""
"pit-trial","15","177800","0.0-2.0-6.1-0.1","battery-v0.2","","","-1","","","13","852","679","&#9854;","elianto","#FFFFF080","-1","-1","1","&#10004","[]","0","0","1","","","","","","","","",""
"pit-trial","16","182682","0.0-2.0-6.2-0.2","battery-v0.2","","","-1","","","13","852","679","&#9854;","elianto","#FFFFF080","-1","-1","1","&#10004","[]","0","0","1","","","","","","","","",""
"pit-trial","17","187561","0.0-2.0-6.3-0.3","battery-v0.2","","","-1","","","13","852","679","&#9854;","elianto","#FFFFF080","-1","-1","1","&#10004","[]","0","0","1","","","","","","","","",""
"pit-trial","18","192452","0.0-2.0-6.4-0.4","battery-v0.2","","","-1","","","13","852","679","&#9854;","elianto","#FFFFF080","-1","-1","1","&#10004","[]","0","0","1","","","","","","","","",""
"pit-instructions","19","335078","0.0-2.0-7.0","battery-v0.2","","[{""page_index"":0,""viewing_time"":5710.300000071526},{""page_index"":1,""viewing_time"":8064},{""page_index"":2,""viewing_time"":6208},{""page_index"":3,""viewing_time"":6568.399999976158},{""page_index"":4,""viewing_time"":7159.700000047684},{""page_index"":5,""viewing_time"":8760.5},{""page_index"":6,""viewing_time"":5751.699999928474},{""page_index"":7,""viewing_time"":8968},{""page_index"":8,""viewing_time"":8440.100000023842},{""page_index"":9,""viewing_time"":7111.899999976158},{""page_index"":10,""viewing_time"":8648.100000023842},{""page_index"":11,""viewing_time"":7184},{""page_index"":12,""viewing_time"":10120.100000023842},{""page_index"":13,""viewing_time"":10111.899999976158},{""page_index"":14,""viewing_time"":8264.5},{""page_index"":15,""viewing_time"":11207.700000047684},{""page_index"":16,""viewing_time"":6352.399999976158},{""page_index"":17,""viewing_time"":7991.699999928474}]","142623.5","","","","","","","","","","","","","","","","","","","","","","","","",""
"pit-trial","20","338771","0.0-2.0-8.0-0.0","battery-v0.2","","","835.8000000715256","","","13","852","679","&#9776;","elianto","#3366ff99"," "," ","1","+10","[1686.1000000238419]","1","0","1","","","","","","","","",""
"pit-trial","21","342141","0.0-2.0-8.0-1.0","battery-v0.2","","","502.40000009536743","","","13","852","679","&#9776;","elianto","#3366ff99"," "," ","1","+10","[1353.5]","1","0","1","","","","","","","","",""
"pit-trial","22","345480","0.0-2.0-8.0-2.0","battery-v0.2","","","484.10000002384186","","","13","852","679","&#9776;","elianto","#3366ff99"," "," ","1","+10","[1335.6000000238419]","1","0","1","","","","","","","","",""
"pit-trial","23","348850","0.0-2.0-8.0-3.0","battery-v0.2","","","497.39999997615814","","","13","852","679","&#9776;","elianto","#3366ff99"," "," ","1","0","[1348.5]","1","0","1","","","","","","","","",""
"pit-trial","24","352136","0.0-2.0-8.0-4.0","battery-v0.2","","","432.2000000476837","","","13","852","679","&#9776;","elianto","#3366ff99"," "," ","1","+10","[1282.3000000715256]","1","0","1","","","","","","","","",""
"call-function","25","352138","0.0-2.0-9.0","battery-v0.2","","","","","","","","","","","","","","","","","","","","","","","","","","","",""
"pit-instructions","26","395614","0.0-2.0-10.0","battery-v0.2","","[{""page_index"":0,""viewing_time"":7043.400000095367},{""page_index"":1,""viewing_time"":8031.799999952316},{""page_index"":2,""viewing_time"":9336.600000023842},{""page_index"":3,""viewing_time"":11247.899999976158},{""page_index"":4,""viewing_time"":7815.799999952316}]","43475.800000071526","","","","","","","","","","","","","","","","","","","","","","","","",""
"pit-trial","27","400489","0.0-2.0-11.0-0.0","battery-v0.2","","","-1","","","13","852","679","&#9761;","elianto","#3366ff99","-1","-1","1","+10","[]","0","0","2","","","","","","","","",""
"pit-trial","28","405369","0.0-2.0-11.0-1.0","battery-v0.2","","","-1","","","13","852","679","&#9761;","elianto","#3366ff99","-1","-1","1","+10","[]","0","0","2","","","","","","","","",""
"pit-trial","29","410249","0.0-2.0-11.0-2.0","battery-v0.2","","","-1","","","13","852","679","&#9761;","elianto","#3366ff99","-1","-1","1","+10","[]","0","0","2","","","","","","","","",""
"pit-trial","30","415119","0.0-2.0-11.0-3.0","battery-v0.2","","","-1","","","13","852","679","&#9761;","elianto","#3366ff99","-1","-1","1","0","[]","0","0","2","","","","","","","","",""
"pit-trial","31","419999","0.0-2.0-11.0-4.0","battery-v0.2","","","-1","","","13","852","679","&#9761;","elianto","#3366ff99","-1","-1","1","+10","[]","0","0","2","","","","","","","","",""
"call-function","32","420001","0.0-2.0-12.0","battery-v0.2","","","","","","","","","","","","","","","","","","","","","","","","","","","",""
"pit-instructions","33","454863","0.0-2.0-13.0","battery-v0.2","","[{""page_index"":0,""viewing_time"":5325.100000023842},{""page_index"":1,""viewing_time"":7479.799999952316},{""page_index"":2,""viewing_time"":3888.100000023842},{""page_index"":3,""viewing_time"":11999.5},{""page_index"":4,""viewing_time"":6168.700000047684}]","34861.60000002384","","","","","","","","","","","","","","","","","","","","","","","","",""
"pit-trial","34","458328","0.0-2.0-14.0-0.0","battery-v0.2","","","611.7999999523163","","","13","852","679","&#9826;","elianto","#f73b6a7A","-1"," ","0","-10","[1462.1999999284744]","1","0","3","","","","","","","","",""
"pit-trial","35","462148","0.0-2.0-14.0-1.0","battery-v0.2","","","961.3999999761581","","","13","852","679","&#9826;","elianto","#f73b6a7A","-1"," ","0","-10","[1812.6000000238419]","1","0","3","","","","","","","","",""
"pit-trial","36","467028","0.0-2.0-14.0-2.0","battery-v0.2","","","-1","","","13","852","679","&#9826;","elianto","#f73b6a7A","-1","-1","1","0","[]","0","0","3","","","","","","","","",""
"pit-trial","37","471898","0.0-2.0-14.0-3.0","battery-v0.2","","","-1","","","13","852","679","&#9826;","elianto","#f73b6a7A","-1","-1","1","-10","[]","0","0","3","","","","","","","","",""
"pit-trial","38","476779","0.0-2.0-14.0-4.0","battery-v0.2","","","-1","","","13","852","679","&#9826;","elianto","#f73b6a7A","-1","-1","1","0","[]","0","0","3","","","","","","","","",""
"pit-trial","39","481659","0.0-2.0-14.1-0.1","battery-v0.2","","","-1","","","13","852","679","&#9826;","elianto","#f73b6a7A","-1","-1","1","0","[]","0","0","3","","","","","","","","",""
"pit-trial","40","486512","0.0-2.0-14.1-1.1","battery-v0.2","","","-1","","","13","852","679","&#9826;","elianto","#f73b6a7A","-1","-1","1","0","[]","0","0","3","","","","","","","","",""
"pit-trial","41","491365","0.0-2.0-14.1-2.1","battery-v0.2","","","-1","","","13","852","679","&#9826;","elianto","#f73b6a7A","-1","-1","1","0","[]","0","0","3","","","","","","","","",""
"pit-trial","42","496218","0.0-2.0-14.1-3.1","battery-v0.2","","","-1","","","13","852","679","&#9826;","elianto","#f73b6a7A","-1","-1","1","-10","[]","0","0","3","","","","","","","","",""
"pit-trial","43","501071","0.0-2.0-14.1-4.1","battery-v0.2","","","-1","","","13","852","679","&#9826;","elianto","#f73b6a7A","-1","-1","1","0","[]","0","0","3","","","","","","","","",""
"call-function","44","501073","0.0-2.0-15.0","battery-v0.2","","","","","","","","","","","","","","","","","","","","","","","","","","","",""
"pit-instructions","45","528719","0.0-2.0-16.0","battery-v0.2","","[{""page_index"":0,""viewing_time"":6949.200000047684},{""page_index"":1,""viewing_time"":8760.099999904633},{""page_index"":2,""viewing_time"":5128.400000095367},{""page_index"":3,""viewing_time"":6807.899999976158}]","27645.899999976158","","","","","","","","","","","","","","","","","","","","","","","","",""
"pit-trial","46","532192","0.0-2.0-17.0-0.0","battery-v0.2","","","604.1000000238419","","","13","852","679","&#9789;","elianto","#f73b6a7A"," "," ","1","0","[469.8000000715256,1454.2000000476837]","2","0","4","","","","","","","","",""
"pit-trial","47","535652","0.0-2.0-17.0-1.0","battery-v0.2","","","587","","","13","852","679","&#9789;","elianto","#f73b6a7A"," "," ","1","0","[1437.5999999046326]","1","0","4","","","","","","","","",""
"pit-trial","48","538912","0.0-2.0-17.0-2.0","battery-v0.2","","","397.5","","","13","852","679","&#9789;","elianto","#f73b6a7A"," "," ","1","0","[1249.3000000715256]","1","0","4","","","","","","","","",""
"pit-trial","49","542132","0.0-2.0-17.0-3.0","battery-v0.2","","","361.5","","","13","852","679","&#9789;","elianto","#f73b6a7A"," "," ","1","-10","[1212.8999999761581]","1","0","4","","","","","","","","",""
"pit-trial","50","545372","0.0-2.0-17.0-4.0","battery-v0.2","","","374.40000009536743","","","13","852","679","&#9789;","elianto","#f73b6a7A"," "," ","1","0","[1225.1000000238419]","1","0","4","","","","","","","","",""
"call-function","51","545373","0.0-2.0-18.0","battery-v0.2","","","","","","","","","","","","","","","","","","","","","","","","","","","",""
"pit-instructions","52","620720","0.0-2.0-19.0","battery-v0.2","","[{""page_index"":0,""viewing_time"":7961},{""page_index"":1,""viewing_time"":6367.600000023842},{""page_index"":2,""viewing_time"":13480.299999952316},{""page_index"":3,""viewing_time"":8544},{""page_index"":4,""viewing_time"":9479.900000095367},{""page_index"":5,""viewing_time"":8296.099999904633},{""page_index"":6,""viewing_time"":8512.200000047684},{""page_index"":7,""viewing_time"":7311.899999976158},{""page_index"":8,""viewing_time"":5392.100000023842}]","75345.39999997616","","","","","","","","","","","","","","","","","","","","","","","","",""
"pit-comprehension","53","625672","0.0-2.0-20.0-0.0","battery-v0.2","","","4949.599999904633","[""SPACE""]","0","13","852","679","","","","","","","","","","","","","","","","","","","",""
"pit-instructions","54","628456","0.0-2.0-20.0-1.0","battery-v0.2","","[{""page_index"":0,""viewing_time"":2768.5}]","2768.8000000715256","","","","","","","","","","","","","","","","","","","","","","","","",""
"pit-comprehension","55","635320","0.0-2.0-21.0-0.0","battery-v0.2","","","6862","[""10""]","0","13","852","679","","","","","","","","","","","","","","","","","","","",""
"pit-instructions","56","636832","0.0-2.0-21.0-1.0","battery-v0.2","","[{""page_index"":0,""viewing_time"":1497.2000000476837}]","1497.6000000238419","","","","","","","","","","","","","","","","","","","","","","","","",""
"pit-comprehension","57","643673","0.0-2.0-22.0-0.0","battery-v0.2","","","6838.100000023842","[""0""]","0","13","852","679","","","","","","","","","","","","","","","","","","","",""
"pit-instructions","58","645152","0.0-2.0-22.0-1.0","battery-v0.2","","[{""page_index"":0,""viewing_time"":1464.2000000476837}]","1464.6000000238419","","","","","","","","","","","","","","","","","","","","","","","","",""
"pit-comprehension","59","653992","0.0-2.0-23.0-0.0","battery-v0.2","","","8838","[""True""]","0","13","852","679","","","","","","","","","","","","","","","","","","","",""
"pit-instructions","60","655448","0.0-2.0-23.0-1.0","battery-v0.2","","[{""page_index"":0,""viewing_time"":1441.3000000715256}]","1441.5","","","","","","","","","","","","","","","","","","","","","","","","",""
"pit-comprehension","61","662841","0.0-2.0-24.0-0.0","battery-v0.2","","","7390.300000071526","[""True""]","0","13","852","679","","","","","","","","","","","","","","","","","","","",""
"pit-instructions","62","664304","0.0-2.0-24.0-1.0","battery-v0.2","","[{""page_index"":0,""viewing_time"":1449.2999999523163}]","1449.6000000238419","","","","","","","","","","","","","","","","","","","","","","","","",""
"pit-comprehension","63","670713","0.0-2.0-25.0-0.0","battery-v0.2","","","6406","[""True""]","0","13","852","679","","","","","","","","","","","","","","","","","","","",""
"pit-instructions","64","674256","0.0-2.0-25.0-1.0","battery-v0.2","","[{""page_index"":0,""viewing_time"":3528.7999999523163}]","3529.2000000476837","","","","","","","","","","","","","","","","","","","","","","","","",""
"pit-comprehension","65","679904","0.0-2.0-26.0-0.0","battery-v0.2","","","5645.700000047684","[""False""]","0","13","852","679","","","","","","","","","","","","","","","","","","","",""
"pit-instructions","66","681488","0.0-2.0-26.0-1.0","battery-v0.2","","[{""page_index"":0,""viewing_time"":1568.8999999761581}]","1569.2000000476837","","","","","","","","","","","","","","","","","","","","","","","","",""
"pit-instructions","67","700040","0.0-3.0","battery-v0.2","","[{""page_index"":0,""viewing_time"":5070.100000023842},{""page_index"":1,""viewing_time"":5152.099999904633},{""page_index"":2,""viewing_time"":8327.900000095367}]","18550.399999976158","","","","","","","","","","","","","","","","","","","","","","","","",""
"pit-trial","68","704329","0.0-4.0","battery-v0.2","","","1417.3999999761581","","","13","852","679","&#9752;","elianto","#f73b6a7A"," "," ","1","0","[2268.899999976158]","1","1","","","852","1","3","3","lose","go","0","[]"
"pit-trial","69","709195","0.0-5.0","battery-v0.2","","","-1","","","13","852","679","&#9728;","elianto","#f73b6a7A","-1","-1","1","0","[]","0","1","","","852","2","0","4","lose","no-go","0","0"
"pit-trial","70","713179","0.0-6.0","battery-v0.2","","","1128.2000000476837","","","13","852","679","&#9733;","elianto","#3366ff99","-1"," ","0","0","[1979.1000000238419]","1","1","","","852","3","2","2","win","no-go","0","0"
"pit-trial","71","716989","0.0-7.0","battery-v0.2","","","953.2000000476837","","","13","852","679","&#9730;","elianto","#3366ff99"," "," ","1","+10","[1803.2000000476837]","1","1","","","852","4","1","1","win","go","0","0"
"pit-trial","72","721859","0.0-8.0","battery-v0.2","","","-1","","","13","852","679","&#9728;","elianto","#f73b6a7A","-1","-1","1","0","[]","0","1","","","852","5","0","4","lose","no-go","0","0"
"pit-trial","73","726729","0.0-9.0","battery-v0.2","","","-1","","","13","852","679","&#9733;","elianto","#3366ff99","-1","-1","1","+10","[]","0","1","","","852","6","2","2","win","no-go","0","0"
"pit-trial","74","730786","0.0-10.0","battery-v0.2","","","1203.3000000715256","","","13","852","679","&#9752;","elianto","#f73b6a7A"," "," ","1","0","[2053.2000000476837]","1","1","","","852","7","3","3","lose","go","0","0"
"pit-trial","75","734472","0.0-11.0","battery-v0.2","","","833.6000000238419","","","13","852","679","&#9730;","elianto","#3366ff99"," "," ","1","+10","[1684.6000000238419]","1","1","","","852","8","1","1","win","go","0","0"
"pit-trial","76","739325","0.0-12.0","battery-v0.2","","","-1","","","13","852","679","&#9733;","elianto","#3366ff99","-1","-1","1","0","[]","0","1","","","852","9","2","2","win","no-go","1","0"
"pit-trial","77","743193","0.0-13.0","battery-v0.2","","","1014.8999999761581","","","13","852","679","&#9730;","elianto","#3366ff99"," "," ","1","0","[1865.7000000476837]","1","1","","","852","10","1","1","win","go","1","0"
"pit-trial","78","748045","0.0-14.0","battery-v0.2","","","-1","","","13","852","679","&#9728;","elianto","#f73b6a7A","-1","-1","1","0","[]","0","1","","","852","11","0","4","lose","no-go","0","0"
"pit-trial","79","751609","0.0-15.0","battery-v0.2","","","711.2999999523163","","","13","852","679","&#9752;","elianto","#f73b6a7A"," "," ","1","0","[1561.7999999523163]","1","1","","","852","12","3","3","lose","go","0","0"
"pit-trial","80","755578","0.0-16.0","battery-v0.2","","","1115.6000000238419","","","13","852","679","&#9752;","elianto","#f73b6a7A"," "," ","1","0","[1965.7000000476837]","1","1","","","852","13","3","3","lose","go","0","0"
"pit-trial","81","760431","0.0-17.0","battery-v0.2","","","-1","","","13","852","679","&#9733;","elianto","#3366ff99","-1","-1","1","+10","[]","0","1","","","852","14","2","2","win","no-go","0","0"
"pit-trial","82","765284","0.0-18.0","battery-v0.2","","","-1","","","13","852","679","&#9728;","elianto","#f73b6a7A","-1","-1","1","0","[]","0","1","","","852","15","0","4","lose","no-go","0","0"
"pit-trial","83","769025","0.0-19.0","battery-v0.2","","","887.7999999523163","","","13","852","679","&#9730;","elianto","#3366ff99"," "," ","1","+10","[1738.3999999761581]","1","1","","","852","16","1","1","win","go","0","0"
"pit-trial","84","772819","0.0-20.0","battery-v0.2","","","938.4000000953674","","","13","852","679","&#9752;","elianto","#f73b6a7A"," "," ","1","0","[1789.8000000715256]","1","1","","","852","17","3","3","lose","go","0","0"
"pit-trial","85","777673","0.0-21.0","battery-v0.2","","","-1","","","13","852","679","&#9728;","elianto","#f73b6a7A","-1","-1","1","0","[]","0","1","","","852","18","0","4","lose","no-go","0","0"
"pit-trial","86","781323","0.0-22.0","battery-v0.2","","","796.6000000238419","","","13","852","679","&#9730;","elianto","#3366ff99"," "," ","1","+10","[1646.8999999761581]","1","1","","","852","19","1","1","win","go","0","0"
"pit-trial","87","786183","0.0-23.0","battery-v0.2","","","-1","","","13","852","679","&#9733;","elianto","#3366ff99","-1","-1","1","+10","[]","0","1","","","852","20","2","2","win","no-go","0","0"
"pit-instructions","88","802993","0.0-24.0","battery-v0.2","","[{""page_index"":0,""viewing_time"":8800.100000023842},{""page_index"":1,""viewing_time"":8008.300000071526}]","16808.800000071526","","","","","","","","","","","","","","","","","","","","","","","","",""
"pit-trial","89","806777","0.0-25.0","battery-v0.2","","","909.3999999761581","","","13","852","679","j","elianto","#f73b6a7A"," "," ","1","0","[1764.9000000953674]","1","2","","","852","21","1","3","lose","go","0","0"
"pit-trial","90","811657","0.0-26.0","battery-v0.2","","","-1","","","13","852","679","k","elianto","#3366ff99"," ","-1","0","+10","[]","0","2","","","852","22","3","1","win","go","1","0"
"pit-trial","91","815537","0.0-27.0","battery-v0.2","","","1027.5","","","13","852","679","d","elianto","#f73b6a7A","-1"," ","0","0","[1878.1000000238419]","1","2","","","852","23","2","4","lose","no-go","1","0"
"pit-trial","92","819867","0.0-28.0","battery-v0.2","","","1466.5999999046326","","","13","852","679","v","elianto","#3366ff99","-1"," ","0","0","[2317.6999999284744]","1","2","","","852","24","0","2","win","no-go","0","0"
"pit-trial","93","824757","0.0-29.0","battery-v0.2","","","-1","","","13","852","679","j","elianto","#f73b6a7A"," ","-1","0","-10","[]","0","2","","","852","25","1","3","lose","go","0","0"
"pit-trial","94","829637","0.0-30.0","battery-v0.2","","","-1","","","13","852","679","v","elianto","#3366ff99","-1","-1","1","+10","[]","0","2","","","852","26","0","2","win","no-go","0","0"
"pit-trial","95","834500","0.0-31.0","battery-v0.2","","","-1","","","13","852","679","k","elianto","#3366ff99"," ","-1","0","0","[3082]","1","2","","","852","27","3","1","win","go","0","0"
"pit-trial","96","838618","0.0-32.0","battery-v0.2","","","1264.5999999046326","","","13","852","679","d","elianto","#f73b6a7A","-1"," ","0","-10","[2115.2999999523163]","1","2","","","852","28","2","4","lose","no-go","0","0"
"pit-trial","97","842994","0.0-33.0","battery-v0.2","","","1522.1000000238419","","","13","852","679","k","elianto","#3366ff99"," "," ","1","+10","[2372.7000000476837]","1","2","","","852","29","3","1","win","go","0","0"
"pit-trial","98","847848","0.0-34.0","battery-v0.2","","","-1","","","13","852","679","v","elianto","#3366ff99","-1","-1","1","0","[]","0","2","","","852","30","0","2","win","no-go","1","0"
"pit-trial","99","852701","0.0-35.0","battery-v0.2","","","-1","","","13","852","679","j","elianto","#f73b6a7A"," ","-1","0","-10","[]","0","2","","","852","31","1","3","lose","go","0","0"
"pit-trial","100","857553","0.0-36.0","battery-v0.2","","","-1","","","13","852","679","d","elianto","#f73b6a7A","-1","-1","1","0","[]","0","2","","","852","32","2","4","lose","no-go","0","0"
"pit-trial","101","861170","0.0-37.0","battery-v0.2","","","763.7000000476837","","","13","852","679","j","elianto","#f73b6a7A"," "," ","1","0","[1614]","1","2","","","852","33","1","3","lose","go","0","0"
"pit-trial","102","866024","0.0-38.0","battery-v0.2","","","-1","","","13","852","679","v","elianto","#3366ff99","-1","-1","1","0","[]","0","2","","","852","34","0","2","win","no-go","1","0"
"pit-trial","103","870877","0.0-39.0","battery-v0.2","","","-1","","","13","852","679","k","elianto","#3366ff99"," ","-1","0","0","[]","0","2","","","852","35","3","1","win","go","0","0"
"pit-trial","104","875731","0.0-40.0","battery-v0.2","","","-1","","","13","852","679","d","elianto","#f73b6a7A","-1","-1","1","0","[]","0","2","","","852","36","2","4","lose","no-go","0","0"
"pit-trial","105","880584","0.0-41.0","battery-v0.2","","","-1","","","13","852","679","v","elianto","#3366ff99","-1","-1","1","+10","[]","0","2","","","852","37","0","2","win","no-go","0","0"
"pit-trial","106","884555","0.0-42.0","battery-v0.2","","","1116.8000000715256","","","13","852","679","k","elianto","#3366ff99"," "," ","1","+10","[1967.6000000238419]","1","2","","","852","38","3","1","win","go","0","0"
"pit-trial","107","887986","0.0-43.0","battery-v0.2","","","578.3999999761581","","","13","852","679","j","elianto","#f73b6a7A"," "," ","1","-10","[1428.7000000476837]","1","2","","","852","39","1","3","lose","go","1","0"
"pit-trial","108","892840","0.0-44.0","battery-v0.2","","","-1","","","13","852","679","d","elianto","#f73b6a7A","-1","-1","1","0","[]","0","2","","","852","40","2","4","lose","no-go","0","0"
"pit-trial","109","897693","0.0-45.0","battery-v0.2","","","-1","","","13","852","679","v","elianto","#3366ff99","-1","-1","1","+10","[]","0","2","","","852","41","0","2","win","no-go","0","0"
"pit-trial","110","902547","0.0-46.0","battery-v0.2","","","-1","","","13","852","679","d","elianto","#f73b6a7A","-1","-1","1","0","[]","0","2","","","852","42","2","4","lose","no-go","0","0"
"pit-trial","111","906395","0.0-47.0","battery-v0.2","","","993.5","","","13","852","679","j","elianto","#f73b6a7A"," "," ","1","0","[1844.1999999284744]","1","2","","","852","43","1","3","lose","go","0","0"
"pit-trial","112","910210","0.0-48.0","battery-v0.2","","","961.6999999284744","","","13","852","679","k","elianto","#3366ff99"," "," ","1","0","[1812.6000000238419]","1","2","","","852","44","3","1","win","go","1","0"
"pit-trial","113","915063","0.0-49.0","battery-v0.2","","","-1","","","13","852","679","v","elianto","#3366ff99","-1","-1","1","+10","[]","0","2","","","852","45","0","2","win","no-go","0","0"
"pit-trial","114","918620","0.0-50.0","battery-v0.2","","","700.7999999523163","","","13","852","679","j","elianto","#f73b6a7A"," "," ","1","0","[1552.5999999046326]","1","2","","","852","46","1","3","lose","go","0","0"
"pit-trial","115","922002","0.0-51.0","battery-v0.2","","","528.8999999761581","","","13","852","679","k","elianto","#3366ff99"," "," ","1","+10","[1379.8000000715256]","1","2","","","852","47","3","1","win","go","0","0"
"pit-trial","116","926856","0.0-52.0","battery-v0.2","","","-1","","","13","852","679","d","elianto","#f73b6a7A","-1","-1","1","0","[]","0","2","","","852","48","2","4","lose","no-go","0","0"
"pit-trial","117","931709","0.0-53.0","battery-v0.2","","","-1","","","13","852","679","d","elianto","#f73b6a7A","-1","-1","1","0","[]","0","2","","","852","49","2","4","lose","no-go","0","0"
"pit-trial","118","935163","0.0-54.0","battery-v0.2","","","600.5","","","13","852","679","k","elianto","#3366ff99"," "," ","1","+10","[1450.6000000238419]","1","2","","","852","50","3","1","win","go","0","0"
"pit-trial","119","940019","0.0-55.0","battery-v0.2","","","-1","","","13","852","679","v","elianto","#3366ff99","-1","-1","1","+10","[]","0","2","","","852","51","0","2","win","no-go","0","0"
"pit-trial","120","943482","0.0-56.0","battery-v0.2","","","609.6000000238419","","","13","852","679","j","elianto","#f73b6a7A"," "," ","1","0","[1460.7999999523163]","1","2","","","852","52","1","3","lose","go","0","0"
"pit-trial","121","948337","0.0-57.0","battery-v0.2","","","-1","","","13","852","679","e","elianto","#f73b6a7A"," ","-1","0","-10","[]","0","2","","","852","53","4","3","lose","go","0","0"
"pit-trial","122","953191","0.0-58.0","battery-v0.2","","","-1","","","13","852","679","d","elianto","#f73b6a7A","-1","-1","1","0","[]","0","2","","","852","54","2","4","lose","no-go","0","0"
"pit-trial","123","956955","0.0-59.0","battery-v0.2","","","911","","","13","852","679","j","elianto","#f73b6a7A"," "," ","1","0","[1761.1000000238419]","1","2","","","852","55","1","3","lose","go","0","0"
"pit-trial","124","961027","0.0-60.0","battery-v0.2","","","1217.7000000476837","","","13","852","679","w","elianto","#f73b6a7A","-1"," ","0","-10","[2067.8000000715256]","1","2","","","852","56","5","4","lose","no-go","0","0"
"pit-trial","125","965881","0.0-61.0","battery-v0.2","","","-1","","","13","852","679","w","elianto","#f73b6a7A","-1","-1","1","0","[]","0","2","","","852","57","5","4","lose","no-go","0","0"
"pit-trial","126","969611","0.0-62.0","battery-v0.2","","","875","","","13","852","679","j","elianto","#f73b6a7A"," "," ","1","-10","[1726.8000000715256]","1","2","","","852","58","1","3","lose","go","1","0"
"pit-trial","127","974464","0.0-63.0","battery-v0.2","","","-1","","","13","852","679","d","elianto","#f73b6a7A","-1","-1","1","0","[]","0","2","","","852","59","2","4","lose","no-go","0","0"
"pit-trial","128","978074","0.0-64.0","battery-v0.2","","","757.7999999523163","","","13","852","679","e","elianto","#f73b6a7A"," "," ","1","0","[1608.0999999046326]","1","2","","","852","60","4","3","lose","go","0","0"
"pit-trial","129","982927","0.0-65.0","battery-v0.2","","","-1","","","13","852","679","d","elianto","#f73b6a7A","-1","-1","1","0","[]","0","2","","","852","61","2","4","lose","no-go","0","0"
"pit-trial","130","986530","0.0-66.0","battery-v0.2","","","749.6000000238419","","","13","852","679","e","elianto","#f73b6a7A"," "," ","1","-10","[1601.2000000476837]","1","2","","","852","62","4","3","lose","go","1","0"
"pit-trial","131","991384","0.0-67.0","battery-v0.2","","","-1","","","13","852","679","w","elianto","#f73b6a7A","-1","-1","1","0","[]","0","2","","","852","63","5","4","lose","no-go","0","0"
"pit-trial","132","995619","0.0-68.0","battery-v0.2","","","1381.2000000476837","","","13","852","679","s","elianto","#3366ff99","-1"," ","0","+10","[2231.899999976158]","1","2","","","852","64","6","2","win","no-go","1","0"
"pit-trial","133","999299","0.0-69.0","battery-v0.2","","","826.3999999761581","","","13","852","679","s","elianto","#3366ff99","-1"," ","0","0","[1677.2999999523163]","1","2","","","852","65","6","2","win","no-go","0","0"
"pit-trial","134","1003146","0.0-70.0","battery-v0.2","","","993.6999999284744","","","13","852","679","e","elianto","#f73b6a7A"," "," ","1","0","[1844.6999999284744,3652.7999999523163]","2","2","","","852","66","4","3","lose","go","0","0"
"pit-trial","135","1007999","0.0-71.0","battery-v0.2","","","-1","","","13","852","679","w","elianto","#f73b6a7A","-1","-1","1","0","[]","0","2","","","852","67","5","4","lose","no-go","0","0"
"pit-trial","136","1012853","0.0-72.0","battery-v0.2","","","-1","","","13","852","679","d","elianto","#f73b6a7A","-1","-1","1","-10","[]","0","2","","","852","68","2","4","lose","no-go","1","0"
"pit-trial","137","1017706","0.0-73.0","battery-v0.2","","","-1","","","13","852","679","w","elianto","#f73b6a7A","-1","-1","1","0","[]","0","2","","","852","69","5","4","lose","no-go","0","0"
"pit-trial","138","1021354","0.0-74.0","battery-v0.2","","","793","","","13","852","679","s","elianto","#3366ff99","-1"," ","0","0","[1644.8999999761581]","1","2","","","852","70","6","2","win","no-go","0","0"
"pit-trial","139","1025443","0.0-75.0","battery-v0.2","","","1234.8999999761581","","","13","852","679","p","elianto","#3366ff99"," "," ","1","+10","[2085]","1","2","","","852","71","7","1","win","go","0","0"
"pit-trial","140","1029011","0.0-76.0","battery-v0.2","","","714.7000000476837","","","13","852","679","e","elianto","#f73b6a7A"," "," ","1","0","[1564.7999999523163]","1","2","","","852","72","4","3","lose","go","0","0"
"pit-trial","141","1033875","0.0-77.0","battery-v0.2","","","-1","","","13","852","679","s","elianto","#3366ff99","-1","-1","1","+10","[]","0","2","","","852","73","6","2","win","no-go","0","0"
"pit-trial","142","1038730","0.0-78.0","battery-v0.2","","","-1","","","13","852","679","w","elianto","#f73b6a7A","-1","-1","1","0","[]","0","2","","","852","74","5","4","lose","no-go","0","0"
"pit-trial","143","1042475","0.0-79.0","battery-v0.2","","","891.5","","","13","852","679","p","elianto","#3366ff99"," "," ","1","0","[1741.7999999523163]","1","2","","","852","75","7","1","win","go","1","0"
"pit-trial","144","1046067","0.0-80.0","battery-v0.2","","","738.6999999284744","","","13","852","679","e","elianto","#f73b6a7A"," "," ","1","0","[1589.1000000238419]","1","2","","","852","76","4","3","lose","go","0","0"
"pit-trial","145","1050314","0.0-81.0","battery-v0.2","","","1394.3999999761581","","","13","852","679","p","elianto","#3366ff99"," "," ","1","0","[2244.600000023842]","1","2","","","852","77","7","1","win","go","1","0"
"pit-trial","146","1055169","0.0-82.0","battery-v0.2","","","-1","","","13","852","679","w","elianto","#f73b6a7A","-1","-1","1","0","[4356.800000071526]","1","2","","","852","78","5","4","lose","no-go","0","0"
"pit-trial","147","1060022","0.0-83.0","battery-v0.2","","","-1","","","13","852","679","s","elianto","#3366ff99","-1","-1","1","+10","[]","0","2","","","852","79","6","2","win","no-go","0","0"
"pit-trial","148","1063778","0.0-84.0","battery-v0.2","","","902.3999999761581","","","13","852","679","e","elianto","#f73b6a7A"," "," ","1","-10","[1752.8999999761581]","1","2","","","852","80","4","3","lose","go","1","0"
"pit-trial","149","1068632","0.0-85.0","battery-v0.2","","","-1","","","13","852","679","s","elianto","#3366ff99","-1","-1","1","+10","[]","0","2","","","852","81","6","2","win","no-go","0","0"
"pit-trial","150","1073485","0.0-86.0","battery-v0.2","","","-1","","","13","852","679","w","elianto","#f73b6a7A","-1","-1","1","0","[]","0","2","","","852","82","5","4","lose","no-go","0","0"
"pit-trial","151","1076995","0.0-87.0","battery-v0.2","","","656.3999999761581","","","13","852","679","e","elianto","#f73b6a7A"," "," ","1","0","[1506.8999999761581]","1","2","","","852","83","4","3","lose","go","0","0"
"pit-trial","152","1081848","0.0-88.0","battery-v0.2","","","-1","","","13","852","679","p","elianto","#3366ff99"," ","-1","0","0","[]","0","2","","","852","84","7","1","win","go","0","0"
"pit-trial","153","1086701","0.0-89.0","battery-v0.2","","","-1","","","13","852","679","s","elianto","#3366ff99","-1","-1","1","+10","[]","0","2","","","852","85","6","2","win","no-go","0","0"
"pit-trial","154","1091554","0.0-90.0","battery-v0.2","","","-1","","","13","852","679","w","elianto","#f73b6a7A","-1","-1","1","0","[]","0","2","","","852","86","5","4","lose","no-go","0","0"
"pit-trial","155","1096409","0.0-91.0","battery-v0.2","","","-1","","","13","852","679","p","elianto","#3366ff99"," ","-1","0","0","[]","0","2","","","852","87","7","1","win","go","0","0"
"pit-trial","156","1100170","0.0-92.0","battery-v0.2","","","908.3999999761581","","","13","852","679","e","elianto","#f73b6a7A"," "," ","1","0","[1758.8999999761581]","1","2","","","852","88","4","3","lose","go","0","0"
"pit-trial","157","1103763","0.0-93.0","battery-v0.2","","","740","","","13","852","679","e","elianto","#f73b6a7A"," "," ","1","-10","[1590.2000000476837]","1","2","","","852","89","4","3","lose","go","1","0"
"pit-trial","158","1107228","0.0-94.0","battery-v0.2","","","609.9000000953674","","","13","852","679","p","elianto","#3366ff99"," "," ","1","+10","[1461.4000000953674]","1","2","","","852","90","7","1","win","go","0","0"
"pit-trial","159","1112092","0.0-95.0","battery-v0.2","","","-1","","","13","852","679","w","elianto","#f73b6a7A","-1","-1","1","0","[]","0","2","","","852","91","5","4","lose","no-go","0","0"
"pit-trial","160","1116946","0.0-96.0","battery-v0.2","","","-1","","","13","852","679","s","elianto","#3366ff99","-1","-1","1","+10","[]","0","2","","","852","92","6","2","win","no-go","0","0"
"pit-trial","161","1121799","0.0-97.0","battery-v0.2","","","-1","","","13","852","679","g","elianto","#3366ff99"," ","-1","0","+10","[]","0","2","","","852","93","8","1","win","go","1","0"
"pit-trial","162","1126652","0.0-98.0","battery-v0.2","","","-1","","","13","852","679","s","elianto","#3366ff99","-1","-1","1","+10","[]","0","2","","","852","94","6","2","win","no-go","0","0"
"pit-trial","163","1130435","0.0-99.0","battery-v0.2","","","929.6000000238419","","","13","852","679","p","elianto","#3366ff99"," "," ","1","0","[1780.3000000715256]","1","2","","","852","95","7","1","win","go","1","0"
"pit-trial","164","1134044","0.0-100.0","battery-v0.2","","","754.5","","","13","852","679","e","elianto","#f73b6a7A"," "," ","1","0","[1604.7999999523163]","1","2","","","852","96","4","3","lose","go","0","0"
"pit-trial","165","1137610","0.0-101.0","battery-v0.2","","","713.2999999523163","","","13","852","679","e","elianto","#f73b6a7A"," "," ","1","0","[1564.2999999523163]","1","2","","","852","97","4","3","lose","go","0","0"
"pit-trial","166","1142465","0.0-102.0","battery-v0.2","","","-1","","","13","852","679","s","elianto","#3366ff99","-1","-1","1","+10","[581.6999999284744]","1","2","","","852","98","6","2","win","no-go","0","0"
"pit-trial","167","1147132","0.0-103.0","battery-v0.2","","","1812.7999999523163","","","13","852","679","p","elianto","#3366ff99"," "," ","1","+10","[2663.6999999284744]","1","2","","","852","99","7","1","win","go","0","0"
"pit-trial","168","1151985","0.0-104.0","battery-v0.2","","","-1","","","13","852","679","g","elianto","#3366ff99"," ","-1","0","0","[4652.599999904633]","1","2","","","852","100","8","1","win","go","0","0"
"pit-trial","169","1156229","0.0-105.0","battery-v0.2","","","1388.3999999761581","","","13","852","679","a","elianto","#3366ff99","-1"," ","0","0","[2238.6999999284744]","1","2","","","852","101","9","2","win","no-go","0","0"
"pit-trial","170","1160580","0.0-106.0","battery-v0.2","","","1498","","","13","852","679","s","elianto","#3366ff99","-1"," ","0","+10","[2348.2999999523163]","1","2","","","852","102","6","2","win","no-go","1","0"
"pit-trial","171","1165434","0.0-107.0","battery-v0.2","","","-1","","","13","852","679","g","elianto","#3366ff99"," ","-1","0","0","[]","0","2","","","852","103","8","1","win","go","0","0"
"pit-trial","172","1169515","0.0-108.0","battery-v0.2","","","1227.6000000238419","","","13","852","679","p","elianto","#3366ff99"," "," ","1","0","[2078.8000000715256]","1","2","","","852","104","7","1","win","go","1","0"
"pit-trial","173","1174370","0.0-109.0","battery-v0.2","","","-1","","","13","852","679","a","elianto","#3366ff99","-1","-1","1","+10","[]","0","2","","","852","105","9","2","win","no-go","0","0"
"pit-trial","174","1177868","0.0-110.0","battery-v0.2","","","645.3000000715256","","","13","852","679","p","elianto","#3366ff99"," "," ","1","0","[1495.5]","1","2","","","852","106","7","1","win","go","1","0"
"pit-trial","175","1182721","0.0-111.0","battery-v0.2","","","-1","","","13","852","679","s","elianto","#3366ff99","-1","-1","1","+10","[]","0","2","","","852","107","6","2","win","no-go","0","0"
"pit-trial","176","1186354","0.0-112.0","battery-v0.2","","","781.3999999761581","","","13","852","679","g","elianto","#3366ff99"," "," ","1","+10","[1631.3999999761581]","1","2","","","852","108","8","1","win","go","0","0"
"pit-trial","177","1191208","0.0-113.0","battery-v0.2","","","-1","","","13","852","679","a","elianto","#3366ff99","-1","-1","1","0","[]","0","2","","","852","109","9","2","win","no-go","1","0"
"pit-trial","178","1195147","0.0-114.0","battery-v0.2","","","1084.6000000238419","","","13","852","679","l","elianto","#f73b6a7A"," "," ","1","-10","[1936.6000000238419]","1","2","","","852","110","10","3","lose","go","1","0"
"pit-trial","179","1199180","0.0-115.0","battery-v0.2","","","1179.6000000238419","","","13","852","679","g","elianto","#3366ff99"," "," ","1","0","[2029.7000000476837]","1","2","","","852","111","8","1","win","go","1","0"
"pit-trial","180","1203267","0.0-116.0","battery-v0.2","","","1233.8999999761581","","","13","852","679","u","elianto","#f73b6a7A","-1"," ","0","-10","[2084.7999999523163]","1","2","","","852","112","11","4","lose","no-go","0","0"
"pit-trial","181","1208121","0.0-117.0","battery-v0.2","","","-1","","","13","852","679","a","elianto","#3366ff99","-1","-1","1","+10","[]","0","2","","","852","113","9","2","win","no-go","0","0"
"pit-trial","182","1211652","0.0-118.0","battery-v0.2","","","677.3000000715256","","","13","852","679","g","elianto","#3366ff99"," "," ","1","+10","[1527.8999999761581]","1","2","","","852","114","8","1","win","go","0","0"
"pit-trial","183","1216505","0.0-119.0","battery-v0.2","","","-1","","","13","852","679","u","elianto","#f73b6a7A","-1","-1","1","0","[]","0","2","","","852","115","11","4","lose","no-go","0","0"
"pit-trial","184","1221359","0.0-120.0","battery-v0.2","","","-1","","","13","852","679","l","elianto","#f73b6a7A"," ","-1","0","0","[]","0","2","","","852","116","10","3","lose","go","1","0"
"pit-trial","185","1226213","0.0-121.0","battery-v0.2","","","-1","","","13","852","679","a","elianto","#3366ff99","-1","-1","1","+10","[]","0","2","","","852","117","9","2","win","no-go","0","0"
"pit-trial","186","1231066","0.0-122.0","battery-v0.2","","","-1","","","13","852","679","u","elianto","#f73b6a7A","-1","-1","1","0","[]","0","2","","","852","118","11","4","lose","no-go","0","0"
"pit-trial","187","1234475","0.0-123.0","battery-v0.2","","","556.4000000953674","","","13","852","679","g","elianto","#3366ff99"," "," ","1","+10","[1406.6000000238419]","1","2","","","852","119","8","1","win","go","0","0"
"pit-trial","188","1238507","0.0-124.0","battery-v0.2","","","1178.6000000238419","","","13","852","679","l","elianto","#f73b6a7A"," "," ","1","0","[2029]","1","2","","","852","120","10","3","lose","go","0","0"
"pit-trial","189","1243361","0.0-125.0","battery-v0.2","","","-1","","","13","852","679","a","elianto","#3366ff99","-1","-1","1","0","[]","0","2","","","852","121","9","2","win","no-go","1","0"
"pit-trial","190","1246843","0.0-126.0","battery-v0.2","","","628.5999999046326","","","13","852","679","g","elianto","#3366ff99"," "," ","1","0","[1480]","1","2","","","852","122","8","1","win","go","1","0"
"pit-trial","191","1251697","0.0-127.0","battery-v0.2","","","-1","","","13","852","679","u","elianto","#f73b6a7A","-1","-1","1","-10","[]","0","2","","","852","123","11","4","lose","no-go","1","0"
"pit-trial","192","1256551","0.0-128.0","battery-v0.2","","","-1","","","13","852","679","l","elianto","#f73b6a7A"," ","-1","0","-10","[]","0","2","","","852","124","10","3","lose","go","0","0"
"pit-trial","193","1261405","0.0-129.0","battery-v0.2","","","-1","","","13","852","679","l","elianto","#f73b6a7A"," ","-1","0","-10","[]","0","2","","","852","125","10","3","lose","go","0","0"
"pit-trial","194","1266258","0.0-130.0","battery-v0.2","","","-1","","","13","852","679","a","elianto","#3366ff99","-1","-1","1","+10","[]","0","2","","","852","126","9","2","win","no-go","0","0"
"pit-trial","195","1270540","0.0-131.0","battery-v0.2","","","1426.8000000715256","","","13","852","679","u","elianto","#f73b6a7A","-1"," ","0","0","[2278.399999976158]","1","2","","","852","127","11","4","lose","no-go","1","0"
"pit-trial","196","1274196","0.0-132.0","battery-v0.2","","","803","","","13","852","679","g","elianto","#3366ff99"," "," ","1","+10","[1653.2999999523163,3644.7000000476837]","2","2","","","852","128","8","1","win","go","0","0"
"pit-trial","197","1277764","0.0-133.0","battery-v0.2","","","714.3999999761581","","","13","852","679","g","elianto","#3366ff99"," "," ","1","+10","[1564.7999999523163]","1","2","","","852","129","8","1","win","go","0","0"
"pit-trial","198","1281700","0.0-134.0","battery-v0.2","","","1083","","","13","852","679","l","elianto","#f73b6a7A"," "," ","1","0","[1933.2000000476837]","1","2","","","852","130","10","3","lose","go","0","0"
"pit-trial","199","1285180","0.0-135.0","battery-v0.2","","","627.2000000476837","","","13","852","679","u","elianto","#f73b6a7A","-1"," ","0","-10","[1477.4000000953674]","1","2","","","852","131","11","4","lose","no-go","0","0"
"pit-trial","200","1290034","0.0-136.0","battery-v0.2","","","-1","","","13","852","679","a","elianto","#3366ff99","-1","-1","1","+10","[]","0","2","","","852","132","9","2","win","no-go","0","0"
"pit-trial","201","1293756","0.0-137.0","battery-v0.2","","","868.5","","","13","852","679","u","elianto","#f73b6a7A","-1"," ","0","-10","[1719.5999999046326]","1","2","","","852","133","11","4","lose","no-go","0","0"
"pit-trial","202","1297260","0.0-138.0","battery-v0.2","","","650","","","13","852","679","l","elianto","#f73b6a7A"," "," ","1","0","[1500.8999999761581]","1","2","","","852","134","10","3","lose","go","0","0"
"pit-trial","203","1302114","0.0-139.0","battery-v0.2","","","-1","","","13","852","679","a","elianto","#3366ff99","-1","-1","1","+10","[]","0","2","","","852","135","9","2","win","no-go","0","0"
"pit-trial","204","1305740","0.0-140.0","battery-v0.2","","","772.2000000476837","","","13","852","679","g","elianto","#3366ff99"," "," ","1","+10","[1623.3999999761581]","1","2","","","852","136","8","1","win","go","0","0"
"pit-trial","205","1310594","0.0-141.0","battery-v0.2","","","-1","","","13","852","679","u","elianto","#f73b6a7A","-1","-1","1","0","[]","0","2","","","852","137","11","4","lose","no-go","0","0"
"pit-trial","206","1315447","0.0-142.0","battery-v0.2","","","-1","","","13","852","679","a","elianto","#3366ff99","-1","-1","1","0","[]","0","2","","","852","138","9","2","win","no-go","1","0"
"pit-trial","207","1319310","0.0-143.0","battery-v0.2","","","1008.6000000238419","","","13","852","679","l","elianto","#f73b6a7A"," "," ","1","0","[1858.7999999523163]","1","2","","","852","139","10","3","lose","go","0","0"
"pit-trial","208","1322757","0.0-144.0","battery-v0.2","","","592.5999999046326","","","13","852","679","g","elianto","#3366ff99"," "," ","1","+10","[1444.5999999046326]","1","2","","","852","140","8","1","win","go","0","0"
"pit-instructions","209","1340739","0.0-145.0","battery-v0.2","","[{""page_index"":0,""viewing_time"":9196.699999928474},{""page_index"":1,""viewing_time"":8784.100000023842}]","17981.099999904633","","","","","","","","","","","","","","","","","","","","","","","","",""
"pit-trial","210","1344661","0.0-146.0","battery-v0.2","","","1049.6000000238419","","","13","852","679","x","elianto","#f73b6a7A"," "," ","1","0","[1900.6999999284744]","1","3","","","852","141","3","3","lose","go","0","0"
"pit-trial","211","1349543","0.0-147.0","battery-v0.2","","","-1","","","13","852","679","q","elianto","#3366ff99","-1","-1","1","0","[]","0","3","","","852","142","0","2","win","no-go","1","0"
"pit-trial","212","1354419","0.0-148.0","battery-v0.2","","","-1","","","13","852","679","f","elianto","#3366ff99"," ","-1","0","+10","[]","0","3","","","852","143","2","1","win","go","1","0"
"pit-trial","213","1359282","0.0-149.0","battery-v0.2","","","-1","","","13","852","679","n","elianto","#3366ff99","-1","-1","1","+10","[]","0","3","","","852","144","1","2","win","no-go","0","0"
"pit-trial","214","1363163","0.0-150.0","battery-v0.2","","","1020.3999999761581","","","13","852","679","q","elianto","#3366ff99","-1"," ","0","0","[1870.6999999284744]","1","3","","","852","145","0","2","win","no-go","0","0"
"pit-trial","215","1368033","0.0-151.0","battery-v0.2","","","-1","","","13","852","679","f","elianto","#3366ff99"," ","-1","0","0","[]","0","3","","","852","146","2","1","win","go","0","0"
"pit-trial","216","1371796","0.0-152.0","battery-v0.2","","","909.9000000953674","","","13","852","679","x","elianto","#f73b6a7A"," "," ","1","0","[1759.8000000715256]","1","3","","","852","147","3","3","lose","go","0","0"
"pit-trial","217","1376650","0.0-153.0","battery-v0.2","","","-1","","","13","852","679","n","elianto","#3366ff99","-1","-1","1","+10","[]","0","3","","","852","148","1","2","win","no-go","0","0"
"pit-trial","218","1381504","0.0-154.0","battery-v0.2","","","-1","","","13","852","679","n","elianto","#3366ff99","-1","-1","1","+10","[]","0","3","","","852","149","1","2","win","no-go","0","0"
"pit-trial","219","1385012","0.0-155.0","battery-v0.2","","","654.0999999046326","","","13","852","679","x","elianto","#f73b6a7A"," "," ","1","0","[1505.2999999523163]","1","3","","","852","150","3","3","lose","go","0","0"
"pit-trial","220","1389867","0.0-156.0","battery-v0.2","","","-1","","","13","852","679","f","elianto","#3366ff99"," ","-1","0","0","[]","0","3","","","852","151","2","1","win","go","0","0"
"pit-trial","221","1393476","0.0-157.0","battery-v0.2","","","756","","","13","852","679","q","elianto","#3366ff99","-1"," ","0","0","[1606.5]","1","3","","","852","152","0","2","win","no-go","0","0"
"pit-trial","222","1397604","0.0-158.0","battery-v0.2","","","1273.0999999046326","","","13","852","679","x","elianto","#f73b6a7A"," "," ","1","-10","[2124.9000000953674,2405]","2","3","","","852","153","3","3","lose","go","1","0"
"pit-trial","223","1402459","0.0-159.0","battery-v0.2","","","-1","","","13","852","679","f","elianto","#3366ff99"," ","-1","0","+10","[]","0","3","","","852","154","2","1","win","go","1","0"
"pit-trial","224","1407313","0.0-160.0","battery-v0.2","","","-1","","","13","852","679","q","elianto","#3366ff99","-1","-1","1","+10","[]","0","3","","","852","155","0","2","win","no-go","0","0"
"pit-trial","225","1412167","0.0-161.0","battery-v0.2","","","-1","","","13","852","679","n","elianto","#3366ff99","-1","-1","1","+10","[]","0","3","","","852","156","1","2","win","no-go","0","0"
"pit-trial","226","1417020","0.0-162.0","battery-v0.2","","","-1","","","13","852","679","q","elianto","#3366ff99","-1","-1","1","+10","[]","0","3","","","852","157","0","2","win","no-go","0","0"
"pit-trial","227","1421874","0.0-163.0","battery-v0.2","","","-1","","","13","852","679","f","elianto","#3366ff99"," ","-1","0","0","[]","0","3","","","852","158","2","1","win","go","0","0"
"pit-trial","228","1425341","0.0-164.0","battery-v0.2","","","614.2999999523163","","","13","852","679","x","elianto","#f73b6a7A"," "," ","1","0","[1464.5]","1","3","","","852","159","3","3","lose","go","0","0"
"pit-trial","229","1430195","0.0-165.0","battery-v0.2","","","-1","","","13","852","679","n","elianto","#3366ff99","-1","-1","1","+10","[]","0","3","","","852","160","1","2","win","no-go","0","0"
"pit-trial","230","1433789","0.0-166.0","battery-v0.2","","","740.8000000715256","","","13","852","679","x","elianto","#f73b6a7A"," "," ","1","0","[1590.8999999761581]","1","3","","","852","161","3","3","lose","go","0","0"
"pit-trial","231","1438642","0.0-167.0","battery-v0.2","","","-1","","","13","852","679","n","elianto","#3366ff99","-1","-1","1","+10","[]","0","3","","","852","162","1","2","win","no-go","0","0"
"pit-trial","232","1442213","0.0-168.0","battery-v0.2","","","719.1000000238419","","","13","852","679","f","elianto","#3366ff99"," "," ","1","+10","[1569.1999999284744]","1","3","","","852","163","2","1","win","go","0","0"
"pit-trial","233","1447066","0.0-169.0","battery-v0.2","","","-1","","","13","852","679","q","elianto","#3366ff99","-1","-1","1","0","[]","0","3","","","852","164","0","2","win","no-go","1","0"
"pit-trial","234","1450621","0.0-170.0","battery-v0.2","","","701.3000000715256","","","13","852","679","x","elianto","#f73b6a7A"," "," ","1","0","[1551.8000000715256]","1","3","","","852","165","3","3","lose","go","0","0"
"pit-trial","235","1455475","0.0-171.0","battery-v0.2","","","-1","","","13","852","679","n","elianto","#3366ff99","-1","-1","1","0","[]","0","3","","","852","166","1","2","win","no-go","1","0"
"pit-trial","236","1460329","0.0-172.0","battery-v0.2","","","-1","","","13","852","679","q","elianto","#3366ff99","-1","-1","1","0","[]","0","3","","","852","167","0","2","win","no-go","1","0"
"pit-trial","237","1463846","0.0-173.0","battery-v0.2","","","663.1999999284744","","","13","852","679","f","elianto","#3366ff99"," "," ","1","+10","[1513.8999999761581]","1","3","","","852","168","2","1","win","go","0","0"
"pit-trial","238","1467494","0.0-174.0","battery-v0.2","","","795.1000000238419","","","13","852","679","f","elianto","#3366ff99"," "," ","1","+10","[1645.0999999046326]","1","3","","","852","169","2","1","win","go","0","0"
"pit-trial","239","1472349","0.0-175.0","battery-v0.2","","","-1","","","13","852","679","n","elianto","#3366ff99","-1","-1","1","0","[]","0","3","","","852","170","1","2","win","no-go","1","0"
"pit-trial","240","1476702","0.0-176.0","battery-v0.2","","","1499.1000000238419","","","13","852","679","q","elianto","#3366ff99","-1"," ","0","0","[2350.100000023842]","1","3","","","852","171","0","2","win","no-go","0","0"
"pit-trial","241","1480173","0.0-177.0","battery-v0.2","","","618.1000000238419","","","13","852","679","x","elianto","#f73b6a7A"," "," ","1","0","[1468.8999999761581]","1","3","","","852","172","3","3","lose","go","0","0"
"pit-trial","242","1485028","0.0-178.0","battery-v0.2","","","-1","","","13","852","679","q","elianto","#3366ff99","-1","-1","1","0","[]","0","3","","","852","173","0","2","win","no-go","1","0"
"pit-trial","243","1488607","0.0-179.0","battery-v0.2","","","724.7999999523163","","","13","852","679","f","elianto","#3366ff99"," "," ","1","+10","[1575.2999999523163]","1","3","","","852","174","2","1","win","go","0","0"
"pit-trial","244","1492758","0.0-180.0","battery-v0.2","","","1297.2999999523163","","","13","852","679","t","elianto","#f73b6a7A","-1"," ","0","-10","[2147.7999999523163]","1","3","","","852","175","4","4","lose","no-go","0","0"
"pit-trial","245","1497134","0.0-181.0","battery-v0.2","","","1522.4000000953674","","","13","852","679","b","elianto","#f73b6a7A"," "," ","1","0","[2373]","1","3","","","852","176","5","3","lose","go","0","0"
"pit-trial","246","1501238","0.0-182.0","battery-v0.2","","","1250.6000000238419","","","13","852","679","f","elianto","#3366ff99"," "," ","1","+10","[2101.2999999523163]","1","3","","","852","177","2","1","win","go","0","0"
"pit-trial","247","1506092","0.0-183.0","battery-v0.2","","","-1","","","13","852","679","q","elianto","#3366ff99","-1","-1","1","+10","[]","0","3","","","852","178","0","2","win","no-go","0","0"
"pit-trial","248","1509677","0.0-184.0","battery-v0.2","","","732.2000000476837","","","13","852","679","b","elianto","#f73b6a7A"," "," ","1","0","[1582.3999999761581]","1","3","","","852","179","5","3","lose","go","0","0"
"pit-trial","249","1514530","0.0-185.0","battery-v0.2","","","-1","","","13","852","679","t","elianto","#f73b6a7A","-1","-1","1","0","[]","0","3","","","852","180","4","4","lose","no-go","0","0"
"pit-trial","250","1518805","0.0-186.0","battery-v0.2","","","1421.9000000953674","","","13","852","679","c","elianto","#3366ff99","-1"," ","0","0","[2272.4000000953674]","1","3","","","852","181","6","2","win","no-go","0","0"
"pit-trial","251","1522430","0.0-187.0","battery-v0.2","","","771.6000000238419","","","13","852","679","b","elianto","#f73b6a7A"," "," ","1","0","[1622.2000000476837]","1","3","","","852","182","5","3","lose","go","0","0"
"pit-trial","252","1527283","0.0-188.0","battery-v0.2","","","-1","","","13","852","679","t","elianto","#f73b6a7A","-1","-1","1","0","[]","0","3","","","852","183","4","4","lose","no-go","0","0"
"pit-trial","253","1531222","0.0-189.0","battery-v0.2","","","1084.7000000476837","","","13","852","679","f","elianto","#3366ff99"," "," ","1","+10","[1936.3999999761581]","1","3","","","852","184","2","1","win","go","0","0"
"pit-trial","254","1534822","0.0-190.0","battery-v0.2","","","746.5","","","13","852","679","f","elianto","#3366ff99"," "," ","1","+10","[1597.0999999046326]","1","3","","","852","185","2","1","win","go","0","0"
"pit-trial","255","1538445","0.0-191.0","battery-v0.2","","","770.7000000476837","","","13","852","679","b","elianto","#f73b6a7A"," "," ","1","-10","[1620.7000000476837]","1","3","","","852","186","5","3","lose","go","1","0"
"pit-trial","256","1543298","0.0-192.0","battery-v0.2","","","-1","","","13","852","679","c","elianto","#3366ff99","-1","-1","1","0","[]","0","3","","","852","187","6","2","win","no-go","1","0"
"pit-trial","257","1547197","0.0-193.0","battery-v0.2","","","1046.4000000953674","","","13","852","679","t","elianto","#f73b6a7A","-1"," ","0","0","[1897]","1","3","","","852","188","4","4","lose","no-go","1","0"
"pit-trial","258","1552051","0.0-194.0","battery-v0.2","","","-1","","","13","852","679","z","elianto","#f73b6a7A","-1","-1","1","0","[]","0","3","","","852","189","7","4","lose","no-go","0","0"
"pit-trial","259","1556904","0.0-195.0","battery-v0.2","","","-1","","","13","852","679","t","elianto","#f73b6a7A","-1","-1","1","0","[]","0","3","","","852","190","4","4","lose","no-go","0","0"
"pit-trial","260","1560607","0.0-196.0","battery-v0.2","","","847.1999999284744","","","13","852","679","b","elianto","#f73b6a7A"," "," ","1","0","[1698.7999999523163]","1","3","","","852","191","5","3","lose","go","0","0"
"pit-trial","261","1564526","0.0-197.0","battery-v0.2","","","1066.1000000238419","","","13","852","679","c","elianto","#3366ff99","-1"," ","0","0","[1916.3999999761581]","1","3","","","852","192","6","2","win","no-go","0","0"
"pit-trial","262","1569381","0.0-198.0","battery-v0.2","","","-1","","","13","852","679","c","elianto","#3366ff99","-1","-1","1","+10","[]","0","3","","","852","193","6","2","win","no-go","0","0"
"pit-trial","263","1574233","0.0-199.0","battery-v0.2","","","-1","","","13","852","679","z","elianto","#f73b6a7A","-1","-1","1","0","[]","0","3","","","852","194","7","4","lose","no-go","0","0"
"pit-trial","264","1579087","0.0-200.0","battery-v0.2","","","-1","","","13","852","679","t","elianto","#f73b6a7A","-1","-1","1","0","[]","0","3","","","852","195","4","4","lose","no-go","0","0"
"pit-trial","265","1582742","0.0-201.0","battery-v0.2","","","799.7999999523163","","","13","852","679","b","elianto","#f73b6a7A"," "," ","1","0","[1651.6999999284744]","1","3","","","852","196","5","3","lose","go","0","0"
"pit-trial","266","1587597","0.0-202.0","battery-v0.2","","","-1","","","13","852","679","z","elianto","#f73b6a7A","-1","-1","1","0","[]","0","3","","","852","197","7","4","lose","no-go","0","0"
"pit-trial","267","1591445","0.0-203.0","battery-v0.2","","","994.3000000715256","","","13","852","679","b","elianto","#f73b6a7A"," "," ","1","0","[1845.3000000715256]","1","3","","","852","198","5","3","lose","go","0","0"
"pit-trial","268","1596299","0.0-204.0","battery-v0.2","","","-1","","","13","852","679","c","elianto","#3366ff99","-1","-1","1","0","[]","0","3","","","852","199","6","2","win","no-go","1","0"
"pit-trial","269","1601153","0.0-205.0","battery-v0.2","","","-1","","","13","852","679","t","elianto","#f73b6a7A","-1","-1","1","0","[]","0","3","","","852","200","4","4","lose","no-go","0","0"
"pit-trial","270","1606008","0.0-206.0","battery-v0.2","","","-1","","","13","852","679","z","elianto","#f73b6a7A","-1","-1","1","0","[]","0","3","","","852","201","7","4","lose","no-go","0","0"
"pit-trial","271","1609382","0.0-207.0","battery-v0.2","","","520.1000000238419","","","13","852","679","b","elianto","#f73b6a7A"," "," ","1","0","[1370.8000000715256]","1","3","","","852","202","5","3","lose","go","0","0"
"pit-trial","272","1614236","0.0-208.0","battery-v0.2","","","-1","","","13","852","679","t","elianto","#f73b6a7A","-1","-1","1","0","[]","0","3","","","852","203","4","4","lose","no-go","0","0"
"pit-trial","273","1617806","0.0-209.0","battery-v0.2","","","716.4000000953674","","","13","852","679","c","elianto","#3366ff99","-1"," ","0","0","[1566.8999999761581]","1","3","","","852","204","6","2","win","no-go","0","0"
"pit-trial","274","1622659","0.0-210.0","battery-v0.2","","","-1","","","13","852","679","z","elianto","#f73b6a7A","-1","-1","1","0","[]","0","3","","","852","205","7","4","lose","no-go","0","0"
"pit-trial","275","1627512","0.0-211.0","battery-v0.2","","","-1","","","13","852","679","t","elianto","#f73b6a7A","-1","-1","1","0","[]","0","3","","","852","206","4","4","lose","no-go","0","0"
"pit-trial","276","1632366","0.0-212.0","battery-v0.2","","","-1","","","13","852","679","c","elianto","#3366ff99","-1","-1","1","+10","[]","0","3","","","852","207","6","2","win","no-go","0","0"
"pit-trial","277","1635958","0.0-213.0","battery-v0.2","","","738.2999999523163","","","13","852","679","b","elianto","#f73b6a7A"," "," ","1","0","[1588.6999999284744]","1","3","","","852","208","5","3","lose","go","0","0"
"pit-trial","278","1640812","0.0-214.0","battery-v0.2","","","-1","","","13","852","679","b","elianto","#f73b6a7A"," ","-1","0","-10","[]","0","3","","","852","209","5","3","lose","go","0","0"
"pit-trial","279","1645666","0.0-215.0","battery-v0.2","","","-1","","","13","852","679","t","elianto","#f73b6a7A","-1","-1","1","0","[]","0","3","","","852","210","4","4","lose","no-go","0","0"
"pit-trial","280","1650521","0.0-216.0","battery-v0.2","","","-1","","","13","852","679","z","elianto","#f73b6a7A","-1","-1","1","0","[]","0","3","","","852","211","7","4","lose","no-go","0","0"
"pit-trial","281","1655374","0.0-217.0","battery-v0.2","","","-1","","","13","852","679","c","elianto","#3366ff99","-1","-1","1","+10","[]","0","3","","","852","212","6","2","win","no-go","0","0"
"pit-trial","282","1660227","0.0-218.0","battery-v0.2","","","-1","","","13","852","679","z","elianto","#f73b6a7A","-1","-1","1","0","[]","0","3","","","852","213","7","4","lose","no-go","0","0"
"pit-trial","283","1663727","0.0-219.0","battery-v0.2","","","645.7000000476837","","","13","852","679","b","elianto","#f73b6a7A"," "," ","1","0","[1496.3999999761581]","1","3","","","852","214","5","3","lose","go","0","0"
"pit-trial","284","1668581","0.0-220.0","battery-v0.2","","","-1","","","13","852","679","h","elianto","#f73b6a7A","-1","-1","1","0","[]","0","3","","","852","215","8","4","lose","no-go","0","0"
"pit-trial","285","1673435","0.0-221.0","battery-v0.2","","","-1","","","13","852","679","c","elianto","#3366ff99","-1","-1","1","+10","[]","0","3","","","852","216","6","2","win","no-go","0","0"
"pit-trial","286","1678288","0.0-222.0","battery-v0.2","","","-1","","","13","852","679","c","elianto","#3366ff99","-1","-1","1","+10","[528.3000000715256]","1","3","","","852","217","6","2","win","no-go","0","0"
"pit-trial","287","1683143","0.0-223.0","battery-v0.2","","","-1","","","13","852","679","h","elianto","#f73b6a7A","-1","-1","1","-10","[]","0","3","","","852","218","8","4","lose","no-go","1","0"
"pit-trial","288","1687997","0.0-224.0","battery-v0.2","","","-1","","","13","852","679","z","elianto","#f73b6a7A","-1","-1","1","0","[]","0","3","","","852","219","7","4","lose","no-go","0","0"
"pit-trial","289","1691631","0.0-225.0","battery-v0.2","","","778.7000000476837","","","13","852","679","b","elianto","#f73b6a7A"," "," ","1","0","[1630.2999999523163]","1","3","","","852","220","5","3","lose","go","0","0"
"pit-trial","290","1696485","0.0-226.0","battery-v0.2","","","-1","","","13","852","679","c","elianto","#3366ff99","-1","-1","1","+10","[]","0","3","","","852","221","6","2","win","no-go","0","0"
"pit-trial","291","1701038","0.0-227.0","battery-v0.2","","","1700.5","","","13","852","679","y","elianto","#3366ff99"," "," ","1","+10","[2550.7000000476837]","1","3","","","852","222","9","1","win","go","0","0"
"pit-trial","292","1704654","0.0-228.0","battery-v0.2","","","763","","","13","852","679","h","elianto","#f73b6a7A","-1"," ","0","-10","[1613.6000000238419]","1","3","","","852","223","8","4","lose","no-go","0","0"
"pit-trial","293","1709509","0.0-229.0","battery-v0.2","","","-1","","","13","852","679","r","elianto","#f73b6a7A"," ","-1","0","-10","[]","0","3","","","852","224","10","3","lose","go","0","0"
"pit-trial","294","1714363","0.0-230.0","battery-v0.2","","","-1","","","13","852","679","c","elianto","#3366ff99","-1","-1","1","+10","[]","0","3","","","852","225","6","2","win","no-go","0","0"
"pit-trial","295","1719217","0.0-231.0","battery-v0.2","","","-1","","","13","852","679","h","elianto","#f73b6a7A","-1","-1","1","0","[]","0","3","","","852","226","8","4","lose","no-go","0","0"
"pit-trial","296","1722951","0.0-232.0","battery-v0.2","","","879.1999999284744","","","13","852","679","y","elianto","#3366ff99"," "," ","1","+10","[1731.1000000238419]","1","3","","","852","227","9","1","win","go","0","0"
"pit-trial","297","1726471","0.0-233.0","battery-v0.2","","","665.1999999284744","","","13","852","679","r","elianto","#f73b6a7A"," "," ","1","0","[1516.3000000715256]","1","3","","","852","228","10","3","lose","go","0","0"
"pit-trial","298","1730351","0.0-234.0","battery-v0.2","","","1025.8999999761581","","","13","852","679","y","elianto","#3366ff99"," "," ","1","+10","[1876.3999999761581]","1","3","","","852","229","9","1","win","go","0","0"
"pit-trial","299","1733887","0.0-235.0","battery-v0.2","","","682.8999999761581","","","13","852","679","r","elianto","#f73b6a7A"," "," ","1","0","[1533.1999999284744]","1","3","","","852","230","10","3","lose","go","0","0"
"pit-trial","300","1738741","0.0-236.0","battery-v0.2","","","-1","","","13","852","679","m","elianto","#3366ff99"," ","-1","0","0","[2980.600000023842]","1","3","","","852","231","11","1","win","go","0","0"
"pit-trial","301","1743594","0.0-237.0","battery-v0.2","","","-1","","","13","852","679","h","elianto","#f73b6a7A","-1","-1","1","0","[]","0","3","","","852","232","8","4","lose","no-go","0","0"
"pit-trial","302","1748447","0.0-238.0","battery-v0.2","","","-1","","","13","852","679","h","elianto","#f73b6a7A","-1","-1","1","0","[]","0","3","","","852","233","8","4","lose","no-go","0","0"
"pit-trial","303","1752127","0.0-239.0","battery-v0.2","","","827.2999999523163","","","13","852","679","r","elianto","#f73b6a7A"," "," ","1","0","[1677.6999999284744]","1","3","","","852","234","10","3","lose","go","0","0"
"pit-trial","304","1755639","0.0-240.0","battery-v0.2","","","659.3999999761581","","","13","852","679","m","elianto","#3366ff99"," "," ","1","+10","[1509.5]","1","3","","","852","235","11","1","win","go","0","0"
"pit-trial","305","1759151","0.0-241.0","battery-v0.2","","","658.8000000715256","","","13","852","679","y","elianto","#3366ff99"," "," ","1","0","[1509.6000000238419]","1","3","","","852","236","9","1","win","go","1","0"
"pit-trial","306","1762918","0.0-242.0","battery-v0.2","","","914.1000000238419","","","13","852","679","r","elianto","#f73b6a7A"," "," ","1","0","[1764.8999999761581]","1","3","","","852","237","10","3","lose","go","0","0"
"pit-trial","307","1767772","0.0-243.0","battery-v0.2","","","-1","","","13","852","679","h","elianto","#f73b6a7A","-1","-1","1","-10","[]","0","3","","","852","238","8","4","lose","no-go","1","0"
"pit-trial","308","1771486","0.0-244.0","battery-v0.2","","","861.5","","","13","852","679","y","elianto","#3366ff99"," "," ","1","+10","[1711.8999999761581]","1","3","","","852","239","9","1","win","go","0","0"
"pit-trial","309","1774854","0.0-245.0","battery-v0.2","","","515.2000000476837","","","13","852","679","m","elianto","#3366ff99"," "," ","1","+10","[1366.2000000476837]","1","3","","","852","240","11","1","win","go","0","0"
"pit-trial","310","1778655","0.0-246.0","battery-v0.2","","","947.1000000238419","","","13","852","679","y","elianto","#3366ff99"," "," ","1","+10","[1797.0999999046326]","1","3","","","852","241","9","1","win","go","0","0"
"pit-trial","311","1782046","0.0-247.0","battery-v0.2","","","537.1999999284744","","","13","852","679","m","elianto","#3366ff99"," "," ","1","0","[1388.6999999284744]","1","3","","","852","242","11","1","win","go","1","0"
"pit-trial","312","1786900","0.0-248.0","battery-v0.2","","","-1","","","13","852","679","h","elianto","#f73b6a7A","-1","-1","1","0","[4605.299999952316]","1","3","","","852","243","8","4","lose","no-go","0","0"
"pit-trial","313","1790534","0.0-249.0","battery-v0.2","","","781","","","13","852","679","r","elianto","#f73b6a7A"," "," ","1","0","[1631.7000000476837]","1","3","","","852","244","10","3","lose","go","0","0"
"pit-trial","314","1794118","0.0-250.0","battery-v0.2","","","731","","","13","852","679","m","elianto","#3366ff99"," "," ","1","+10","[1581.6999999284744]","1","3","","","852","245","11","1","win","go","0","0"
"pit-trial","315","1797534","0.0-251.0","battery-v0.2","","","562.9000000953674","","","13","852","679","y","elianto","#3366ff99"," "," ","1","+10","[1413.1000000238419]","1","3","","","852","246","9","1","win","go","0","0"
"pit-trial","316","1802388","0.0-252.0","battery-v0.2","","","-1","","","13","852","679","h","elianto","#f73b6a7A","-1","-1","1","0","[]","0","3","","","852","247","8","4","lose","no-go","0","0"
"pit-trial","317","1805775","0.0-253.0","battery-v0.2","","","532.6000000238419","","","13","852","679","r","elianto","#f73b6a7A"," "," ","1","0","[1383.5]","1","3","","","852","248","10","3","lose","go","0","0"
"pit-trial","318","1810628","0.0-254.0","battery-v0.2","","","-1","","","13","852","679","h","elianto","#f73b6a7A","-1","-1","1","0","[]","0","3","","","852","249","8","4","lose","no-go","0","0"
"pit-trial","319","1814143","0.0-255.0","battery-v0.2","","","658.8999999761581","","","13","852","679","r","elianto","#f73b6a7A"," "," ","1","0","[1511.1000000238419]","1","3","","","852","250","10","3","lose","go","0","0"
"pit-trial","320","1817575","0.0-256.0","battery-v0.2","","","576.5","","","13","852","679","y","elianto","#3366ff99"," "," ","1","0","[1428.8999999761581]","1","3","","","852","251","9","1","win","go","1","0"
"pit-trial","321","1820926","0.0-257.0","battery-v0.2","","","498","","","13","852","679","m","elianto","#3366ff99"," "," ","1","+10","[1348.3999999761581]","1","3","","","852","252","11","1","win","go","0","0"
"pit-trial","322","1824319","0.0-258.0","battery-v0.2","","","538.8999999761581","","","13","852","679","r","elianto","#f73b6a7A"," "," ","1","-10","[1389.2999999523163]","1","3","","","852","253","10","3","lose","go","1","0"
"pit-trial","323","1827911","0.0-259.0","battery-v0.2","","","738.3999999761581","","","13","852","679","m","elianto","#3366ff99"," "," ","1","+10","[1589.0999999046326]","1","3","","","852","254","11","1","win","go","0","0"
"pit-trial","324","1831270","0.0-260.0","battery-v0.2","","","506.5","","","13","852","679","y","elianto","#3366ff99"," "," ","1","+10","[1357.1000000238419]","1","3","","","852","255","9","1","win","go","0","0"
"pit-trial","325","1836124","0.0-261.0","battery-v0.2","","","-1","","","13","852","679","h","elianto","#f73b6a7A","-1","-1","1","0","[]","0","3","","","852","256","8","4","lose","no-go","0","0"
"pit-trial","326","1839695","0.0-262.0","battery-v0.2","","","717.6999999284744","","","13","852","679","m","elianto","#3366ff99"," "," ","1","+10","[1568.3999999761581]","1","3","","","852","257","11","1","win","go","0","0"
"pit-trial","327","1843447","0.0-263.0","battery-v0.2","","","898","","","13","852","679","y","elianto","#3366ff99"," "," ","1","+10","[341.09999990463257,1749.5999999046326]","2","3","","","852","258","9","1","win","go","0","0"
"pit-trial","328","1846887","0.0-264.0","battery-v0.2","","","586.1999999284744","","","13","852","679","r","elianto","#f73b6a7A"," "," ","1","-10","[1437.0999999046326]","1","3","","","852","259","10","3","lose","go","1","0"
"pit-trial","329","1851740","0.0-265.0","battery-v0.2","","","-1","","","13","852","679","h","elianto","#f73b6a7A","-1","-1","1","-10","[]","0","3","","","852","260","8","4","lose","no-go","1","0"
"pit-instructions","330","1861414","0.0-266.0","battery-v0.2","","[{""page_index"":0,""viewing_time"":9672.099999904633}]","9672.5","","","","","","","","","","","","","","","","","","","","","","","","",""
