"trial_type","trial_index","time_elapsed","internal_node_id","task_version","view_history","rt","responses","num_errors","rune","rune_set","hex","correct","choice","accuracy","outcome","keys","total_keys","block","practice","subject","participantId","value","sub","trial","stimulus","robot","valence","action","sham"
"pavlovia","0","21","0.0-0.0","battery-v0.2","","","","","","","","","","","","","","","","","","","","","","","","",""
"pit-instructions","1","1710","0.0-1.0-0.0","battery-v0.2","[{""page_index"":0,""viewing_time"":1686.5}]","1687.300000011921","","","","","","","","","","","","","","","","","","","","","","",""
"pit-comprehension","2","4608","0.0-1.0-1.0-0.0","battery-v0.2","","2893","[""turtle""]","1","","","","","","","","","","","","","","","","","","","","",""
"pit-instructions","3","6389","0.0-1.0-1.0-1.0","battery-v0.2","[{""page_index"":0,""viewing_time"":1775.300000011921}]","1776.2000000178814","","","","","","","","","","","","","","","","","","","","","","",""
"pit-instructions","4","7582","0.0-1.0-1.0-2.0-0.0","battery-v0.2","[{""page_index"":0,""viewing_time"":1189.800000011921}]","1190.4000000059605","","","","","","","","","","","","","","","","","","","","","","",""
"pit-comprehension","5","9871","0.0-1.0-1.1-0.1","battery-v0.2","","2284.4000000059605","[""shark""]","0","","","","","","","","","","","","","","","","","","","","",""
"pit-instructions","6","10581","0.0-1.0-1.1-1.1","battery-v0.2","[{""page_index"":0,""viewing_time"":708.8000000119209}]","709.1999999880791","","","","","","","","","","","","","","","","","","","","","","",""
"pit-comprehension","7","13238","0.0-1.0-2.0-0.0","battery-v0.2","","2652.800000011921","[""shark""]","1","","","","","","","","","","","","","","","","","","","","",""
"pit-instructions","8","14003","0.0-1.0-2.0-1.0","battery-v0.2","[{""page_index"":0,""viewing_time"":759.5999999940395}]","760.4000000059605","","","","","","","","","","","","","","","","","","","","","","",""
"pit-instructions","9","14899","0.0-1.0-2.0-2.0-0.0","battery-v0.2","[{""page_index"":0,""viewing_time"":892.7999999821186}]","893.5999999940395","","","","","","","","","","","","","","","","","","","","","","",""
"pit-comprehension","10","19652","0.0-1.0-2.1-0.1","battery-v0.2","","4749","[""turtle""]","1","","","","","","","","","","","","","","","","","","","","",""
"pit-instructions","11","20452","0.0-1.0-2.1-1.1","battery-v0.2","[{""page_index"":0,""viewing_time"":794.7000000178814}]","795.3000000119209","","","","","","","","","","","","","","","","","","","","","","",""
"pit-instructions","12","21452","0.0-1.0-2.1-2.1-0.1","battery-v0.2","[{""page_index"":0,""viewing_time"":997.1000000238419}]","997.8000000119209","","","","","","","","","","","","","","","","","","","","","","",""
"pit-comprehension","13","24072","0.0-1.0-2.2-0.2","battery-v0.2","","2616.0999999940395","[""tiger""]","0","","","","","","","","","","","","","","","","","","","","",""
"pit-instructions","14","24810","0.0-1.0-2.2-1.2","battery-v0.2","[{""page_index"":0,""viewing_time"":731.9000000059605}]","732.8000000119209","","","","","","","","","","","","","","","","","","","","","","",""
"pit-instructions","15","114829","0.0-1.0-3.0","battery-v0.2","[{""page_index"":0,""viewing_time"":4061},{""page_index"":1,""viewing_time"":8588.59999999404},{""page_index"":2,""viewing_time"":6233.5},{""page_index"":3,""viewing_time"":5327.9000000059605},{""page_index"":4,""viewing_time"":5619.4000000059605},{""page_index"":5,""viewing_time"":6193},{""page_index"":6,""viewing_time"":6761.699999988079},{""page_index"":7,""viewing_time"":7714.5999999940395},{""page_index"":8,""viewing_time"":6377.300000011921},{""page_index"":9,""viewing_time"":7594.5},{""page_index"":10,""viewing_time"":7569.699999988079},{""page_index"":11,""viewing_time"":6516},{""page_index"":12,""viewing_time"":6796.5},{""page_index"":13,""viewing_time"":4660.9000000059605}]","90015.30000001192","","","","","","","","","","","","","","","","","","","","","","",""
"pit-trial","16","117844","0.0-1.0-4.0-0.0","battery-v0.2","","156.69999998807907","","","&#9784;","elianto","#FFFFF080"," "," ","1","&#10004","[1007.5999999940395]","1","0","0","3&age=8&participant_ID=5&order=1","5","","","","","","","",""
"pit-trial","17","122704","0.0-1.0-4.1-0.1","battery-v0.2","","-1","","","&#9784;","elianto","#FFFFF080"," ","-1","0","&#10060","[]","0","0","0","3&age=8&participant_ID=5&order=1","5","","","","","","","",""
"pit-trial","18","127567","0.0-1.0-4.2-0.2","battery-v0.2","","-1","","","&#9784;","elianto","#FFFFF080"," ","-1","0","&#10060","[]","0","0","0","3&age=8&participant_ID=5&order=1","5","","","","","","","",""
"pit-trial","19","132431","0.0-1.0-4.3-0.3","battery-v0.2","","-1","","","&#9784;","elianto","#FFFFF080"," ","-1","0","&#10060","[]","0","0","0","3&age=8&participant_ID=5&order=1","5","","","","","","","",""
"pit-trial","20","137288","0.0-1.0-4.4-0.4","battery-v0.2","","-1","","","&#9784;","elianto","#FFFFF080"," ","-1","0","&#10060","[]","0","0","0","3&age=8&participant_ID=5&order=1","5","","","","","","","",""
"pit-trial","21","142145","0.0-1.0-4.5-0.5","battery-v0.2","","-1","","","&#9784;","elianto","#FFFFF080"," ","-1","0","&#10060","[]","0","0","0","3&age=8&participant_ID=5&order=1","5","","","","","","","",""
"pit-trial","22","147008","0.0-1.0-4.6-0.6","battery-v0.2","","-1","","","&#9784;","elianto","#FFFFF080"," ","-1","0","&#10060","[]","0","0","0","3&age=8&participant_ID=5&order=1","5","","","","","","","",""
"pit-instructions","23","179798","0.0-1.0-4.6-1.6-0.6","battery-v0.2","[{""page_index"":0,""viewing_time"":24633},{""page_index"":1,""viewing_time"":8155.200000017881}]","32788.59999999404","","","","","","","","","","","","","","","","","","","","","","",""
"pit-trial","24","184282","0.0-1.0-4.7-0.7","battery-v0.2","","1627.5999999940395","","","&#9784;","elianto","#FFFFF080"," "," ","1","&#10004","[2479.300000011921]","1","0","0","3&age=8&participant_ID=5&order=1","5","","","","","","","",""
"pit-trial","25","187316","0.0-1.0-4.8-0.8","battery-v0.2","","177.40000000596046","","","&#9784;","elianto","#FFFFF080"," "," ","1","&#10004","[1027.8999999761581]","1","0","0","3&age=8&participant_ID=5&order=1","5","","","","","","","",""
"pit-trial","26","190596","0.0-1.0-4.9-0.9","battery-v0.2","","423","","","&#9784;","elianto","#FFFFF080"," "," ","1","&#10004","[1273.6000000238419]","1","0","0","3&age=8&participant_ID=5&order=1","5","","","","","","","",""
"pit-instructions","27","211027","0.0-1.0-5.0","battery-v0.2","[{""page_index"":0,""viewing_time"":4502.5},{""page_index"":1,""viewing_time"":5911.200000017881},{""page_index"":2,""viewing_time"":4405.199999988079},{""page_index"":3,""viewing_time"":5606.5}]","20426.09999999404","","","","","","","","","","","","","","","","","","","","","","",""
"pit-trial","28","214322","0.0-1.0-6.0-0.0","battery-v0.2","","440","","","&#9854;","elianto","#FFFFF080","-1"," ","0","&#10060","[1290.4000000059605]","1","0","1","3&age=8&participant_ID=5&order=1","5","","","","","","","",""
"pit-trial","29","217306","0.0-1.0-6.1-0.1","battery-v0.2","","129.09999999403954","","","&#9854;","elianto","#FFFFF080","-1"," ","0","&#10060","[979.6999999880791]","1","0","1","3&age=8&participant_ID=5&order=1","5","","","","","","","",""
"pit-trial","30","220284","0.0-1.0-6.2-0.2","battery-v0.2","","123","","","&#9854;","elianto","#FFFFF080","-1"," ","0","&#10060","[973.1999999880791]","1","0","1","3&age=8&participant_ID=5&order=1","5","","","","","","","",""
"pit-trial","31","223303","0.0-1.0-6.3-0.3","battery-v0.2","","163","","","&#9854;","elianto","#FFFFF080","-1"," ","0","&#10060","[1015.2000000178814]","1","0","1","3&age=8&participant_ID=5&order=1","5","","","","","","","",""
"pit-trial","32","226334","0.0-1.0-6.4-0.4","battery-v0.2","","175.59999999403954","","","&#9854;","elianto","#FFFFF080","-1"," ","0","&#10060","[1026.5999999940395]","1","0","1","3&age=8&participant_ID=5&order=1","5","","","","","","","",""
"pit-trial","33","229406","0.0-1.0-6.5-0.5","battery-v0.2","","217.80000001192093","","","&#9854;","elianto","#FFFFF080","-1"," ","0","&#10060","[1067.9000000059605]","1","0","1","3&age=8&participant_ID=5&order=1","5","","","","","","","",""
"pit-trial","34","232481","0.0-1.0-6.6-0.6","battery-v0.2","","217.2000000178814","","","&#9854;","elianto","#FFFFF080","-1"," ","0","&#10060","[1067.4000000059605]","1","0","1","3&age=8&participant_ID=5&order=1","5","","","","","","","",""
"pit-instructions","35","247020","0.0-1.0-6.6-1.6-0.6","battery-v0.2","[{""page_index"":0,""viewing_time"":5822.0999999940395},{""page_index"":1,""viewing_time"":8713.5}]","14536.5","","","","","","","","","","","","","","","","","","","","","","",""
"pit-trial","36","251109","0.0-1.0-6.7-0.7","battery-v0.2","","1230.5999999940395","","","&#9854;","elianto","#FFFFF080","-1"," ","0","&#10060","[2083]","1","0","1","3&age=8&participant_ID=5&order=1","5","","","","","","","",""
"pit-trial","37","255968","0.0-1.0-6.8-0.8","battery-v0.2","","-1","","","&#9854;","elianto","#FFFFF080","-1","-1","1","&#10004","[]","0","0","1","3&age=8&participant_ID=5&order=1","5","","","","","","","",""
"pit-trial","38","260827","0.0-1.0-6.9-0.9","battery-v0.2","","-1","","","&#9854;","elianto","#FFFFF080","-1","-1","1","&#10004","[]","0","0","1","3&age=8&participant_ID=5&order=1","5","","","","","","","",""
"pit-trial","39","265691","0.0-1.0-6.10-0.10","battery-v0.2","","-1","","","&#9854;","elianto","#FFFFF080","-1","-1","1","&#10004","[]","0","0","1","3&age=8&participant_ID=5&order=1","5","","","","","","","",""
"pit-instructions","40","417276","0.0-1.0-7.0","battery-v0.2","[{""page_index"":0,""viewing_time"":5393.200000017881},{""page_index"":1,""viewing_time"":6291.799999982119},{""page_index"":2,""viewing_time"":5037.800000011921},{""page_index"":3,""viewing_time"":5961.4000000059605},{""page_index"":4,""viewing_time"":5198.799999982119},{""page_index"":5,""viewing_time"":5202.800000011921},{""page_index"":6,""viewing_time"":4270.799999982119},{""page_index"":7,""viewing_time"":7705.9000000059605},{""page_index"":8,""viewing_time"":9963.09999999404},{""page_index"":9,""viewing_time"":15954.100000023842},{""page_index"":10,""viewing_time"":6117.299999982119},{""page_index"":11,""viewing_time"":25610.5},{""page_index"":12,""viewing_time"":7114.0999999940395},{""page_index"":13,""viewing_time"":9060.300000011921},{""page_index"":14,""viewing_time"":7841.5},{""page_index"":15,""viewing_time"":10876.40000000596},{""page_index"":16,""viewing_time"":7195},{""page_index"":17,""viewing_time"":6783.799999982119}]","151579.90000000596","","","","","","","","","","","","","","","","","","","","","","",""
"pit-trial","41","422139","0.0-1.0-8.0-0.0","battery-v0.2","","-1","","","&#9776;","elianto","#3366ff99"," ","-1","0","0","[]","0","0","1","3&age=8&participant_ID=5&order=1","5","","","","","","","",""
"pit-trial","42","427000","0.0-1.0-8.0-1.0","battery-v0.2","","-1","","","&#9776;","elianto","#3366ff99"," ","-1","0","0","[]","0","0","1","3&age=8&participant_ID=5&order=1","5","","","","","","","",""
"pit-trial","43","431858","0.0-1.0-8.0-2.0","battery-v0.2","","-1","","","&#9776;","elianto","#3366ff99"," ","-1","0","0","[]","0","0","1","3&age=8&participant_ID=5&order=1","5","","","","","","","",""
"pit-trial","44","436716","0.0-1.0-8.0-3.0","battery-v0.2","","-1","","","&#9776;","elianto","#3366ff99"," ","-1","0","+10","[]","0","0","1","3&age=8&participant_ID=5&order=1","5","","","","","","","",""
"pit-trial","45","441576","0.0-1.0-8.0-4.0","battery-v0.2","","-1","","","&#9776;","elianto","#3366ff99"," ","-1","0","0","[]","0","0","1","3&age=8&participant_ID=5&order=1","5","","","","","","","",""
"pit-trial","46","446440","0.0-1.0-8.1-0.1","battery-v0.2","","-1","","","&#9776;","elianto","#3366ff99"," ","-1","0","0","[]","0","0","1","3&age=8&participant_ID=5&order=1","5","","","","","","","",""
"pit-trial","47","451300","0.0-1.0-8.1-1.1","battery-v0.2","","-1","","","&#9776;","elianto","#3366ff99"," ","-1","0","0","[]","0","0","1","3&age=8&participant_ID=5&order=1","5","","","","","","","",""
"pit-trial","48","456153","0.0-1.0-8.1-2.1","battery-v0.2","","-1","","","&#9776;","elianto","#3366ff99"," ","-1","0","0","[]","0","0","1","3&age=8&participant_ID=5&order=1","5","","","","","","","",""
"pit-trial","49","461012","0.0-1.0-8.1-3.1","battery-v0.2","","-1","","","&#9776;","elianto","#3366ff99"," ","-1","0","+10","[]","0","0","1","3&age=8&participant_ID=5&order=1","5","","","","","","","",""
"pit-trial","50","465871","0.0-1.0-8.1-4.1","battery-v0.2","","-1","","","&#9776;","elianto","#3366ff99"," ","-1","0","0","[]","0","0","1","3&age=8&participant_ID=5&order=1","5","","","","","","","",""
"pit-trial","51","470735","0.0-1.0-8.2-0.2","battery-v0.2","","-1","","","&#9776;","elianto","#3366ff99"," ","-1","0","0","[]","0","0","1","3&age=8&participant_ID=5&order=1","5","","","","","","","",""
"pit-trial","52","475593","0.0-1.0-8.2-1.2","battery-v0.2","","-1","","","&#9776;","elianto","#3366ff99"," ","-1","0","0","[]","0","0","1","3&age=8&participant_ID=5&order=1","5","","","","","","","",""
"pit-trial","53","480457","0.0-1.0-8.2-2.2","battery-v0.2","","-1","","","&#9776;","elianto","#3366ff99"," ","-1","0","0","[]","0","0","1","3&age=8&participant_ID=5&order=1","5","","","","","","","",""
"pit-trial","54","485321","0.0-1.0-8.2-3.2","battery-v0.2","","-1","","","&#9776;","elianto","#3366ff99"," ","-1","0","+10","[]","0","0","1","3&age=8&participant_ID=5&order=1","5","","","","","","","",""
"pit-trial","55","490186","0.0-1.0-8.2-4.2","battery-v0.2","","-1","","","&#9776;","elianto","#3366ff99"," ","-1","0","0","[]","0","0","1","3&age=8&participant_ID=5&order=1","5","","","","","","","",""
"pit-trial","56","495050","0.0-1.0-8.3-0.3","battery-v0.2","","-1","","","&#9776;","elianto","#3366ff99"," ","-1","0","0","[]","0","0","1","3&age=8&participant_ID=5&order=1","5","","","","","","","",""
"pit-trial","57","499913","0.0-1.0-8.3-1.3","battery-v0.2","","-1","","","&#9776;","elianto","#3366ff99"," ","-1","0","0","[]","0","0","1","3&age=8&participant_ID=5&order=1","5","","","","","","","",""
"pit-trial","58","504772","0.0-1.0-8.3-2.3","battery-v0.2","","-1","","","&#9776;","elianto","#3366ff99"," ","-1","0","0","[]","0","0","1","3&age=8&participant_ID=5&order=1","5","","","","","","","",""
"pit-trial","59","509631","0.0-1.0-8.3-3.3","battery-v0.2","","-1","","","&#9776;","elianto","#3366ff99"," ","-1","0","+10","[]","0","0","1","3&age=8&participant_ID=5&order=1","5","","","","","","","",""
"pit-trial","60","514490","0.0-1.0-8.3-4.3","battery-v0.2","","-1","","","&#9776;","elianto","#3366ff99"," ","-1","0","0","[]","0","0","1","3&age=8&participant_ID=5&order=1","5","","","","","","","",""
"pit-trial","61","519353","0.0-1.0-8.4-0.4","battery-v0.2","","-1","","","&#9776;","elianto","#3366ff99"," ","-1","0","0","[]","0","0","1","3&age=8&participant_ID=5&order=1","5","","","","","","","",""
"pit-trial","62","524212","0.0-1.0-8.4-1.4","battery-v0.2","","-1","","","&#9776;","elianto","#3366ff99"," ","-1","0","0","[]","0","0","1","3&age=8&participant_ID=5&order=1","5","","","","","","","",""
"pit-trial","63","529070","0.0-1.0-8.4-2.4","battery-v0.2","","-1","","","&#9776;","elianto","#3366ff99"," ","-1","0","0","[]","0","0","1","3&age=8&participant_ID=5&order=1","5","","","","","","","",""
"pit-trial","64","533928","0.0-1.0-8.4-3.4","battery-v0.2","","-1","","","&#9776;","elianto","#3366ff99"," ","-1","0","+10","[]","0","0","1","3&age=8&participant_ID=5&order=1","5","","","","","","","",""
"pit-trial","65","538787","0.0-1.0-8.4-4.4","battery-v0.2","","-1","","","&#9776;","elianto","#3366ff99"," ","-1","0","0","[]","0","0","1","3&age=8&participant_ID=5&order=1","5","","","","","","","",""
"pit-instructions","66","569096","0.0-1.0-8.4-5.4-0.4","battery-v0.2","[{""page_index"":0,""viewing_time"":5421.0999999940395},{""page_index"":1,""viewing_time"":6180.5999999940395},{""page_index"":2,""viewing_time"":18704.20000001788}]","30306.5","","","","","","","","","","","","","","","","","","","","","","",""
"pit-trial","67","572133","0.0-1.0-8.5-0.5","battery-v0.2","","180.30000001192093","","","&#9776;","elianto","#3366ff99"," "," ","1","+10","[1031.3999999761581]","1","0","1","3&age=8&participant_ID=5&order=1","5","","","","","","","",""
"pit-trial","68","575137","0.0-1.0-8.5-1.5","battery-v0.2","","146.09999999403954","","","&#9776;","elianto","#3366ff99"," "," ","1","+10","[996.3999999761581]","1","0","1","3&age=8&participant_ID=5&order=1","5","","","","","","","",""
"pit-trial","69","578125","0.0-1.0-8.5-2.5","battery-v0.2","","128.30000001192093","","","&#9776;","elianto","#3366ff99"," "," ","1","+10","[639.0999999940395,979.9000000059605]","2","0","1","3&age=8&participant_ID=5&order=1","5","","","","","","","",""
"pit-trial","70","581080","0.0-1.0-8.5-3.5","battery-v0.2","","99.59999999403954","","","&#9776;","elianto","#3366ff99"," "," ","1","0","[949.8999999761581]","1","0","1","3&age=8&participant_ID=5&order=1","5","","","","","","","",""
"pit-trial","71","584064","0.0-1.0-8.5-4.5","battery-v0.2","","126.19999998807907","","","&#9776;","elianto","#3366ff99"," "," ","1","+10","[976.0999999940395]","1","0","1","3&age=8&participant_ID=5&order=1","5","","","","","","","",""
"call-function","72","584066","0.0-1.0-9.0","battery-v0.2","","","","","","","","","","","","","","","","","","","","","","","","",""
"pit-instructions","73","866949","0.0-1.0-10.0","battery-v0.2","[{""page_index"":0,""viewing_time"":8193.699999988079},{""page_index"":1,""viewing_time"":231813.19999998808},{""page_index"":2,""viewing_time"":9626.5},{""page_index"":3,""viewing_time"":14018.200000017881},{""page_index"":4,""viewing_time"":10757.799999982119},{""page_index"":5,""viewing_time"":8488.100000023842}]","282898.39999997616","","","","","","","","","","","","","","","","","","","","","","",""
"pit-trial","74","871813","0.0-1.0-11.0-0.0","battery-v0.2","","-1","","","&#9761;","elianto","#3366ff99","-1","-1","1","+10","[]","0","0","2","3&age=8&participant_ID=5&order=1","5","","","","","","","",""
"pit-trial","75","876672","0.0-1.0-11.0-1.0","battery-v0.2","","-1","","","&#9761;","elianto","#3366ff99","-1","-1","1","+10","[]","0","0","2","3&age=8&participant_ID=5&order=1","5","","","","","","","",""
"pit-trial","76","881532","0.0-1.0-11.0-2.0","battery-v0.2","","-1","","","&#9761;","elianto","#3366ff99","-1","-1","1","+10","[]","0","0","2","3&age=8&participant_ID=5&order=1","5","","","","","","","",""
"pit-trial","77","886390","0.0-1.0-11.0-3.0","battery-v0.2","","-1","","","&#9761;","elianto","#3366ff99","-1","-1","1","0","[]","0","0","2","3&age=8&participant_ID=5&order=1","5","","","","","","","",""
"pit-trial","78","891251","0.0-1.0-11.0-4.0","battery-v0.2","","-1","","","&#9761;","elianto","#3366ff99","-1","-1","1","+10","[]","0","0","2","3&age=8&participant_ID=5&order=1","5","","","","","","","",""
"call-function","79","891254","0.0-1.0-12.0","battery-v0.2","","","","","","","","","","","","","","","","","","","","","","","","",""
"pit-instructions","80","926377","0.0-1.0-13.0","battery-v0.2","[{""page_index"":0,""viewing_time"":6023.800000011921},{""page_index"":1,""viewing_time"":8545.90000000596},{""page_index"":2,""viewing_time"":4314.699999988079},{""page_index"":3,""viewing_time"":10196.200000017881},{""page_index"":4,""viewing_time"":6041.399999976158}]","35122.80000001192","","","","","","","","","","","","","","","","","","","","","","",""
"pit-trial","81","931237","0.0-1.0-14.0-0.0","battery-v0.2","","-1","","","&#9826;","elianto","#f73b6a7A","-1","-1","1","0","[]","0","0","3","3&age=8&participant_ID=5&order=1","5","","","","","","","",""
"pit-trial","82","936095","0.0-1.0-14.0-1.0","battery-v0.2","","-1","","","&#9826;","elianto","#f73b6a7A","-1","-1","1","0","[]","0","0","3","3&age=8&participant_ID=5&order=1","5","","","","","","","",""
"pit-trial","83","940953","0.0-1.0-14.0-2.0","battery-v0.2","","-1","","","&#9826;","elianto","#f73b6a7A","-1","-1","1","0","[]","0","0","3","3&age=8&participant_ID=5&order=1","5","","","","","","","",""
"pit-trial","84","945818","0.0-1.0-14.0-3.0","battery-v0.2","","-1","","","&#9826;","elianto","#f73b6a7A","-1","-1","1","-10","[]","0","0","3","3&age=8&participant_ID=5&order=1","5","","","","","","","",""
"pit-trial","85","950676","0.0-1.0-14.0-4.0","battery-v0.2","","-1","","","&#9826;","elianto","#f73b6a7A","-1","-1","1","0","[]","0","0","3","3&age=8&participant_ID=5&order=1","5","","","","","","","",""
"call-function","86","950678","0.0-1.0-15.0","battery-v0.2","","","","","","","","","","","","","","","","","","","","","","","","",""
"pit-instructions","87","984163","0.0-1.0-16.0","battery-v0.2","[{""page_index"":0,""viewing_time"":11260.59999999404},{""page_index"":1,""viewing_time"":10407.800000011921},{""page_index"":2,""viewing_time"":5145.199999988079},{""page_index"":3,""viewing_time"":6669.800000011921}]","33484.20000001788","","","","","","","","","","","","","","","","","","","","","","",""
"pit-trial","88","989025","0.0-1.0-17.0-0.0","battery-v0.2","","-1","","","&#9789;","elianto","#f73b6a7A"," ","-1","0","-10","[]","0","0","4","3&age=8&participant_ID=5&order=1","5","","","","","","","",""
"pit-trial","89","993884","0.0-1.0-17.0-1.0","battery-v0.2","","-1","","","&#9789;","elianto","#f73b6a7A"," ","-1","0","-10","[]","0","0","4","3&age=8&participant_ID=5&order=1","5","","","","","","","",""
"pit-trial","90","998741","0.0-1.0-17.0-2.0","battery-v0.2","","-1","","","&#9789;","elianto","#f73b6a7A"," ","-1","0","-10","[]","0","0","4","3&age=8&participant_ID=5&order=1","5","","","","","","","",""
"pit-trial","91","1003604","0.0-1.0-17.0-3.0","battery-v0.2","","-1","","","&#9789;","elianto","#f73b6a7A"," ","-1","0","0","[]","0","0","4","3&age=8&participant_ID=5&order=1","5","","","","","","","",""
"pit-trial","92","1008468","0.0-1.0-17.0-4.0","battery-v0.2","","-1","","","&#9789;","elianto","#f73b6a7A"," ","-1","0","-10","[]","0","0","4","3&age=8&participant_ID=5&order=1","5","","","","","","","",""
"pit-trial","93","1013328","0.0-1.0-17.1-0.1","battery-v0.2","","-1","","","&#9789;","elianto","#f73b6a7A"," ","-1","0","-10","[]","0","0","4","3&age=8&participant_ID=5&order=1","5","","","","","","","",""
"pit-trial","94","1018193","0.0-1.0-17.1-1.1","battery-v0.2","","-1","","","&#9789;","elianto","#f73b6a7A"," ","-1","0","-10","[]","0","0","4","3&age=8&participant_ID=5&order=1","5","","","","","","","",""
"pit-trial","95","1023057","0.0-1.0-17.1-2.1","battery-v0.2","","-1","","","&#9789;","elianto","#f73b6a7A"," ","-1","0","-10","[]","0","0","4","3&age=8&participant_ID=5&order=1","5","","","","","","","",""
"pit-trial","96","1027921","0.0-1.0-17.1-3.1","battery-v0.2","","-1","","","&#9789;","elianto","#f73b6a7A"," ","-1","0","0","[]","0","0","4","3&age=8&participant_ID=5&order=1","5","","","","","","","",""
"pit-trial","97","1032785","0.0-1.0-17.1-4.1","battery-v0.2","","-1","","","&#9789;","elianto","#f73b6a7A"," ","-1","0","-10","[]","0","0","4","3&age=8&participant_ID=5&order=1","5","","","","","","","",""
"pit-trial","98","1037648","0.0-1.0-17.2-0.2","battery-v0.2","","-1","","","&#9789;","elianto","#f73b6a7A"," ","-1","0","-10","[]","0","0","4","3&age=8&participant_ID=5&order=1","5","","","","","","","",""
"pit-trial","99","1042507","0.0-1.0-17.2-1.2","battery-v0.2","","-1","","","&#9789;","elianto","#f73b6a7A"," ","-1","0","-10","[]","0","0","4","3&age=8&participant_ID=5&order=1","5","","","","","","","",""
"pit-trial","100","1047365","0.0-1.0-17.2-2.2","battery-v0.2","","-1","","","&#9789;","elianto","#f73b6a7A"," ","-1","0","-10","[]","0","0","4","3&age=8&participant_ID=5&order=1","5","","","","","","","",""
"pit-trial","101","1052225","0.0-1.0-17.2-3.2","battery-v0.2","","-1","","","&#9789;","elianto","#f73b6a7A"," ","-1","0","0","[]","0","0","4","3&age=8&participant_ID=5&order=1","5","","","","","","","",""
"pit-trial","102","1057083","0.0-1.0-17.2-4.2","battery-v0.2","","-1","","","&#9789;","elianto","#f73b6a7A"," ","-1","0","-10","[]","0","0","4","3&age=8&participant_ID=5&order=1","5","","","","","","","",""
"pit-trial","103","1061947","0.0-1.0-17.3-0.3","battery-v0.2","","-1","","","&#9789;","elianto","#f73b6a7A"," ","-1","0","-10","[]","0","0","4","3&age=8&participant_ID=5&order=1","5","","","","","","","",""
"pit-trial","104","1066806","0.0-1.0-17.3-1.3","battery-v0.2","","-1","","","&#9789;","elianto","#f73b6a7A"," ","-1","0","-10","[]","0","0","4","3&age=8&participant_ID=5&order=1","5","","","","","","","",""
"pit-trial","105","1071665","0.0-1.0-17.3-2.3","battery-v0.2","","-1","","","&#9789;","elianto","#f73b6a7A"," ","-1","0","-10","[]","0","0","4","3&age=8&participant_ID=5&order=1","5","","","","","","","",""
"pit-trial","106","1076520","0.0-1.0-17.3-3.3","battery-v0.2","","-1","","","&#9789;","elianto","#f73b6a7A"," ","-1","0","0","[]","0","0","4","3&age=8&participant_ID=5&order=1","5","","","","","","","",""
"pit-trial","107","1081382","0.0-1.0-17.3-4.3","battery-v0.2","","-1","","","&#9789;","elianto","#f73b6a7A"," ","-1","0","-10","[]","0","0","4","3&age=8&participant_ID=5&order=1","5","","","","","","","",""
"pit-trial","108","1086246","0.0-1.0-17.4-0.4","battery-v0.2","","-1","","","&#9789;","elianto","#f73b6a7A"," ","-1","0","-10","[]","0","0","4","3&age=8&participant_ID=5&order=1","5","","","","","","","",""
"pit-trial","109","1091105","0.0-1.0-17.4-1.4","battery-v0.2","","-1","","","&#9789;","elianto","#f73b6a7A"," ","-1","0","-10","[]","0","0","4","3&age=8&participant_ID=5&order=1","5","","","","","","","",""
"pit-trial","110","1095963","0.0-1.0-17.4-2.4","battery-v0.2","","-1","","","&#9789;","elianto","#f73b6a7A"," ","-1","0","-10","[]","0","0","4","3&age=8&participant_ID=5&order=1","5","","","","","","","",""
"pit-trial","111","1100822","0.0-1.0-17.4-3.4","battery-v0.2","","-1","","","&#9789;","elianto","#f73b6a7A"," ","-1","0","0","[]","0","0","4","3&age=8&participant_ID=5&order=1","5","","","","","","","",""
"pit-trial","112","1105686","0.0-1.0-17.4-4.4","battery-v0.2","","-1","","","&#9789;","elianto","#f73b6a7A"," ","-1","0","-10","[]","0","0","4","3&age=8&participant_ID=5&order=1","5","","","","","","","",""
"pit-instructions","113","1125945","0.0-1.0-17.4-5.4-0.4","battery-v0.2","[{""page_index"":0,""viewing_time"":7788.799999982119},{""page_index"":1,""viewing_time"":5797.600000023842},{""page_index"":2,""viewing_time"":6669.199999988079}]","20256.40000000596","","","","","","","","","","","","","","","","","","","","","","",""
"pit-trial","114","1129032","0.0-1.0-17.5-0.5","battery-v0.2","","226.09999999403954","","","&#9789;","elianto","#f73b6a7A"," "," ","1","0","[1076.300000011921]","1","0","4","3&age=8&participant_ID=5&order=1","5","","","","","","","",""
"pit-trial","115","1132195","0.0-1.0-17.5-1.5","battery-v0.2","","308.2999999821186","","","&#9789;","elianto","#f73b6a7A"," "," ","1","0","[1159.2999999821186]","1","0","4","3&age=8&participant_ID=5&order=1","5","","","","","","","",""
"pit-trial","116","1137053","0.0-1.0-17.5-2.5","battery-v0.2","","-1","","","&#9789;","elianto","#f73b6a7A"," ","-1","0","-10","[3958.4000000059605]","1","0","4","3&age=8&participant_ID=5&order=1","5","","","","","","","",""
"pit-trial","117","1140962","0.0-1.0-17.5-3.5","battery-v0.2","","1054.5","","","&#9789;","elianto","#f73b6a7A"," "," ","1","-10","[1907.7999999821186]","1","0","4","3&age=8&participant_ID=5&order=1","5","","","","","","","",""
"pit-trial","118","1145822","0.0-1.0-17.5-4.5","battery-v0.2","","-1","","","&#9789;","elianto","#f73b6a7A"," ","-1","0","-10","[3622.7999999821186]","1","0","4","3&age=8&participant_ID=5&order=1","5","","","","","","","",""
"pit-trial","119","1148921","0.0-1.0-17.6-0.6","battery-v0.2","","240.2999999821186","","","&#9789;","elianto","#f73b6a7A"," "," ","1","0","[444.09999999403954,1090.199999988079]","2","0","4","3&age=8&participant_ID=5&order=1","5","","","","","","","",""
"pit-trial","120","1151875","0.0-1.0-17.6-1.6","battery-v0.2","","95.09999999403954","","","&#9789;","elianto","#f73b6a7A"," "," ","1","0","[159.19999998807907,947.1999999880791,1205.800000011921]","3","0","4","3&age=8&participant_ID=5&order=1","5","","","","","","","",""
"pit-trial","121","1155165","0.0-1.0-17.6-2.6","battery-v0.2","","434.7999999821186","","","&#9789;","elianto","#f73b6a7A"," "," ","1","0","[1284.9000000059605]","1","0","4","3&age=8&participant_ID=5&order=1","5","","","","","","","",""
"pit-trial","122","1158157","0.0-1.0-17.6-3.6","battery-v0.2","","133.60000002384186","","","&#9789;","elianto","#f73b6a7A"," "," ","1","-10","[984.5999999940395]","1","0","4","3&age=8&participant_ID=5&order=1","5","","","","","","","",""
"pit-trial","123","1161252","0.0-1.0-17.6-4.6","battery-v0.2","","240.90000000596046","","","&#9789;","elianto","#f73b6a7A"," "," ","1","0","[1091.300000011921]","1","0","4","3&age=8&participant_ID=5&order=1","5","","","","","","","",""
"call-function","124","1161255","0.0-1.0-18.0","battery-v0.2","","","","","","","","","","","","","","","","","","","","","","","","",""
"pit-instructions","125","1529783","0.0-1.0-19.0","battery-v0.2","[{""page_index"":0,""viewing_time"":16916.600000023842},{""page_index"":1,""viewing_time"":8926.09999999404},{""page_index"":2,""viewing_time"":15802.699999988079},{""page_index"":3,""viewing_time"":10397.09999999404},{""page_index"":4,""viewing_time"":290240},{""page_index"":5,""viewing_time"":8200.700000017881},{""page_index"":6,""viewing_time"":8440.5},{""page_index"":7,""viewing_time"":5875.5},{""page_index"":8,""viewing_time"":3726}]","368525.90000000596","","","","","","","","","","","","","","","","","","","","","","",""
"pit-comprehension","126","1534657","0.0-1.0-20.0-0.0","battery-v0.2","","4867.100000023842","[""ENTER""]","1","","","","","","","","","","","","","","","","","","","","",""
"pit-instructions","127","1537454","0.0-1.0-20.0-1.0","battery-v0.2","[{""page_index"":0,""viewing_time"":2760.0999999940395}]","2760.7999999821186","","","","","","","","","","","","","","","","","","","","","","",""
"pit-instructions","128","1538386","0.0-1.0-20.0-2.0-0.0","battery-v0.2","[{""page_index"":0,""viewing_time"":928.3999999761581}]","929.0999999940395","","","","","","","","","","","","","","","","","","","","","","",""
"pit-comprehension","129","1543652","0.0-1.0-20.1-0.1","battery-v0.2","","5260.9000000059605","[""SPACE""]","0","","","","","","","","","","","","","","","","","","","","",""
"pit-instructions","130","1546925","0.0-1.0-20.1-1.1","battery-v0.2","[{""page_index"":0,""viewing_time"":3233.0999999940395}]","3233.699999988079","","","","","","","","","","","","","","","","","","","","","","",""
"pit-comprehension","131","1553197","0.0-1.0-21.0-0.0","battery-v0.2","","6263.5","[""5""]","1","","","","","","","","","","","","","","","","","","","","",""
"pit-instructions","132","1558275","0.0-1.0-21.0-1.0","battery-v0.2","[{""page_index"":0,""viewing_time"":5041.199999988079}]","5041.9000000059605","","","","","","","","","","","","","","","","","","","","","","",""
"pit-instructions","133","1558931","0.0-1.0-21.0-2.0-0.0","battery-v0.2","[{""page_index"":0,""viewing_time"":651.0999999940395}]","651.9000000059605","","","","","","","","","","","","","","","","","","","","","","",""
"pit-comprehension","134","1563408","0.0-1.0-21.1-0.1","battery-v0.2","","4473","[""10""]","0","","","","","","","","","","","","","","","","","","","","",""
"pit-instructions","135","1564873","0.0-1.0-21.1-1.1","battery-v0.2","[{""page_index"":0,""viewing_time"":1426.1000000238419}]","1426.7000000178814","","","","","","","","","","","","","","","","","","","","","","",""
"pit-comprehension","136","1571491","0.0-1.0-22.0-0.0","battery-v0.2","","6612","[""5""]","1","","","","","","","","","","","","","","","","","","","","",""
"pit-instructions","137","1574809","0.0-1.0-22.0-1.0","battery-v0.2","[{""page_index"":0,""viewing_time"":3281.5}]","3282.199999988079","","","","","","","","","","","","","","","","","","","","","","",""
"pit-instructions","138","1575730","0.0-1.0-22.0-2.0-0.0","battery-v0.2","[{""page_index"":0,""viewing_time"":916.9000000059605}]","917.3000000119209","","","","","","","","","","","","","","","","","","","","","","",""
"pit-comprehension","139","1582177","0.0-1.0-22.1-0.1","battery-v0.2","","6443.300000011921","[""0""]","0","","","","","","","","","","","","","","","","","","","","",""
"pit-instructions","140","1583547","0.0-1.0-22.1-1.1","battery-v0.2","[{""page_index"":0,""viewing_time"":1333.0999999940395}]","1333.5","","","","","","","","","","","","","","","","","","","","","","",""
"pit-comprehension","141","1592782","0.0-1.0-23.0-0.0","battery-v0.2","","9231.199999988079","[""False""]","1","","","","","","","","","","","","","","","","","","","","",""
"pit-instructions","142","1594509","0.0-1.0-23.0-1.0","battery-v0.2","[{""page_index"":0,""viewing_time"":1688.4000000059605}]","1688.9000000059605","","","","","","","","","","","","","","","","","","","","","","",""
"pit-instructions","143","1595081","0.0-1.0-23.0-2.0-0.0","battery-v0.2","[{""page_index"":0,""viewing_time"":570.0999999940395}]","570.5","","","","","","","","","","","","","","","","","","","","","","",""
"pit-comprehension","144","1603577","0.0-1.0-23.1-0.1","battery-v0.2","","8492.200000017881","[""True""]","0","","","","","","","","","","","","","","","","","","","","",""
"pit-instructions","145","1605067","0.0-1.0-23.1-1.1","battery-v0.2","[{""page_index"":0,""viewing_time"":1448.800000011921}]","1449.5999999940395","","","","","","","","","","","","","","","","","","","","","","",""
"pit-comprehension","146","1612803","0.0-1.0-24.0-0.0","battery-v0.2","","7731.299999982119","[""False""]","1","","","","","","","","","","","","","","","","","","","","",""
"pit-instructions","147","1614555","0.0-1.0-24.0-1.0","battery-v0.2","[{""page_index"":0,""viewing_time"":1714.800000011921}]","1715.800000011921","","","","","","","","","","","","","","","","","","","","","","",""
"pit-instructions","148","1615097","0.0-1.0-24.0-2.0-0.0","battery-v0.2","[{""page_index"":0,""viewing_time"":538.8999999761581}]","539.5999999940395","","","","","","","","","","","","","","","","","","","","","","",""
"pit-comprehension","149","1622541","0.0-1.0-24.1-0.1","battery-v0.2","","7439.299999982119","[""True""]","0","","","","","","","","","","","","","","","","","","","","",""
"pit-instructions","150","1624294","0.0-1.0-24.1-1.1","battery-v0.2","[{""page_index"":0,""viewing_time"":1714.7000000178814}]","1715.300000011921","","","","","","","","","","","","","","","","","","","","","","",""
"pit-comprehension","151","1632832","0.0-1.0-25.0-0.0","battery-v0.2","","8531.300000011921","[""True""]","0","","","","","","","","","","","","","","","","","","","","",""
"pit-instructions","152","1634763","0.0-1.0-25.0-1.0","battery-v0.2","[{""page_index"":0,""viewing_time"":1892.5999999940395}]","1893.3999999761581","","","","","","","","","","","","","","","","","","","","","","",""
"pit-comprehension","153","1640230","0.0-1.0-26.0-0.0","battery-v0.2","","5461.299999982119","[""False""]","0","","","","","","","","","","","","","","","","","","","","",""
"pit-instructions","154","1641922","0.0-1.0-26.0-1.0","battery-v0.2","[{""page_index"":0,""viewing_time"":1653.5999999940395}]","1654","","","","","","","","","","","","","","","","","","","","","","",""
"pit-trial","155","1646785","0.0-2.0","battery-v0.2","","-1","","","n","elianto","#f73b6a7A"," ","-1","0","0","[]","0","3","","","","","3&age=8&participant_ID=5&order=1","256","10","3","lose","go","1"
"pit-trial","156","1651645","0.0-3.0","battery-v0.2","","-1","","","n","elianto","#f73b6a7A"," ","-1","0","-10","[]","0","3","","","","","3&age=8&participant_ID=5&order=1","257","10","3","lose","go","0"
"pit-trial","157","1656504","0.0-4.0","battery-v0.2","","-1","","","q","elianto","#3366ff99"," ","-1","0","0","[]","0","3","","","","","3&age=8&participant_ID=5&order=1","258","11","1","win","go","0"
"pit-trial","158","1661363","0.0-5.0","battery-v0.2","","-1","","","f","elianto","#3366ff99"," ","-1","0","+10","[]","0","3","","","","","3&age=8&participant_ID=5&order=1","259","9","1","win","go","1"
"pit-trial","159","1666717","0.0-6.0","battery-v0.2","","-1","","","x","elianto","#f73b6a7A","-1","-1","1","0","[]","0","3","","","","","3&age=8&participant_ID=5&order=1","260","8","4","lose","no-go","0"
