"trial_type","trial_index","time_elapsed","internal_node_id","task_version","subject_id","interactions","blur_events","focus_events","fullscreenenter_events","fullscreenexit_events","success","view_history","rt","responses","num_errors","age","subject","participantId","rune","rune_set","hex","correct","choice","accuracy","outcome","keys","total_keys","block","practice","value","sub","trial","stimulus","robot","valence","action","sham","browser_interactions"
"pavlovia","0","18","0.0-0.0","battery-v0.2","","""event"",""trial"",""time""
""fullscreenenter"",""1"",""2923""
","
","
","""event"",""trial"",""time""
""fullscreenenter"",""1"",""2923""
","
","","","","","","","","","","","","","","","","","","","","","","","","","","","",""
"fullscreen","1","3898","0.0-1.0","battery-v0.2","","""event"",""trial"",""time""
""fullscreenenter"",""1"",""2923""
","
","
","""event"",""trial"",""time""
""fullscreenenter"",""1"",""2923""
","
","true","","","","","","","","","","","","","","","","","","","","","","","","","","",""
"pit-instructions","2","10130","0.0-2.0-0.0","battery-v0.2","","""event"",""trial"",""time""
""fullscreenenter"",""1"",""2923""
","
","
","""event"",""trial"",""time""
""fullscreenenter"",""1"",""2923""
","
","","[{""page_index"":0,""viewing_time"":6227.599999904633}]","6228.099999904633","","","","","","","","","","","","","","","","","","","","","","","","",""
"pit-comprehension","3","33543","0.0-2.0-1.0-0.0","battery-v0.2","","""event"",""trial"",""time""
""fullscreenenter"",""1"",""2923""
","
","
","""event"",""trial"",""time""
""fullscreenenter"",""1"",""2923""
","
","","","23411.200000286102","[""fish""]","1","13","1225","1153","","","","","","","","","","","","","","","","","","","",""
"pit-instructions","4","35026","0.0-2.0-1.0-1.0","battery-v0.2","","""event"",""trial"",""time""
""fullscreenenter"",""1"",""2923""
""fullscreenexit"",""5"",""44597""
""blur"",""5"",""47632""
""focus"",""5"",""63857""
","""event"",""trial"",""time""
""blur"",""5"",""47632""
","""event"",""trial"",""time""
""focus"",""5"",""63857""
","""event"",""trial"",""time""
""fullscreenenter"",""1"",""2923""
","""event"",""trial"",""time""
""fullscreenexit"",""5"",""44597""
","","[{""page_index"":0,""viewing_time"":1456.3000001907349}]","1456.9000000953674","","","","","","","","","","","","","","","","","","","","","","","","",""
"pit-instructions","5","68886","0.0-2.0-1.0-2.0-0.0","battery-v0.2","","""event"",""trial"",""time""
""fullscreenenter"",""1"",""2923""
""fullscreenexit"",""5"",""44597""
""blur"",""5"",""47632""
""focus"",""5"",""63857""
","""event"",""trial"",""time""
""blur"",""5"",""47632""
","""event"",""trial"",""time""
""focus"",""5"",""63857""
","""event"",""trial"",""time""
""fullscreenenter"",""1"",""2923""
","""event"",""trial"",""time""
""fullscreenexit"",""5"",""44597""
","","[{""page_index"":0,""viewing_time"":33855.59999990463}]","33856.300000190735","","","","","","","","","","","","","","","","","","","","","","","","",""
"pit-comprehension","6","82930","0.0-2.0-1.1-0.1","battery-v0.2","","""event"",""trial"",""time""
""fullscreenenter"",""1"",""2923""
""fullscreenexit"",""5"",""44597""
""blur"",""5"",""47632""
""focus"",""5"",""63857""
","""event"",""trial"",""time""
""blur"",""5"",""47632""
","""event"",""trial"",""time""
""focus"",""5"",""63857""
","""event"",""trial"",""time""
""fullscreenenter"",""1"",""2923""
","""event"",""trial"",""time""
""fullscreenexit"",""5"",""44597""
","","","14039.400000095367","[""shark""]","0","13","1225","1153","","","","","","","","","","","","","","","","","","","",""
"pit-instructions","7","84956","0.0-2.0-1.1-1.1","battery-v0.2","","""event"",""trial"",""time""
""fullscreenenter"",""1"",""2923""
""fullscreenexit"",""5"",""44597""
""blur"",""5"",""47632""
""focus"",""5"",""63857""
","""event"",""trial"",""time""
""blur"",""5"",""47632""
","""event"",""trial"",""time""
""focus"",""5"",""63857""
","""event"",""trial"",""time""
""fullscreenenter"",""1"",""2923""
","""event"",""trial"",""time""
""fullscreenexit"",""5"",""44597""
","","[{""page_index"":0,""viewing_time"":2024}]","2024.3000001907349","","","","","","","","","","","","","","","","","","","","","","","","",""
"pit-comprehension","8","101642","0.0-2.0-2.0-0.0","battery-v0.2","","""event"",""trial"",""time""
""fullscreenenter"",""1"",""2923""
""fullscreenexit"",""5"",""44597""
""blur"",""5"",""47632""
""focus"",""5"",""63857""
","""event"",""trial"",""time""
""blur"",""5"",""47632""
","""event"",""trial"",""time""
""focus"",""5"",""63857""
","""event"",""trial"",""time""
""fullscreenenter"",""1"",""2923""
","""event"",""trial"",""time""
""fullscreenexit"",""5"",""44597""
","","","16683.5","[""tiger""]","0","13","1225","1153","","","","","","","","","","","","","","","","","","","",""
"pit-instructions","9","102940","0.0-2.0-2.0-1.0","battery-v0.2","","""event"",""trial"",""time""
""fullscreenenter"",""1"",""2923""
""fullscreenexit"",""5"",""44597""
""blur"",""5"",""47632""
""focus"",""5"",""63857""
","""event"",""trial"",""time""
""blur"",""5"",""47632""
","""event"",""trial"",""time""
""focus"",""5"",""63857""
","""event"",""trial"",""time""
""fullscreenenter"",""1"",""2923""
","""event"",""trial"",""time""
""fullscreenexit"",""5"",""44597""
","","[{""page_index"":0,""viewing_time"":1291.9000000953674}]","1292.4000000953674","","","","","","","","","","","","","","","","","","","","","","","","",""
"pit-instructions","10","239119","0.0-2.0-3.0","battery-v0.2","","""event"",""trial"",""time""
""fullscreenenter"",""1"",""2923""
""fullscreenexit"",""5"",""44597""
""blur"",""5"",""47632""
""focus"",""5"",""63857""
","""event"",""trial"",""time""
""blur"",""5"",""47632""
","""event"",""trial"",""time""
""focus"",""5"",""63857""
","""event"",""trial"",""time""
""fullscreenenter"",""1"",""2923""
","""event"",""trial"",""time""
""fullscreenexit"",""5"",""44597""
","","[{""page_index"":0,""viewing_time"":9136.199999809265},{""page_index"":1,""viewing_time"":5630.700000286102},{""page_index"":2,""viewing_time"":6390},{""page_index"":3,""viewing_time"":6308},{""page_index"":4,""viewing_time"":6249.699999809265},{""page_index"":5,""viewing_time"":7220.400000095367},{""page_index"":6,""viewing_time"":7248.5},{""page_index"":7,""viewing_time"":6833.799999713898},{""page_index"":8,""viewing_time"":7428.10000038147},{""page_index"":9,""viewing_time"":10828.799999713898},{""page_index"":10,""viewing_time"":25850.300000190735},{""page_index"":11,""viewing_time"":8610.599999904633},{""page_index"":12,""viewing_time"":22449},{""page_index"":13,""viewing_time"":5990.300000190735}]","136174.59999990463","","","","","","","","","","","","","","","","","","","","","","","","",""
"pit-trial","11","244007","0.0-2.0-4.0-0.0","battery-v0.2","","""event"",""trial"",""time""
""fullscreenenter"",""1"",""2923""
""fullscreenexit"",""5"",""44597""
""blur"",""5"",""47632""
""focus"",""5"",""63857""
","""event"",""trial"",""time""
""blur"",""5"",""47632""
","""event"",""trial"",""time""
""focus"",""5"",""63857""
","""event"",""trial"",""time""
""fullscreenenter"",""1"",""2923""
","""event"",""trial"",""time""
""fullscreenexit"",""5"",""44597""
","","","-1","","","13","1225","1153","&#9784;","elianto","#FFFFF080"," ","-1","0","&#10060","[3259.5]","1","0","0","","","","","","","","",""
"pit-trial","12","248887","0.0-2.0-4.1-0.1","battery-v0.2","","""event"",""trial"",""time""
""fullscreenenter"",""1"",""2923""
""fullscreenexit"",""5"",""44597""
""blur"",""5"",""47632""
""focus"",""5"",""63857""
","""event"",""trial"",""time""
""blur"",""5"",""47632""
","""event"",""trial"",""time""
""focus"",""5"",""63857""
","""event"",""trial"",""time""
""fullscreenenter"",""1"",""2923""
","""event"",""trial"",""time""
""fullscreenexit"",""5"",""44597""
","","","-1","","","13","1225","1153","&#9784;","elianto","#FFFFF080"," ","-1","0","&#10060","[]","0","0","0","","","","","","","","",""
"pit-trial","13","252218","0.0-2.0-4.2-0.2","battery-v0.2","","""event"",""trial"",""time""
""fullscreenenter"",""1"",""2923""
""fullscreenexit"",""5"",""44597""
""blur"",""5"",""47632""
""focus"",""5"",""63857""
","""event"",""trial"",""time""
""blur"",""5"",""47632""
","""event"",""trial"",""time""
""focus"",""5"",""63857""
","""event"",""trial"",""time""
""fullscreenenter"",""1"",""2923""
","""event"",""trial"",""time""
""fullscreenexit"",""5"",""44597""
","","","457.5","","","13","1225","1153","&#9784;","elianto","#FFFFF080"," "," ","1","&#10004","[1308.6999998092651]","1","0","0","","","","","","","","",""
"pit-trial","14","256187","0.0-2.0-4.3-0.3","battery-v0.2","","""event"",""trial"",""time""
""fullscreenenter"",""1"",""2923""
""fullscreenexit"",""5"",""44597""
""blur"",""5"",""47632""
""focus"",""5"",""63857""
","""event"",""trial"",""time""
""blur"",""5"",""47632""
","""event"",""trial"",""time""
""focus"",""5"",""63857""
","""event"",""trial"",""time""
""fullscreenenter"",""1"",""2923""
","""event"",""trial"",""time""
""fullscreenexit"",""5"",""44597""
","","","1106","","","13","1225","1153","&#9784;","elianto","#FFFFF080"," "," ","1","&#10004","[1958.8000001907349]","1","0","0","","","","","","","","",""
"pit-trial","15","259797","0.0-2.0-4.4-0.4","battery-v0.2","","""event"",""trial"",""time""
""fullscreenenter"",""1"",""2923""
""fullscreenexit"",""5"",""44597""
""blur"",""5"",""47632""
""focus"",""5"",""63857""
","""event"",""trial"",""time""
""blur"",""5"",""47632""
","""event"",""trial"",""time""
""focus"",""5"",""63857""
","""event"",""trial"",""time""
""fullscreenenter"",""1"",""2923""
","""event"",""trial"",""time""
""fullscreenexit"",""5"",""44597""
","","","749","","","13","1225","1153","&#9784;","elianto","#FFFFF080"," "," ","1","&#10004","[1599.2999997138977]","1","0","0","","","","","","","","",""
"pit-instructions","16","284084","0.0-2.0-5.0","battery-v0.2","","""event"",""trial"",""time""
""fullscreenenter"",""1"",""2923""
""fullscreenexit"",""5"",""44597""
""blur"",""5"",""47632""
""focus"",""5"",""63857""
","""event"",""trial"",""time""
""blur"",""5"",""47632""
","""event"",""trial"",""time""
""focus"",""5"",""63857""
","""event"",""trial"",""time""
""fullscreenenter"",""1"",""2923""
","""event"",""trial"",""time""
""fullscreenexit"",""5"",""44597""
","","[{""page_index"":0,""viewing_time"":4803.199999809265},{""page_index"":1,""viewing_time"":5707.10000038147},{""page_index"":2,""viewing_time"":6471.599999904633},{""page_index"":3,""viewing_time"":7304}]","24286.300000190735","","","","","","","","","","","","","","","","","","","","","","","","",""
"pit-trial","17","288957","0.0-2.0-6.0-0.0","battery-v0.2","","""event"",""trial"",""time""
""fullscreenenter"",""1"",""2923""
""fullscreenexit"",""5"",""44597""
""blur"",""5"",""47632""
""focus"",""5"",""63857""
","""event"",""trial"",""time""
""blur"",""5"",""47632""
","""event"",""trial"",""time""
""focus"",""5"",""63857""
","""event"",""trial"",""time""
""fullscreenenter"",""1"",""2923""
","""event"",""trial"",""time""
""fullscreenexit"",""5"",""44597""
","","","-1","","","13","1225","1153","&#9854;","elianto","#FFFFF080","-1","-1","1","&#10004","[]","0","0","1","","","","","","","","",""
"pit-trial","18","293827","0.0-2.0-6.1-0.1","battery-v0.2","","""event"",""trial"",""time""
""fullscreenenter"",""1"",""2923""
""fullscreenexit"",""5"",""44597""
""blur"",""5"",""47632""
""focus"",""5"",""63857""
","""event"",""trial"",""time""
""blur"",""5"",""47632""
","""event"",""trial"",""time""
""focus"",""5"",""63857""
","""event"",""trial"",""time""
""fullscreenenter"",""1"",""2923""
","""event"",""trial"",""time""
""fullscreenexit"",""5"",""44597""
","","","-1","","","13","1225","1153","&#9854;","elianto","#FFFFF080","-1","-1","1","&#10004","[]","0","0","1","","","","","","","","",""
"pit-trial","19","298716","0.0-2.0-6.2-0.2","battery-v0.2","","""event"",""trial"",""time""
""fullscreenenter"",""1"",""2923""
""fullscreenexit"",""5"",""44597""
""blur"",""5"",""47632""
""focus"",""5"",""63857""
","""event"",""trial"",""time""
""blur"",""5"",""47632""
","""event"",""trial"",""time""
""focus"",""5"",""63857""
","""event"",""trial"",""time""
""fullscreenenter"",""1"",""2923""
","""event"",""trial"",""time""
""fullscreenexit"",""5"",""44597""
","","","-1","","","13","1225","1153","&#9854;","elianto","#FFFFF080","-1","-1","1","&#10004","[]","0","0","1","","","","","","","","",""
"pit-trial","20","303586","0.0-2.0-6.3-0.3","battery-v0.2","","""event"",""trial"",""time""
""fullscreenenter"",""1"",""2923""
""fullscreenexit"",""5"",""44597""
""blur"",""5"",""47632""
""focus"",""5"",""63857""
","""event"",""trial"",""time""
""blur"",""5"",""47632""
","""event"",""trial"",""time""
""focus"",""5"",""63857""
","""event"",""trial"",""time""
""fullscreenenter"",""1"",""2923""
","""event"",""trial"",""time""
""fullscreenexit"",""5"",""44597""
","","","-1","","","13","1225","1153","&#9854;","elianto","#FFFFF080","-1","-1","1","&#10004","[]","0","0","1","","","","","","","","",""
"pit-trial","21","308457","0.0-2.0-6.4-0.4","battery-v0.2","","""event"",""trial"",""time""
""fullscreenenter"",""1"",""2923""
""fullscreenexit"",""5"",""44597""
""blur"",""5"",""47632""
""focus"",""5"",""63857""
","""event"",""trial"",""time""
""blur"",""5"",""47632""
","""event"",""trial"",""time""
""focus"",""5"",""63857""
","""event"",""trial"",""time""
""fullscreenenter"",""1"",""2923""
","""event"",""trial"",""time""
""fullscreenexit"",""5"",""44597""
","","","-1","","","13","1225","1153","&#9854;","elianto","#FFFFF080","-1","-1","1","&#10004","[]","0","0","1","","","","","","","","",""
"pit-instructions","22","460681","0.0-2.0-7.0","battery-v0.2","","""event"",""trial"",""time""
""fullscreenenter"",""1"",""2923""
""fullscreenexit"",""5"",""44597""
""blur"",""5"",""47632""
""focus"",""5"",""63857""
","""event"",""trial"",""time""
""blur"",""5"",""47632""
","""event"",""trial"",""time""
""focus"",""5"",""63857""
","""event"",""trial"",""time""
""fullscreenenter"",""1"",""2923""
","""event"",""trial"",""time""
""fullscreenexit"",""5"",""44597""
","","[{""page_index"":0,""viewing_time"":6409.799999713898},{""page_index"":1,""viewing_time"":7639.400000095367},{""page_index"":2,""viewing_time"":7392.900000095367},{""page_index"":3,""viewing_time"":6530.199999809265},{""page_index"":4,""viewing_time"":6529.10000038147},{""page_index"":5,""viewing_time"":6001.299999713898},{""page_index"":6,""viewing_time"":14088.700000286102},{""page_index"":7,""viewing_time"":8980},{""page_index"":8,""viewing_time"":8499.299999713898},{""page_index"":9,""viewing_time"":6688.200000286102},{""page_index"":10,""viewing_time"":11461.699999809265},{""page_index"":11,""viewing_time"":5809.099999904633},{""page_index"":12,""viewing_time"":7269.700000286102},{""page_index"":13,""viewing_time"":9802.099999904633},{""page_index"":14,""viewing_time"":7328},{""page_index"":15,""viewing_time"":9222.699999809265},{""page_index"":16,""viewing_time"":11716.900000095367},{""page_index"":17,""viewing_time"":10851.5}]","152221.5","","","","","","","","","","","","","","","","","","","","","","","","",""
"pit-trial","23","465327","0.0-2.0-8.0-0.0","battery-v0.2","","""event"",""trial"",""time""
""fullscreenenter"",""1"",""2923""
""fullscreenexit"",""5"",""44597""
""blur"",""5"",""47632""
""focus"",""5"",""63857""
","""event"",""trial"",""time""
""blur"",""5"",""47632""
","""event"",""trial"",""time""
""focus"",""5"",""63857""
","""event"",""trial"",""time""
""fullscreenenter"",""1"",""2923""
","""event"",""trial"",""time""
""fullscreenexit"",""5"",""44597""
","","","1773.8999996185303","","","13","1225","1153","&#9776;","elianto","#3366ff99"," "," ","1","+10","[2624]","1","0","1","","","","","","","","",""
"pit-trial","24","469017","0.0-2.0-8.0-1.0","battery-v0.2","","""event"",""trial"",""time""
""fullscreenenter"",""1"",""2923""
""fullscreenexit"",""5"",""44597""
""blur"",""5"",""47632""
""focus"",""5"",""63857""
","""event"",""trial"",""time""
""blur"",""5"",""47632""
","""event"",""trial"",""time""
""focus"",""5"",""63857""
","""event"",""trial"",""time""
""fullscreenenter"",""1"",""2923""
","""event"",""trial"",""time""
""fullscreenexit"",""5"",""44597""
","","","835","","","13","1225","1153","&#9776;","elianto","#3366ff99"," "," ","1","+10","[1687]","1","0","1","","","","","","","","",""
"pit-trial","25","473313","0.0-2.0-8.0-2.0","battery-v0.2","","""event"",""trial"",""time""
""fullscreenenter"",""1"",""2923""
""fullscreenexit"",""5"",""44597""
""blur"",""5"",""47632""
""focus"",""5"",""63857""
","""event"",""trial"",""time""
""blur"",""5"",""47632""
","""event"",""trial"",""time""
""focus"",""5"",""63857""
","""event"",""trial"",""time""
""fullscreenenter"",""1"",""2923""
","""event"",""trial"",""time""
""fullscreenexit"",""5"",""44597""
","","","1436.1999998092651","","","13","1225","1153","&#9776;","elianto","#3366ff99"," "," ","1","+10","[2286.3999996185303]","1","0","1","","","","","","","","",""
"pit-trial","26","477367","0.0-2.0-8.0-3.0","battery-v0.2","","""event"",""trial"",""time""
""fullscreenenter"",""1"",""2923""
""fullscreenexit"",""5"",""44597""
""blur"",""5"",""47632""
""focus"",""5"",""63857""
","""event"",""trial"",""time""
""blur"",""5"",""47632""
","""event"",""trial"",""time""
""focus"",""5"",""63857""
","""event"",""trial"",""time""
""fullscreenenter"",""1"",""2923""
","""event"",""trial"",""time""
""fullscreenexit"",""5"",""44597""
","","","1184","","","13","1225","1153","&#9776;","elianto","#3366ff99"," "," ","1","0","[2034.3000001907349]","1","0","1","","","","","","","","",""
"pit-trial","27","481357","0.0-2.0-8.0-4.0","battery-v0.2","","""event"",""trial"",""time""
""fullscreenenter"",""1"",""2923""
""fullscreenexit"",""5"",""44597""
""blur"",""5"",""47632""
""focus"",""5"",""63857""
","""event"",""trial"",""time""
""blur"",""5"",""47632""
","""event"",""trial"",""time""
""focus"",""5"",""63857""
","""event"",""trial"",""time""
""fullscreenenter"",""1"",""2923""
","""event"",""trial"",""time""
""fullscreenexit"",""5"",""44597""
","","","1127.1999998092651","","","13","1225","1153","&#9776;","elianto","#3366ff99"," "," ","1","+10","[1978.5999999046326]","1","0","1","","","","","","","","",""
"call-function","28","481360","0.0-2.0-9.0","battery-v0.2","","""event"",""trial"",""time""
""fullscreenenter"",""1"",""2923""
""fullscreenexit"",""5"",""44597""
""blur"",""5"",""47632""
""focus"",""5"",""63857""
","""event"",""trial"",""time""
""blur"",""5"",""47632""
","""event"",""trial"",""time""
""focus"",""5"",""63857""
","""event"",""trial"",""time""
""fullscreenenter"",""1"",""2923""
","""event"",""trial"",""time""
""fullscreenexit"",""5"",""44597""
","","","","","","","","","","","","","","","","","","","","","","","","","","","",""
"pit-instructions","29","534420","0.0-2.0-10.0","battery-v0.2","","""event"",""trial"",""time""
""fullscreenenter"",""1"",""2923""
""fullscreenexit"",""5"",""44597""
""blur"",""5"",""47632""
""focus"",""5"",""63857""
","""event"",""trial"",""time""
""blur"",""5"",""47632""
","""event"",""trial"",""time""
""focus"",""5"",""63857""
","""event"",""trial"",""time""
""fullscreenenter"",""1"",""2923""
","""event"",""trial"",""time""
""fullscreenexit"",""5"",""44597""
","","[{""page_index"":0,""viewing_time"":8960.800000190735},{""page_index"":1,""viewing_time"":11097.699999809265},{""page_index"":2,""viewing_time"":12285.200000286102},{""page_index"":3,""viewing_time"":11355.099999904633},{""page_index"":4,""viewing_time"":9359.799999713898}]","53059.300000190735","","","","","","","","","","","","","","","","","","","","","","","","",""
"pit-trial","30","537776","0.0-2.0-11.0-0.0","battery-v0.2","","""event"",""trial"",""time""
""fullscreenenter"",""1"",""2923""
""fullscreenexit"",""5"",""44597""
""blur"",""5"",""47632""
""focus"",""5"",""63857""
","""event"",""trial"",""time""
""blur"",""5"",""47632""
","""event"",""trial"",""time""
""focus"",""5"",""63857""
","""event"",""trial"",""time""
""fullscreenenter"",""1"",""2923""
","""event"",""trial"",""time""
""fullscreenexit"",""5"",""44597""
","","","498.90000009536743","","","13","1225","1153","&#9761;","elianto","#3366ff99","-1"," ","0","0","[1349.3000001907349]","1","0","2","","","","","","","","",""
"pit-trial","31","542666","0.0-2.0-11.0-1.0","battery-v0.2","","""event"",""trial"",""time""
""fullscreenenter"",""1"",""2923""
""fullscreenexit"",""5"",""44597""
""blur"",""5"",""47632""
""focus"",""5"",""63857""
","""event"",""trial"",""time""
""blur"",""5"",""47632""
","""event"",""trial"",""time""
""focus"",""5"",""63857""
","""event"",""trial"",""time""
""fullscreenenter"",""1"",""2923""
","""event"",""trial"",""time""
""fullscreenexit"",""5"",""44597""
","","","-1","","","13","1225","1153","&#9761;","elianto","#3366ff99","-1","-1","1","+10","[]","0","0","2","","","","","","","","",""
"pit-trial","32","547556","0.0-2.0-11.0-2.0","battery-v0.2","","""event"",""trial"",""time""
""fullscreenenter"",""1"",""2923""
""fullscreenexit"",""5"",""44597""
""blur"",""5"",""47632""
""focus"",""5"",""63857""
","""event"",""trial"",""time""
""blur"",""5"",""47632""
","""event"",""trial"",""time""
""focus"",""5"",""63857""
","""event"",""trial"",""time""
""fullscreenenter"",""1"",""2923""
","""event"",""trial"",""time""
""fullscreenexit"",""5"",""44597""
","","","-1","","","13","1225","1153","&#9761;","elianto","#3366ff99","-1","-1","1","+10","[]","0","0","2","","","","","","","","",""
"pit-trial","33","552446","0.0-2.0-11.0-3.0","battery-v0.2","","""event"",""trial"",""time""
""fullscreenenter"",""1"",""2923""
""fullscreenexit"",""5"",""44597""
""blur"",""5"",""47632""
""focus"",""5"",""63857""
","""event"",""trial"",""time""
""blur"",""5"",""47632""
","""event"",""trial"",""time""
""focus"",""5"",""63857""
","""event"",""trial"",""time""
""fullscreenenter"",""1"",""2923""
","""event"",""trial"",""time""
""fullscreenexit"",""5"",""44597""
","","","-1","","","13","1225","1153","&#9761;","elianto","#3366ff99","-1","-1","1","0","[]","0","0","2","","","","","","","","",""
"pit-trial","34","557336","0.0-2.0-11.0-4.0","battery-v0.2","","""event"",""trial"",""time""
""fullscreenenter"",""1"",""2923""
""fullscreenexit"",""5"",""44597""
""blur"",""5"",""47632""
""focus"",""5"",""63857""
","""event"",""trial"",""time""
""blur"",""5"",""47632""
","""event"",""trial"",""time""
""focus"",""5"",""63857""
","""event"",""trial"",""time""
""fullscreenenter"",""1"",""2923""
","""event"",""trial"",""time""
""fullscreenexit"",""5"",""44597""
","","","-1","","","13","1225","1153","&#9761;","elianto","#3366ff99","-1","-1","1","+10","[]","0","0","2","","","","","","","","",""
"call-function","35","557337","0.0-2.0-12.0","battery-v0.2","","""event"",""trial"",""time""
""fullscreenenter"",""1"",""2923""
""fullscreenexit"",""5"",""44597""
""blur"",""5"",""47632""
""focus"",""5"",""63857""
","""event"",""trial"",""time""
""blur"",""5"",""47632""
","""event"",""trial"",""time""
""focus"",""5"",""63857""
","""event"",""trial"",""time""
""fullscreenenter"",""1"",""2923""
","""event"",""trial"",""time""
""fullscreenexit"",""5"",""44597""
","","","","","","","","","","","","","","","","","","","","","","","","","","","",""
"pit-instructions","36","599131","0.0-2.0-13.0","battery-v0.2","","""event"",""trial"",""time""
""fullscreenenter"",""1"",""2923""
""fullscreenexit"",""5"",""44597""
""blur"",""5"",""47632""
""focus"",""5"",""63857""
","""event"",""trial"",""time""
""blur"",""5"",""47632""
","""event"",""trial"",""time""
""focus"",""5"",""63857""
","""event"",""trial"",""time""
""fullscreenenter"",""1"",""2923""
","""event"",""trial"",""time""
""fullscreenexit"",""5"",""44597""
","","[{""page_index"":0,""viewing_time"":6411},{""page_index"":1,""viewing_time"":9081.39999961853},{""page_index"":2,""viewing_time"":6908.60000038147},{""page_index"":3,""viewing_time"":13880.199999809265},{""page_index"":4,""viewing_time"":5511.800000190735}]","41794","","","","","","","","","","","","","","","","","","","","","","","","",""
"pit-trial","37","602286","0.0-2.0-14.0-0.0","battery-v0.2","","""event"",""trial"",""time""
""fullscreenenter"",""1"",""2923""
""fullscreenexit"",""5"",""44597""
""blur"",""5"",""47632""
""focus"",""5"",""63857""
","""event"",""trial"",""time""
""blur"",""5"",""47632""
","""event"",""trial"",""time""
""focus"",""5"",""63857""
","""event"",""trial"",""time""
""fullscreenenter"",""1"",""2923""
","""event"",""trial"",""time""
""fullscreenexit"",""5"",""44597""
","","","286.80000019073486","","","13","1225","1153","&#9826;","elianto","#f73b6a7A","-1"," ","0","-10","[1138.6999998092651]","1","0","3","","","","","","","","",""
"pit-trial","38","607166","0.0-2.0-14.0-1.0","battery-v0.2","","""event"",""trial"",""time""
""fullscreenenter"",""1"",""2923""
""fullscreenexit"",""5"",""44597""
""blur"",""5"",""47632""
""focus"",""5"",""63857""
","""event"",""trial"",""time""
""blur"",""5"",""47632""
","""event"",""trial"",""time""
""focus"",""5"",""63857""
","""event"",""trial"",""time""
""fullscreenenter"",""1"",""2923""
","""event"",""trial"",""time""
""fullscreenexit"",""5"",""44597""
","","","-1","","","13","1225","1153","&#9826;","elianto","#f73b6a7A","-1","-1","1","0","[]","0","0","3","","","","","","","","",""
"pit-trial","39","612026","0.0-2.0-14.0-2.0","battery-v0.2","","""event"",""trial"",""time""
""fullscreenenter"",""1"",""2923""
""fullscreenexit"",""5"",""44597""
""blur"",""5"",""47632""
""focus"",""5"",""63857""
","""event"",""trial"",""time""
""blur"",""5"",""47632""
","""event"",""trial"",""time""
""focus"",""5"",""63857""
","""event"",""trial"",""time""
""fullscreenenter"",""1"",""2923""
","""event"",""trial"",""time""
""fullscreenexit"",""5"",""44597""
","","","-1","","","13","1225","1153","&#9826;","elianto","#f73b6a7A","-1","-1","1","0","[]","0","0","3","","","","","","","","",""
"pit-trial","40","616915","0.0-2.0-14.0-3.0","battery-v0.2","","""event"",""trial"",""time""
""fullscreenenter"",""1"",""2923""
""fullscreenexit"",""5"",""44597""
""blur"",""5"",""47632""
""focus"",""5"",""63857""
","""event"",""trial"",""time""
""blur"",""5"",""47632""
","""event"",""trial"",""time""
""focus"",""5"",""63857""
","""event"",""trial"",""time""
""fullscreenenter"",""1"",""2923""
","""event"",""trial"",""time""
""fullscreenexit"",""5"",""44597""
","","","-1","","","13","1225","1153","&#9826;","elianto","#f73b6a7A","-1","-1","1","-10","[]","0","0","3","","","","","","","","",""
"pit-trial","41","621797","0.0-2.0-14.0-4.0","battery-v0.2","","""event"",""trial"",""time""
""fullscreenenter"",""1"",""2923""
""fullscreenexit"",""5"",""44597""
""blur"",""5"",""47632""
""focus"",""5"",""63857""
","""event"",""trial"",""time""
""blur"",""5"",""47632""
","""event"",""trial"",""time""
""focus"",""5"",""63857""
","""event"",""trial"",""time""
""fullscreenenter"",""1"",""2923""
","""event"",""trial"",""time""
""fullscreenexit"",""5"",""44597""
","","","-1","","","13","1225","1153","&#9826;","elianto","#f73b6a7A","-1","-1","1","0","[]","0","0","3","","","","","","","","",""
"call-function","42","621798","0.0-2.0-15.0","battery-v0.2","","""event"",""trial"",""time""
""fullscreenenter"",""1"",""2923""
""fullscreenexit"",""5"",""44597""
""blur"",""5"",""47632""
""focus"",""5"",""63857""
","""event"",""trial"",""time""
""blur"",""5"",""47632""
","""event"",""trial"",""time""
""focus"",""5"",""63857""
","""event"",""trial"",""time""
""fullscreenenter"",""1"",""2923""
","""event"",""trial"",""time""
""fullscreenexit"",""5"",""44597""
","","","","","","","","","","","","","","","","","","","","","","","","","","","",""
"pit-instructions","43","662280","0.0-2.0-16.0","battery-v0.2","","""event"",""trial"",""time""
""fullscreenenter"",""1"",""2923""
""fullscreenexit"",""5"",""44597""
""blur"",""5"",""47632""
""focus"",""5"",""63857""
","""event"",""trial"",""time""
""blur"",""5"",""47632""
","""event"",""trial"",""time""
""focus"",""5"",""63857""
","""event"",""trial"",""time""
""fullscreenenter"",""1"",""2923""
","""event"",""trial"",""time""
""fullscreenexit"",""5"",""44597""
","","[{""page_index"":0,""viewing_time"":8291.400000095367},{""page_index"":1,""viewing_time"":19912.799999713898},{""page_index"":2,""viewing_time"":5913.900000095367},{""page_index"":3,""viewing_time"":6362.199999809265}]","40481.09999990463","","","","","","","","","","","","","","","","","","","","","","","","",""
"pit-trial","44","667146","0.0-2.0-17.0-0.0","battery-v0.2","","""event"",""trial"",""time""
""fullscreenenter"",""1"",""2923""
""fullscreenexit"",""5"",""44597""
""blur"",""5"",""47632""
""focus"",""5"",""63857""
","""event"",""trial"",""time""
""blur"",""5"",""47632""
","""event"",""trial"",""time""
""focus"",""5"",""63857""
","""event"",""trial"",""time""
""fullscreenenter"",""1"",""2923""
","""event"",""trial"",""time""
""fullscreenexit"",""5"",""44597""
","","","-1","","","13","1225","1153","&#9789;","elianto","#f73b6a7A"," ","-1","0","-10","[]","0","0","4","","","","","","","","",""
"pit-trial","45","671466","0.0-2.0-17.0-1.0","battery-v0.2","","""event"",""trial"",""time""
""fullscreenenter"",""1"",""2923""
""fullscreenexit"",""5"",""44597""
""blur"",""5"",""47632""
""focus"",""5"",""63857""
","""event"",""trial"",""time""
""blur"",""5"",""47632""
","""event"",""trial"",""time""
""focus"",""5"",""63857""
","""event"",""trial"",""time""
""fullscreenenter"",""1"",""2923""
","""event"",""trial"",""time""
""fullscreenexit"",""5"",""44597""
","","","1462.5","","","13","1225","1153","&#9789;","elianto","#f73b6a7A"," "," ","1","0","[2312.5999999046326]","1","0","4","","","","","","","","",""
"pit-trial","46","674576","0.0-2.0-17.0-2.0","battery-v0.2","","""event"",""trial"",""time""
""fullscreenenter"",""1"",""2923""
""fullscreenexit"",""5"",""44597""
""blur"",""5"",""47632""
""focus"",""5"",""63857""
","""event"",""trial"",""time""
""blur"",""5"",""47632""
","""event"",""trial"",""time""
""focus"",""5"",""63857""
","""event"",""trial"",""time""
""fullscreenenter"",""1"",""2923""
","""event"",""trial"",""time""
""fullscreenexit"",""5"",""44597""
","","","252.2999997138977","","","13","1225","1153","&#9789;","elianto","#f73b6a7A"," "," ","1","0","[1103.2999997138977]","1","0","4","","","","","","","","",""
"pit-trial","47","677696","0.0-2.0-17.0-3.0","battery-v0.2","","""event"",""trial"",""time""
""fullscreenenter"",""1"",""2923""
""fullscreenexit"",""5"",""44597""
""blur"",""5"",""47632""
""focus"",""5"",""63857""
","""event"",""trial"",""time""
""blur"",""5"",""47632""
","""event"",""trial"",""time""
""focus"",""5"",""63857""
","""event"",""trial"",""time""
""fullscreenenter"",""1"",""2923""
","""event"",""trial"",""time""
""fullscreenexit"",""5"",""44597""
","","","256.40000009536743","","","13","1225","1153","&#9789;","elianto","#f73b6a7A"," "," ","1","-10","[1106.6000003814697]","1","0","4","","","","","","","","",""
"pit-trial","48","680953","0.0-2.0-17.0-4.0","battery-v0.2","","""event"",""trial"",""time""
""fullscreenenter"",""1"",""2923""
""fullscreenexit"",""5"",""44597""
""blur"",""5"",""47632""
""focus"",""5"",""63857""
","""event"",""trial"",""time""
""blur"",""5"",""47632""
","""event"",""trial"",""time""
""focus"",""5"",""63857""
","""event"",""trial"",""time""
""fullscreenenter"",""1"",""2923""
","""event"",""trial"",""time""
""fullscreenexit"",""5"",""44597""
","","","391.09999990463257","","","13","1225","1153","&#9789;","elianto","#f73b6a7A"," "," ","1","0","[1241.5999999046326]","1","0","4","","","","","","","","",""
"call-function","49","680955","0.0-2.0-18.0","battery-v0.2","","""event"",""trial"",""time""
""fullscreenenter"",""1"",""2923""
""fullscreenexit"",""5"",""44597""
""blur"",""5"",""47632""
""focus"",""5"",""63857""
","""event"",""trial"",""time""
""blur"",""5"",""47632""
","""event"",""trial"",""time""
""focus"",""5"",""63857""
","""event"",""trial"",""time""
""fullscreenenter"",""1"",""2923""
","""event"",""trial"",""time""
""fullscreenexit"",""5"",""44597""
","","","","","","","","","","","","","","","","","","","","","","","","","","","",""
"pit-instructions","50","793040","0.0-2.0-19.0","battery-v0.2","","""event"",""trial"",""time""
""fullscreenenter"",""1"",""2923""
""fullscreenexit"",""5"",""44597""
""blur"",""5"",""47632""
""focus"",""5"",""63857""
","""event"",""trial"",""time""
""blur"",""5"",""47632""
","""event"",""trial"",""time""
""focus"",""5"",""63857""
","""event"",""trial"",""time""
""fullscreenenter"",""1"",""2923""
","""event"",""trial"",""time""
""fullscreenexit"",""5"",""44597""
","","[{""page_index"":0,""viewing_time"":7126.5},{""page_index"":1,""viewing_time"":7197.60000038147},{""page_index"":2,""viewing_time"":32128.699999809265},{""page_index"":3,""viewing_time"":7812.599999904633},{""page_index"":4,""viewing_time"":14606.599999904633},{""page_index"":5,""viewing_time"":19050.300000190735},{""page_index"":6,""viewing_time"":10500.099999904633},{""page_index"":7,""viewing_time"":5707.599999904633},{""page_index"":8,""viewing_time"":7953.800000190735}]","112084.60000038147","","","","","","","","","","","","","","","","","","","","","","","","",""
"pit-comprehension","51","799897","0.0-2.0-20.0-0.0","battery-v0.2","","""event"",""trial"",""time""
""fullscreenenter"",""1"",""2923""
""fullscreenexit"",""5"",""44597""
""blur"",""5"",""47632""
""focus"",""5"",""63857""
","""event"",""trial"",""time""
""blur"",""5"",""47632""
","""event"",""trial"",""time""
""focus"",""5"",""63857""
","""event"",""trial"",""time""
""fullscreenenter"",""1"",""2923""
","""event"",""trial"",""time""
""fullscreenexit"",""5"",""44597""
","","","6852.5","[""SPACE""]","0","13","1225","1153","","","","","","","","","","","","","","","","","","","",""
"pit-instructions","52","802100","0.0-2.0-20.0-1.0","battery-v0.2","","""event"",""trial"",""time""
""fullscreenenter"",""1"",""2923""
""fullscreenexit"",""5"",""44597""
""blur"",""5"",""47632""
""focus"",""5"",""63857""
","""event"",""trial"",""time""
""blur"",""5"",""47632""
","""event"",""trial"",""time""
""focus"",""5"",""63857""
","""event"",""trial"",""time""
""fullscreenenter"",""1"",""2923""
","""event"",""trial"",""time""
""fullscreenexit"",""5"",""44597""
","","[{""page_index"":0,""viewing_time"":2185.2999997138977}]","2186.199999809265","","","","","","","","","","","","","","","","","","","","","","","","",""
"pit-comprehension","53","810888","0.0-2.0-21.0-0.0","battery-v0.2","","""event"",""trial"",""time""
""fullscreenenter"",""1"",""2923""
""fullscreenexit"",""5"",""44597""
""blur"",""5"",""47632""
""focus"",""5"",""63857""
","""event"",""trial"",""time""
""blur"",""5"",""47632""
","""event"",""trial"",""time""
""focus"",""5"",""63857""
","""event"",""trial"",""time""
""fullscreenenter"",""1"",""2923""
","""event"",""trial"",""time""
""fullscreenexit"",""5"",""44597""
","","","8783.5","[""10""]","0","13","1225","1153","","","","","","","","","","","","","","","","","","","",""
"pit-instructions","54","823901","0.0-2.0-21.0-1.0","battery-v0.2","","""event"",""trial"",""time""
""fullscreenenter"",""1"",""2923""
""fullscreenexit"",""5"",""44597""
""blur"",""5"",""47632""
""focus"",""5"",""63857""
","""event"",""trial"",""time""
""blur"",""5"",""47632""
","""event"",""trial"",""time""
""focus"",""5"",""63857""
","""event"",""trial"",""time""
""fullscreenenter"",""1"",""2923""
","""event"",""trial"",""time""
""fullscreenexit"",""5"",""44597""
","","[{""page_index"":0,""viewing_time"":12996.39999961853}]","12997.599999904633","","","","","","","","","","","","","","","","","","","","","","","","",""
"pit-comprehension","55","845402","0.0-2.0-22.0-0.0","battery-v0.2","","""event"",""trial"",""time""
""fullscreenenter"",""1"",""2923""
""fullscreenexit"",""5"",""44597""
""blur"",""5"",""47632""
""focus"",""5"",""63857""
","""event"",""trial"",""time""
""blur"",""5"",""47632""
","""event"",""trial"",""time""
""focus"",""5"",""63857""
","""event"",""trial"",""time""
""fullscreenenter"",""1"",""2923""
","""event"",""trial"",""time""
""fullscreenexit"",""5"",""44597""
","","","21495.099999904633","[""0""]","0","13","1225","1153","","","","","","","","","","","","","","","","","","","",""
"pit-instructions","56","851055","0.0-2.0-22.0-1.0","battery-v0.2","","""event"",""trial"",""time""
""fullscreenenter"",""1"",""2923""
""fullscreenexit"",""5"",""44597""
""blur"",""5"",""47632""
""focus"",""5"",""63857""
","""event"",""trial"",""time""
""blur"",""5"",""47632""
","""event"",""trial"",""time""
""focus"",""5"",""63857""
","""event"",""trial"",""time""
""fullscreenenter"",""1"",""2923""
","""event"",""trial"",""time""
""fullscreenexit"",""5"",""44597""
","","[{""page_index"":0,""viewing_time"":5635.300000190735}]","5635.800000190735","","","","","","","","","","","","","","","","","","","","","","","","",""
"pit-comprehension","57","868346","0.0-2.0-23.0-0.0","battery-v0.2","","""event"",""trial"",""time""
""fullscreenenter"",""1"",""2923""
""fullscreenexit"",""5"",""44597""
""blur"",""5"",""47632""
""focus"",""5"",""63857""
","""event"",""trial"",""time""
""blur"",""5"",""47632""
","""event"",""trial"",""time""
""focus"",""5"",""63857""
","""event"",""trial"",""time""
""fullscreenenter"",""1"",""2923""
","""event"",""trial"",""time""
""fullscreenexit"",""5"",""44597""
","","","17284.099999904633","[""False""]","1","13","1225","1153","","","","","","","","","","","","","","","","","","","",""
"pit-instructions","58","870835","0.0-2.0-23.0-1.0","battery-v0.2","","""event"",""trial"",""time""
""fullscreenenter"",""1"",""2923""
""fullscreenexit"",""5"",""44597""
""blur"",""5"",""47632""
""focus"",""5"",""63857""
","""event"",""trial"",""time""
""blur"",""5"",""47632""
","""event"",""trial"",""time""
""focus"",""5"",""63857""
","""event"",""trial"",""time""
""fullscreenenter"",""1"",""2923""
","""event"",""trial"",""time""
""fullscreenexit"",""5"",""44597""
","","[{""page_index"":0,""viewing_time"":2464.9000000953674}]","2465.0999999046326","","","","","","","","","","","","","","","","","","","","","","","","",""
"pit-instructions","59","872087","0.0-2.0-23.0-2.0-0.0","battery-v0.2","","""event"",""trial"",""time""
""fullscreenenter"",""1"",""2923""
""fullscreenexit"",""5"",""44597""
""blur"",""5"",""47632""
""focus"",""5"",""63857""
","""event"",""trial"",""time""
""blur"",""5"",""47632""
","""event"",""trial"",""time""
""focus"",""5"",""63857""
","""event"",""trial"",""time""
""fullscreenenter"",""1"",""2923""
","""event"",""trial"",""time""
""fullscreenexit"",""5"",""44597""
","","[{""page_index"":0,""viewing_time"":1251.3000001907349}]","1251.5999999046326","","","","","","","","","","","","","","","","","","","","","","","","",""
"pit-comprehension","60","880173","0.0-2.0-23.1-0.1","battery-v0.2","","""event"",""trial"",""time""
""fullscreenenter"",""1"",""2923""
""fullscreenexit"",""5"",""44597""
""blur"",""5"",""47632""
""focus"",""5"",""63857""
","""event"",""trial"",""time""
""blur"",""5"",""47632""
","""event"",""trial"",""time""
""focus"",""5"",""63857""
","""event"",""trial"",""time""
""fullscreenenter"",""1"",""2923""
","""event"",""trial"",""time""
""fullscreenexit"",""5"",""44597""
","","","8083.900000095367","[""True""]","0","13","1225","1153","","","","","","","","","","","","","","","","","","","",""
"pit-instructions","61","881881","0.0-2.0-23.1-1.1","battery-v0.2","","""event"",""trial"",""time""
""fullscreenenter"",""1"",""2923""
""fullscreenexit"",""5"",""44597""
""blur"",""5"",""47632""
""focus"",""5"",""63857""
","""event"",""trial"",""time""
""blur"",""5"",""47632""
","""event"",""trial"",""time""
""focus"",""5"",""63857""
","""event"",""trial"",""time""
""fullscreenenter"",""1"",""2923""
","""event"",""trial"",""time""
""fullscreenexit"",""5"",""44597""
","","[{""page_index"":0,""viewing_time"":1691.5}]","1691.7999997138977","","","","","","","","","","","","","","","","","","","","","","","","",""
"pit-comprehension","62","890658","0.0-2.0-24.0-0.0","battery-v0.2","","""event"",""trial"",""time""
""fullscreenenter"",""1"",""2923""
""fullscreenexit"",""5"",""44597""
""blur"",""5"",""47632""
""focus"",""5"",""63857""
","""event"",""trial"",""time""
""blur"",""5"",""47632""
","""event"",""trial"",""time""
""focus"",""5"",""63857""
","""event"",""trial"",""time""
""fullscreenenter"",""1"",""2923""
","""event"",""trial"",""time""
""fullscreenexit"",""5"",""44597""
","","","8775.099999904633","[""True""]","0","13","1225","1153","","","","","","","","","","","","","","","","","","","",""
"pit-instructions","63","892259","0.0-2.0-24.0-1.0","battery-v0.2","","""event"",""trial"",""time""
""fullscreenenter"",""1"",""2923""
""fullscreenexit"",""5"",""44597""
""blur"",""5"",""47632""
""focus"",""5"",""63857""
","""event"",""trial"",""time""
""blur"",""5"",""47632""
","""event"",""trial"",""time""
""focus"",""5"",""63857""
","""event"",""trial"",""time""
""fullscreenenter"",""1"",""2923""
","""event"",""trial"",""time""
""fullscreenexit"",""5"",""44597""
","","[{""page_index"":0,""viewing_time"":1583.5}]","1584","","","","","","","","","","","","","","","","","","","","","","","","",""
"pit-comprehension","64","900268","0.0-2.0-25.0-0.0","battery-v0.2","","""event"",""trial"",""time""
""fullscreenenter"",""1"",""2923""
""fullscreenexit"",""5"",""44597""
""blur"",""5"",""47632""
""focus"",""5"",""63857""
","""event"",""trial"",""time""
""blur"",""5"",""47632""
","""event"",""trial"",""time""
""focus"",""5"",""63857""
","""event"",""trial"",""time""
""fullscreenenter"",""1"",""2923""
","""event"",""trial"",""time""
""fullscreenexit"",""5"",""44597""
","","","8003.699999809265","[""True""]","0","13","1225","1153","","","","","","","","","","","","","","","","","","","",""
"pit-instructions","65","902232","0.0-2.0-25.0-1.0","battery-v0.2","","""event"",""trial"",""time""
""fullscreenenter"",""1"",""2923""
""fullscreenexit"",""5"",""44597""
""blur"",""5"",""47632""
""focus"",""5"",""63857""
","""event"",""trial"",""time""
""blur"",""5"",""47632""
","""event"",""trial"",""time""
""focus"",""5"",""63857""
","""event"",""trial"",""time""
""fullscreenenter"",""1"",""2923""
","""event"",""trial"",""time""
""fullscreenexit"",""5"",""44597""
","","[{""page_index"":0,""viewing_time"":1939.1999998092651}]","1939.4000000953674","","","","","","","","","","","","","","","","","","","","","","","","",""
"pit-comprehension","66","915361","0.0-2.0-26.0-0.0","battery-v0.2","","""event"",""trial"",""time""
""fullscreenenter"",""1"",""2923""
""fullscreenexit"",""5"",""44597""
""blur"",""5"",""47632""
""focus"",""5"",""63857""
","""event"",""trial"",""time""
""blur"",""5"",""47632""
","""event"",""trial"",""time""
""focus"",""5"",""63857""
","""event"",""trial"",""time""
""fullscreenenter"",""1"",""2923""
","""event"",""trial"",""time""
""fullscreenexit"",""5"",""44597""
","","","13126.599999904633","[""True""]","1","13","1225","1153","","","","","","","","","","","","","","","","","","","",""
"pit-instructions","67","916941","0.0-2.0-26.0-1.0","battery-v0.2","","""event"",""trial"",""time""
""fullscreenenter"",""1"",""2923""
""fullscreenexit"",""5"",""44597""
""blur"",""5"",""47632""
""focus"",""5"",""63857""
","""event"",""trial"",""time""
""blur"",""5"",""47632""
","""event"",""trial"",""time""
""focus"",""5"",""63857""
","""event"",""trial"",""time""
""fullscreenenter"",""1"",""2923""
","""event"",""trial"",""time""
""fullscreenexit"",""5"",""44597""
","","[{""page_index"":0,""viewing_time"":1558.8000001907349}]","1559.5","","","","","","","","","","","","","","","","","","","","","","","","",""
"pit-instructions","68","917888","0.0-2.0-26.0-2.0-0.0","battery-v0.2","","""event"",""trial"",""time""
""fullscreenenter"",""1"",""2923""
""fullscreenexit"",""5"",""44597""
""blur"",""5"",""47632""
""focus"",""5"",""63857""
","""event"",""trial"",""time""
""blur"",""5"",""47632""
","""event"",""trial"",""time""
""focus"",""5"",""63857""
","""event"",""trial"",""time""
""fullscreenenter"",""1"",""2923""
","""event"",""trial"",""time""
""fullscreenexit"",""5"",""44597""
","","[{""page_index"":0,""viewing_time"":943.2999997138977}]","943.5999999046326","","","","","","","","","","","","","","","","","","","","","","","","",""
"pit-comprehension","69","922486","0.0-2.0-26.1-0.1","battery-v0.2","","""event"",""trial"",""time""
""fullscreenenter"",""1"",""2923""
""fullscreenexit"",""5"",""44597""
""blur"",""5"",""47632""
""focus"",""5"",""63857""
","""event"",""trial"",""time""
""blur"",""5"",""47632""
","""event"",""trial"",""time""
""focus"",""5"",""63857""
","""event"",""trial"",""time""
""fullscreenenter"",""1"",""2923""
","""event"",""trial"",""time""
""fullscreenexit"",""5"",""44597""
","","","4596","[""False""]","0","13","1225","1153","","","","","","","","","","","","","","","","","","","",""
"pit-instructions","70","923728","0.0-2.0-26.1-1.1","battery-v0.2","","""event"",""trial"",""time""
""fullscreenenter"",""1"",""2923""
""fullscreenexit"",""5"",""44597""
""blur"",""5"",""47632""
""focus"",""5"",""63857""
","""event"",""trial"",""time""
""blur"",""5"",""47632""
","""event"",""trial"",""time""
""focus"",""5"",""63857""
","""event"",""trial"",""time""
""fullscreenenter"",""1"",""2923""
","""event"",""trial"",""time""
""fullscreenexit"",""5"",""44597""
","","[{""page_index"":0,""viewing_time"":1222.4000000953674}]","1222.7000002861023","","","","","","","","","","","","","","","","","","","","","","","","",""
"pit-instructions","71","939501","0.0-3.0","battery-v0.2","","""event"",""trial"",""time""
""fullscreenenter"",""1"",""2923""
""fullscreenexit"",""5"",""44597""
""blur"",""5"",""47632""
""focus"",""5"",""63857""
","""event"",""trial"",""time""
""blur"",""5"",""47632""
","""event"",""trial"",""time""
""focus"",""5"",""63857""
","""event"",""trial"",""time""
""fullscreenenter"",""1"",""2923""
","""event"",""trial"",""time""
""fullscreenexit"",""5"",""44597""
","","[{""page_index"":0,""viewing_time"":3352.2000002861023},{""page_index"":1,""viewing_time"":5511.900000095367},{""page_index"":2,""viewing_time"":6907.099999904633}]","15771.700000286102","","","","","","","","","","","","","","","","","","","","","","","","",""
"pit-trial","72","944086","0.0-4.0","battery-v0.2","","""event"",""trial"",""time""
""fullscreenenter"",""1"",""2923""
""fullscreenexit"",""5"",""44597""
""blur"",""5"",""47632""
""focus"",""5"",""63857""
","""event"",""trial"",""time""
""blur"",""5"",""47632""
","""event"",""trial"",""time""
""focus"",""5"",""63857""
","""event"",""trial"",""time""
""fullscreenenter"",""1"",""2923""
","""event"",""trial"",""time""
""fullscreenexit"",""5"",""44597""
","","","1710.4000000953674","","","13","1225","1153","&#9730;","elianto","#3366ff99"," "," ","1","+10","[2561.9000000953674]","1","1","","","1225","1","1","1","win","go","0","[]"
"pit-trial","73","947426","0.0-5.0","battery-v0.2","","""event"",""trial"",""time""
""fullscreenenter"",""1"",""2923""
""fullscreenexit"",""5"",""44597""
""blur"",""5"",""47632""
""focus"",""5"",""63857""
","""event"",""trial"",""time""
""blur"",""5"",""47632""
","""event"",""trial"",""time""
""focus"",""5"",""63857""
","""event"",""trial"",""time""
""fullscreenenter"",""1"",""2923""
","""event"",""trial"",""time""
""fullscreenexit"",""5"",""44597""
","","","468","","","13","1225","1153","&#9733;","elianto","#3366ff99","-1"," ","0","0","[1319.0999999046326]","1","1","","","1225","2","2","2","win","no-go","0","0"
"pit-trial","74","951116","0.0-6.0","battery-v0.2","","""event"",""trial"",""time""
""fullscreenenter"",""1"",""2923""
""fullscreenexit"",""5"",""44597""
""blur"",""5"",""47632""
""focus"",""5"",""63857""
","""event"",""trial"",""time""
""blur"",""5"",""47632""
","""event"",""trial"",""time""
""focus"",""5"",""63857""
","""event"",""trial"",""time""
""fullscreenenter"",""1"",""2923""
","""event"",""trial"",""time""
""fullscreenexit"",""5"",""44597""
","","","831.3000001907349","","","13","1225","1153","&#9728;","elianto","#f73b6a7A","-1"," ","0","-10","[1682.5]","1","1","","","1225","3","0","4","lose","no-go","0","0"
"pit-trial","75","955986","0.0-7.0","battery-v0.2","","""event"",""trial"",""time""
""fullscreenenter"",""1"",""2923""
""fullscreenexit"",""5"",""44597""
""blur"",""5"",""47632""
""focus"",""5"",""63857""
","""event"",""trial"",""time""
""blur"",""5"",""47632""
","""event"",""trial"",""time""
""focus"",""5"",""63857""
","""event"",""trial"",""time""
""fullscreenenter"",""1"",""2923""
","""event"",""trial"",""time""
""fullscreenexit"",""5"",""44597""
","","","-1","","","13","1225","1153","&#9752;","elianto","#f73b6a7A"," ","-1","0","-10","[3046.4000000953674]","1","1","","","1225","4","3","3","lose","go","0","0"
"pit-trial","76","959186","0.0-8.0","battery-v0.2","","""event"",""trial"",""time""
""fullscreenenter"",""1"",""2923""
""fullscreenexit"",""5"",""44597""
""blur"",""5"",""47632""
""focus"",""5"",""63857""
","""event"",""trial"",""time""
""blur"",""5"",""47632""
","""event"",""trial"",""time""
""focus"",""5"",""63857""
","""event"",""trial"",""time""
""fullscreenenter"",""1"",""2923""
","""event"",""trial"",""time""
""fullscreenexit"",""5"",""44597""
","","","328.5","","","13","1225","1153","&#9752;","elianto","#f73b6a7A"," "," ","1","-10","[547,756.0999999046326,1179.5]","3","1","","","1225","5","3","3","lose","go","1","0"
"pit-trial","77","962716","0.0-9.0","battery-v0.2","","""event"",""trial"",""time""
""fullscreenenter"",""1"",""2923""
""fullscreenexit"",""5"",""44597""
""blur"",""5"",""47632""
""focus"",""5"",""63857""
","""event"",""trial"",""time""
""blur"",""5"",""47632""
","""event"",""trial"",""time""
""focus"",""5"",""63857""
","""event"",""trial"",""time""
""fullscreenenter"",""1"",""2923""
","""event"",""trial"",""time""
""fullscreenexit"",""5"",""44597""
","","","665","","","13","1225","1153","&#9733;","elianto","#3366ff99","-1"," ","0","0","[1516.5]","1","1","","","1225","6","2","2","win","no-go","0","0"
"pit-trial","78","966536","0.0-10.0","battery-v0.2","","""event"",""trial"",""time""
""fullscreenenter"",""1"",""2923""
""fullscreenexit"",""5"",""44597""
""blur"",""5"",""47632""
""focus"",""5"",""63857""
","""event"",""trial"",""time""
""blur"",""5"",""47632""
","""event"",""trial"",""time""
""focus"",""5"",""63857""
","""event"",""trial"",""time""
""fullscreenenter"",""1"",""2923""
","""event"",""trial"",""time""
""fullscreenexit"",""5"",""44597""
","","","954.1999998092651","","","13","1225","1153","&#9728;","elianto","#f73b6a7A","-1"," ","0","-10","[1806.0999999046326]","1","1","","","1225","7","0","4","lose","no-go","0","0"
"pit-trial","79","970136","0.0-11.0","battery-v0.2","","""event"",""trial"",""time""
""fullscreenenter"",""1"",""2923""
""fullscreenexit"",""5"",""44597""
""blur"",""5"",""47632""
""focus"",""5"",""63857""
","""event"",""trial"",""time""
""blur"",""5"",""47632""
","""event"",""trial"",""time""
""focus"",""5"",""63857""
","""event"",""trial"",""time""
""fullscreenenter"",""1"",""2923""
","""event"",""trial"",""time""
""fullscreenexit"",""5"",""44597""
","","","741.2999997138977","","","13","1225","1153","&#9730;","elianto","#3366ff99"," "," ","1","0","[1592.9000000953674]","1","1","","","1225","8","1","1","win","go","1","0"
"pit-trial","80","974991","0.0-12.0","battery-v0.2","","""event"",""trial"",""time""
""fullscreenenter"",""1"",""2923""
""fullscreenexit"",""5"",""44597""
""blur"",""5"",""47632""
""focus"",""5"",""63857""
","""event"",""trial"",""time""
""blur"",""5"",""47632""
","""event"",""trial"",""time""
""focus"",""5"",""63857""
","""event"",""trial"",""time""
""fullscreenenter"",""1"",""2923""
","""event"",""trial"",""time""
""fullscreenexit"",""5"",""44597""
","","","-1","","","13","1225","1153","&#9752;","elianto","#f73b6a7A"," ","-1","0","-10","[]","0","1","","","1225","9","3","3","lose","go","0","0"
"pit-trial","81","978425","0.0-13.0","battery-v0.2","","""event"",""trial"",""time""
""fullscreenenter"",""1"",""2923""
""fullscreenexit"",""5"",""44597""
""blur"",""5"",""47632""
""focus"",""5"",""63857""
","""event"",""trial"",""time""
""blur"",""5"",""47632""
","""event"",""trial"",""time""
""focus"",""5"",""63857""
","""event"",""trial"",""time""
""fullscreenenter"",""1"",""2923""
","""event"",""trial"",""time""
""fullscreenexit"",""5"",""44597""
","","","578.9000000953674","","","13","1225","1153","&#9733;","elianto","#3366ff99","-1"," ","0","+10","[1429.4000000953674]","1","1","","","1225","10","2","2","win","no-go","1","0"
"pit-trial","82","983277","0.0-14.0","battery-v0.2","","""event"",""trial"",""time""
""fullscreenenter"",""1"",""2923""
""fullscreenexit"",""5"",""44597""
""blur"",""5"",""47632""
""focus"",""5"",""63857""
","""event"",""trial"",""time""
""blur"",""5"",""47632""
","""event"",""trial"",""time""
""focus"",""5"",""63857""
","""event"",""trial"",""time""
""fullscreenenter"",""1"",""2923""
","""event"",""trial"",""time""
""fullscreenexit"",""5"",""44597""
","","","-1","","","13","1225","1153","&#9728;","elianto","#f73b6a7A","-1","-1","1","0","[]","0","1","","","1225","11","0","4","lose","no-go","0","0"
"pit-trial","83","986861","0.0-15.0","battery-v0.2","","""event"",""trial"",""time""
""fullscreenenter"",""1"",""2923""
""fullscreenexit"",""5"",""44597""
""blur"",""5"",""47632""
""focus"",""5"",""63857""
","""event"",""trial"",""time""
""blur"",""5"",""47632""
","""event"",""trial"",""time""
""focus"",""5"",""63857""
","""event"",""trial"",""time""
""fullscreenenter"",""1"",""2923""
","""event"",""trial"",""time""
""fullscreenexit"",""5"",""44597""
","","","727.4000000953674","","","13","1225","1153","&#9730;","elianto","#3366ff99"," "," ","1","+10","[1579.7000002861023]","1","1","","","1225","12","1","1","win","go","0","0"
"pit-trial","84","991716","0.0-16.0","battery-v0.2","","""event"",""trial"",""time""
""fullscreenenter"",""1"",""2923""
""fullscreenexit"",""5"",""44597""
""blur"",""5"",""47632""
""focus"",""5"",""63857""
","""event"",""trial"",""time""
""blur"",""5"",""47632""
","""event"",""trial"",""time""
""focus"",""5"",""63857""
","""event"",""trial"",""time""
""fullscreenenter"",""1"",""2923""
","""event"",""trial"",""time""
""fullscreenexit"",""5"",""44597""
","","","-1","","","13","1225","1153","&#9728;","elianto","#f73b6a7A","-1","-1","1","0","[]","0","1","","","1225","13","0","4","lose","no-go","0","0"
"pit-trial","85","996571","0.0-17.0","battery-v0.2","","""event"",""trial"",""time""
""fullscreenenter"",""1"",""2923""
""fullscreenexit"",""5"",""44597""
""blur"",""5"",""47632""
""focus"",""5"",""63857""
","""event"",""trial"",""time""
""blur"",""5"",""47632""
","""event"",""trial"",""time""
""focus"",""5"",""63857""
","""event"",""trial"",""time""
""fullscreenenter"",""1"",""2923""
","""event"",""trial"",""time""
""fullscreenexit"",""5"",""44597""
","","","-1","","","13","1225","1153","&#9752;","elianto","#f73b6a7A"," ","-1","0","-10","[]","0","1","","","1225","14","3","3","lose","go","0","0"
"pit-trial","86","1000293","0.0-18.0","battery-v0.2","","""event"",""trial"",""time""
""fullscreenenter"",""1"",""2923""
""fullscreenexit"",""5"",""44597""
""blur"",""5"",""47632""
""focus"",""5"",""63857""
","""event"",""trial"",""time""
""blur"",""5"",""47632""
","""event"",""trial"",""time""
""focus"",""5"",""63857""
","""event"",""trial"",""time""
""fullscreenenter"",""1"",""2923""
","""event"",""trial"",""time""
""fullscreenexit"",""5"",""44597""
","","","866.4000000953674","","","13","1225","1153","&#9733;","elianto","#3366ff99","-1"," ","0","0","[1717.3000001907349]","1","1","","","1225","15","2","2","win","no-go","0","0"
"pit-trial","87","1004251","0.0-19.0","battery-v0.2","","""event"",""trial"",""time""
""fullscreenenter"",""1"",""2923""
""fullscreenexit"",""5"",""44597""
""blur"",""5"",""47632""
""focus"",""5"",""63857""
","""event"",""trial"",""time""
""blur"",""5"",""47632""
","""event"",""trial"",""time""
""focus"",""5"",""63857""
","""event"",""trial"",""time""
""fullscreenenter"",""1"",""2923""
","""event"",""trial"",""time""
""fullscreenexit"",""5"",""44597""
","","","1104.1000003814697","","","13","1225","1153","&#9730;","elianto","#3366ff99"," "," ","1","+10","[1954.8999996185303]","1","1","","","1225","16","1","1","win","go","0","0"
"pit-trial","88","1009106","0.0-20.0","battery-v0.2","","""event"",""trial"",""time""
""fullscreenenter"",""1"",""2923""
""fullscreenexit"",""5"",""44597""
""blur"",""5"",""47632""
""focus"",""5"",""63857""
","""event"",""trial"",""time""
""blur"",""5"",""47632""
","""event"",""trial"",""time""
""focus"",""5"",""63857""
","""event"",""trial"",""time""
""fullscreenenter"",""1"",""2923""
","""event"",""trial"",""time""
""fullscreenexit"",""5"",""44597""
","","","-1","","","13","1225","1153","&#9752;","elianto","#f73b6a7A"," ","-1","0","-10","[]","0","1","","","1225","17","3","3","lose","go","0","0"
"pit-trial","89","1013771","0.0-21.0","battery-v0.2","","""event"",""trial"",""time""
""fullscreenenter"",""1"",""2923""
""fullscreenexit"",""5"",""44597""
""blur"",""5"",""47632""
""focus"",""5"",""63857""
","""event"",""trial"",""time""
""blur"",""5"",""47632""
","""event"",""trial"",""time""
""focus"",""5"",""63857""
","""event"",""trial"",""time""
""fullscreenenter"",""1"",""2923""
","""event"",""trial"",""time""
""fullscreenexit"",""5"",""44597""
","","","1812.1999998092651","","","13","1225","1153","&#9728;","elianto","#f73b6a7A","-1"," ","0","-10","[2662.3999996185303]","1","1","","","1225","18","0","4","lose","no-go","0","0"
"pit-trial","90","1017965","0.0-22.0","battery-v0.2","","""event"",""trial"",""time""
""fullscreenenter"",""1"",""2923""
""fullscreenexit"",""5"",""44597""
""blur"",""5"",""47632""
""focus"",""5"",""63857""
","""event"",""trial"",""time""
""blur"",""5"",""47632""
","""event"",""trial"",""time""
""focus"",""5"",""63857""
","""event"",""trial"",""time""
""fullscreenenter"",""1"",""2923""
","""event"",""trial"",""time""
""fullscreenexit"",""5"",""44597""
","","","1340.6999998092651","","","13","1225","1153","&#9730;","elianto","#3366ff99"," "," ","1","+10","[2191.0999999046326]","1","1","","","1225","19","1","1","win","go","0","0"
"pit-trial","91","1021905","0.0-23.0","battery-v0.2","","""event"",""trial"",""time""
""fullscreenenter"",""1"",""2923""
""fullscreenexit"",""5"",""44597""
""blur"",""5"",""47632""
""focus"",""5"",""63857""
","""event"",""trial"",""time""
""blur"",""5"",""47632""
","""event"",""trial"",""time""
""focus"",""5"",""63857""
","""event"",""trial"",""time""
""fullscreenenter"",""1"",""2923""
","""event"",""trial"",""time""
""fullscreenexit"",""5"",""44597""
","","","1084.9000000953674","","","13","1225","1153","&#9733;","elianto","#3366ff99","-1"," ","0","0","[1936]","1","1","","","1225","20","2","2","win","no-go","0","0"
"pit-instructions","92","1033300","0.0-24.0","battery-v0.2","","""event"",""trial"",""time""
""fullscreenenter"",""1"",""2923""
""fullscreenexit"",""5"",""44597""
""blur"",""5"",""47632""
""focus"",""5"",""63857""
","""event"",""trial"",""time""
""blur"",""5"",""47632""
","""event"",""trial"",""time""
""focus"",""5"",""63857""
","""event"",""trial"",""time""
""fullscreenenter"",""1"",""2923""
","""event"",""trial"",""time""
""fullscreenexit"",""5"",""44597""
","","[{""page_index"":0,""viewing_time"":5165.699999809265},{""page_index"":1,""viewing_time"":6226.300000190735}]","11392.699999809265","","","","","","","","","","","","","","","","","","","","","","","","",""
"pit-trial","93","1037952","0.0-25.0","battery-v0.2","","""event"",""trial"",""time""
""fullscreenenter"",""1"",""2923""
""fullscreenexit"",""5"",""44597""
""blur"",""5"",""47632""
""focus"",""5"",""63857""
","""event"",""trial"",""time""
""blur"",""5"",""47632""
","""event"",""trial"",""time""
""focus"",""5"",""63857""
","""event"",""trial"",""time""
""fullscreenenter"",""1"",""2923""
","""event"",""trial"",""time""
""fullscreenexit"",""5"",""44597""
","","","1782","","","13","1225","1153","y","elianto","#3366ff99"," "," ","1","+10","[2632.199999809265]","1","2","","","1225","21","2","1","win","go","0","0"
"pit-trial","94","1042821","0.0-26.0","battery-v0.2","","""event"",""trial"",""time""
""fullscreenenter"",""1"",""2923""
""fullscreenexit"",""5"",""44597""
""blur"",""5"",""47632""
""focus"",""5"",""63857""
","""event"",""trial"",""time""
""blur"",""5"",""47632""
","""event"",""trial"",""time""
""focus"",""5"",""63857""
","""event"",""trial"",""time""
""fullscreenenter"",""1"",""2923""
","""event"",""trial"",""time""
""fullscreenexit"",""5"",""44597""
","","","-1","","","13","1225","1153","h","elianto","#f73b6a7A"," ","-1","0","0","[]","0","2","","","1225","22","3","3","lose","go","1","0"
"pit-trial","95","1046802","0.0-27.0","battery-v0.2","","""event"",""trial"",""time""
""fullscreenenter"",""1"",""2923""
""fullscreenexit"",""5"",""44597""
""blur"",""5"",""47632""
""focus"",""5"",""63857""
","""event"",""trial"",""time""
""blur"",""5"",""47632""
","""event"",""trial"",""time""
""focus"",""5"",""63857""
","""event"",""trial"",""time""
""fullscreenenter"",""1"",""2923""
","""event"",""trial"",""time""
""fullscreenexit"",""5"",""44597""
","","","1115.2999997138977","","","13","1225","1153","m","elianto","#3366ff99","-1"," ","0","+10","[1967]","1","2","","","1225","23","0","2","win","no-go","1","0"
"pit-trial","96","1050171","0.0-28.0","battery-v0.2","","""event"",""trial"",""time""
""fullscreenenter"",""1"",""2923""
""fullscreenexit"",""5"",""44597""
""blur"",""5"",""47632""
""focus"",""5"",""63857""
","""event"",""trial"",""time""
""blur"",""5"",""47632""
","""event"",""trial"",""time""
""focus"",""5"",""63857""
","""event"",""trial"",""time""
""fullscreenenter"",""1"",""2923""
","""event"",""trial"",""time""
""fullscreenexit"",""5"",""44597""
","","","501.80000019073486","","","13","1225","1153","r","elianto","#3366ff99","-1"," ","0","0","[1354.2999997138977,2917.5999999046326]","2","2","","","1225","24","1","2","win","no-go","0","0"
"pit-trial","97","1055062","0.0-29.0","battery-v0.2","","""event"",""trial"",""time""
""fullscreenenter"",""1"",""2923""
""fullscreenexit"",""5"",""44597""
""blur"",""5"",""47632""
""focus"",""5"",""63857""
","""event"",""trial"",""time""
""blur"",""5"",""47632""
","""event"",""trial"",""time""
""focus"",""5"",""63857""
","""event"",""trial"",""time""
""fullscreenenter"",""1"",""2923""
","""event"",""trial"",""time""
""fullscreenexit"",""5"",""44597""
","","","-1","","","13","1225","1153","h","elianto","#f73b6a7A"," ","-1","0","-10","[43,3080.7000002861023,4435.900000095367]","3","2","","","1225","25","3","3","lose","go","0","0"
"pit-trial","98","1058612","0.0-30.0","battery-v0.2","","""event"",""trial"",""time""
""fullscreenenter"",""1"",""2923""
""fullscreenexit"",""5"",""44597""
""blur"",""5"",""47632""
""focus"",""5"",""63857""
","""event"",""trial"",""time""
""blur"",""5"",""47632""
","""event"",""trial"",""time""
""focus"",""5"",""63857""
","""event"",""trial"",""time""
""fullscreenenter"",""1"",""2923""
","""event"",""trial"",""time""
""fullscreenexit"",""5"",""44597""
","","","691.7000002861023","","","13","1225","1153","y","elianto","#3366ff99"," "," ","1","+10","[700.0999999046326,1543.3000001907349]","2","2","","","1225","26","2","1","win","go","0","0"
"pit-trial","99","1062032","0.0-31.0","battery-v0.2","","""event"",""trial"",""time""
""fullscreenenter"",""1"",""2923""
""fullscreenexit"",""5"",""44597""
""blur"",""5"",""47632""
""focus"",""5"",""63857""
","""event"",""trial"",""time""
""blur"",""5"",""47632""
","""event"",""trial"",""time""
""focus"",""5"",""63857""
","""event"",""trial"",""time""
""fullscreenenter"",""1"",""2923""
","""event"",""trial"",""time""
""fullscreenexit"",""5"",""44597""
","","","552.5","","","13","1225","1153","r","elianto","#3366ff99","-1"," ","0","0","[1402.7999997138977]","1","2","","","1225","27","1","2","win","no-go","0","0"
"pit-trial","100","1065462","0.0-32.0","battery-v0.2","","""event"",""trial"",""time""
""fullscreenenter"",""1"",""2923""
""fullscreenexit"",""5"",""44597""
""blur"",""5"",""47632""
""focus"",""5"",""63857""
","""event"",""trial"",""time""
""blur"",""5"",""47632""
","""event"",""trial"",""time""
""focus"",""5"",""63857""
","""event"",""trial"",""time""
""fullscreenenter"",""1"",""2923""
","""event"",""trial"",""time""
""fullscreenexit"",""5"",""44597""
","","","575.7999997138977","","","13","1225","1153","m","elianto","#3366ff99","-1"," ","0","0","[1426.0999999046326,2472.4000000953674,3000.2999997138977,3167.5999999046326,3336.4000000953674]","5","2","","","1225","28","0","2","win","no-go","0","0"
"pit-trial","101","1069263","0.0-33.0","battery-v0.2","","""event"",""trial"",""time""
""fullscreenenter"",""1"",""2923""
""fullscreenexit"",""5"",""44597""
""blur"",""5"",""47632""
""focus"",""5"",""63857""
","""event"",""trial"",""time""
""blur"",""5"",""47632""
","""event"",""trial"",""time""
""focus"",""5"",""63857""
","""event"",""trial"",""time""
""fullscreenenter"",""1"",""2923""
","""event"",""trial"",""time""
""fullscreenexit"",""5"",""44597""
","","","945.9000000953674","","","13","1225","1153","r","elianto","#3366ff99","-1"," ","0","0","[79.09999990463257,270.40000009536743,449.5,1796.9000000953674]","4","2","","","1225","29","1","2","win","no-go","0","0"
"pit-trial","102","1074117","0.0-34.0","battery-v0.2","","""event"",""trial"",""time""
""fullscreenenter"",""1"",""2923""
""fullscreenexit"",""5"",""44597""
""blur"",""5"",""47632""
""focus"",""5"",""63857""
","""event"",""trial"",""time""
""blur"",""5"",""47632""
","""event"",""trial"",""time""
""focus"",""5"",""63857""
","""event"",""trial"",""time""
""fullscreenenter"",""1"",""2923""
","""event"",""trial"",""time""
""fullscreenexit"",""5"",""44597""
","","","-1","","","13","1225","1153","m","elianto","#3366ff99","-1","-1","1","+10","[2934.800000190735]","1","2","","","1225","30","0","2","win","no-go","0","0"
"pit-trial","103","1078119","0.0-35.0","battery-v0.2","","""event"",""trial"",""time""
""fullscreenenter"",""1"",""2923""
""fullscreenexit"",""5"",""44597""
""blur"",""5"",""47632""
""focus"",""5"",""63857""
","""event"",""trial"",""time""
""blur"",""5"",""47632""
","""event"",""trial"",""time""
""focus"",""5"",""63857""
","""event"",""trial"",""time""
""fullscreenenter"",""1"",""2923""
","""event"",""trial"",""time""
""fullscreenexit"",""5"",""44597""
","","","1146.6999998092651","","","13","1225","1153","y","elianto","#3366ff99"," "," ","1","+10","[1999]","1","2","","","1225","31","2","1","win","go","0","0"
"pit-trial","104","1081943","0.0-36.0","battery-v0.2","","""event"",""trial"",""time""
""fullscreenenter"",""1"",""2923""
""fullscreenexit"",""5"",""44597""
""blur"",""5"",""47632""
""focus"",""5"",""63857""
","""event"",""trial"",""time""
""blur"",""5"",""47632""
","""event"",""trial"",""time""
""focus"",""5"",""63857""
","""event"",""trial"",""time""
""fullscreenenter"",""1"",""2923""
","""event"",""trial"",""time""
""fullscreenexit"",""5"",""44597""
","","","970.4000000953674","","","13","1225","1153","h","elianto","#f73b6a7A"," "," ","1","0","[1822]","1","2","","","1225","32","3","3","lose","go","0","0"
"pit-trial","105","1086798","0.0-37.0","battery-v0.2","","""event"",""trial"",""time""
""fullscreenenter"",""1"",""2923""
""fullscreenexit"",""5"",""44597""
""blur"",""5"",""47632""
""focus"",""5"",""63857""
","""event"",""trial"",""time""
""blur"",""5"",""47632""
","""event"",""trial"",""time""
""focus"",""5"",""63857""
","""event"",""trial"",""time""
""fullscreenenter"",""1"",""2923""
","""event"",""trial"",""time""
""fullscreenexit"",""5"",""44597""
","","","-1","","","13","1225","1153","r","elianto","#3366ff99","-1","-1","1","0","[]","0","2","","","1225","33","1","2","win","no-go","1","0"
"pit-trial","106","1090427","0.0-38.0","battery-v0.2","","""event"",""trial"",""time""
""fullscreenenter"",""1"",""2923""
""fullscreenexit"",""5"",""44597""
""blur"",""5"",""47632""
""focus"",""5"",""63857""
","""event"",""trial"",""time""
""blur"",""5"",""47632""
","""event"",""trial"",""time""
""focus"",""5"",""63857""
","""event"",""trial"",""time""
""fullscreenenter"",""1"",""2923""
","""event"",""trial"",""time""
""fullscreenexit"",""5"",""44597""
","","","775.5999999046326","","","13","1225","1153","y","elianto","#3366ff99"," "," ","1","0","[594.0999999046326,1625.8000001907349]","2","2","","","1225","34","2","1","win","go","1","0"
"pit-trial","107","1095280","0.0-39.0","battery-v0.2","","""event"",""trial"",""time""
""fullscreenenter"",""1"",""2923""
""fullscreenexit"",""5"",""44597""
""blur"",""5"",""47632""
""focus"",""5"",""63857""
","""event"",""trial"",""time""
""blur"",""5"",""47632""
","""event"",""trial"",""time""
""focus"",""5"",""63857""
","""event"",""trial"",""time""
""fullscreenenter"",""1"",""2923""
","""event"",""trial"",""time""
""fullscreenexit"",""5"",""44597""
","","","-1","","","13","1225","1153","m","elianto","#3366ff99","-1","-1","1","+10","[]","0","2","","","1225","35","0","2","win","no-go","0","0"
"pit-trial","108","1100132","0.0-40.0","battery-v0.2","","""event"",""trial"",""time""
""fullscreenenter"",""1"",""2923""
""fullscreenexit"",""5"",""44597""
""blur"",""5"",""47632""
""focus"",""5"",""63857""
","""event"",""trial"",""time""
""blur"",""5"",""47632""
","""event"",""trial"",""time""
""focus"",""5"",""63857""
","""event"",""trial"",""time""
""fullscreenenter"",""1"",""2923""
","""event"",""trial"",""time""
""fullscreenexit"",""5"",""44597""
","","","-1","","","13","1225","1153","h","elianto","#f73b6a7A"," ","-1","0","-10","[]","0","2","","","1225","36","3","3","lose","go","0","0"
"pit-trial","109","1103950","0.0-41.0","battery-v0.2","","""event"",""trial"",""time""
""fullscreenenter"",""1"",""2923""
""fullscreenexit"",""5"",""44597""
""blur"",""5"",""47632""
""focus"",""5"",""63857""
","""event"",""trial"",""time""
""blur"",""5"",""47632""
","""event"",""trial"",""time""
""focus"",""5"",""63857""
","""event"",""trial"",""time""
""fullscreenenter"",""1"",""2923""
","""event"",""trial"",""time""
""fullscreenexit"",""5"",""44597""
","","","964","","","13","1225","1153","m","elianto","#3366ff99","-1"," ","0","0","[1814.5]","1","2","","","1225","37","0","2","win","no-go","0","0"
"pit-trial","110","1107324","0.0-42.0","battery-v0.2","","""event"",""trial"",""time""
""fullscreenenter"",""1"",""2923""
""fullscreenexit"",""5"",""44597""
""blur"",""5"",""47632""
""focus"",""5"",""63857""
","""event"",""trial"",""time""
""blur"",""5"",""47632""
","""event"",""trial"",""time""
""focus"",""5"",""63857""
","""event"",""trial"",""time""
""fullscreenenter"",""1"",""2923""
","""event"",""trial"",""time""
""fullscreenexit"",""5"",""44597""
","","","521.5","","","13","1225","1153","r","elianto","#3366ff99","-1"," ","0","0","[1371.6999998092651]","1","2","","","1225","38","1","2","win","no-go","0","0"
"pit-trial","111","1110959","0.0-43.0","battery-v0.2","","""event"",""trial"",""time""
""fullscreenenter"",""1"",""2923""
""fullscreenexit"",""5"",""44597""
""blur"",""5"",""47632""
""focus"",""5"",""63857""
","""event"",""trial"",""time""
""blur"",""5"",""47632""
","""event"",""trial"",""time""
""focus"",""5"",""63857""
","""event"",""trial"",""time""
""fullscreenenter"",""1"",""2923""
","""event"",""trial"",""time""
""fullscreenexit"",""5"",""44597""
","","","779.5","","","13","1225","1153","y","elianto","#3366ff99"," "," ","1","+10","[1630.9000000953674]","1","2","","","1225","39","2","1","win","go","0","0"
"pit-trial","112","1115817","0.0-44.0","battery-v0.2","","""event"",""trial"",""time""
""fullscreenenter"",""1"",""2923""
""fullscreenexit"",""5"",""44597""
""blur"",""5"",""47632""
""focus"",""5"",""63857""
","""event"",""trial"",""time""
""blur"",""5"",""47632""
","""event"",""trial"",""time""
""focus"",""5"",""63857""
","""event"",""trial"",""time""
""fullscreenenter"",""1"",""2923""
","""event"",""trial"",""time""
""fullscreenexit"",""5"",""44597""
","","","-1","","","13","1225","1153","h","elianto","#f73b6a7A"," ","-1","0","-10","[]","0","2","","","1225","40","3","3","lose","go","0","0"
"pit-trial","113","1119236","0.0-45.0","battery-v0.2","","""event"",""trial"",""time""
""fullscreenenter"",""1"",""2923""
""fullscreenexit"",""5"",""44597""
""blur"",""5"",""47632""
""focus"",""5"",""63857""
","""event"",""trial"",""time""
""blur"",""5"",""47632""
","""event"",""trial"",""time""
""focus"",""5"",""63857""
","""event"",""trial"",""time""
""fullscreenenter"",""1"",""2923""
","""event"",""trial"",""time""
""fullscreenexit"",""5"",""44597""
","","","564.2999997138977","","","13","1225","1153","m","elianto","#3366ff99","-1"," ","0","0","[1414.6999998092651]","1","2","","","1225","41","0","2","win","no-go","0","0"
"pit-trial","114","1124087","0.0-46.0","battery-v0.2","","""event"",""trial"",""time""
""fullscreenenter"",""1"",""2923""
""fullscreenexit"",""5"",""44597""
""blur"",""5"",""47632""
""focus"",""5"",""63857""
","""event"",""trial"",""time""
""blur"",""5"",""47632""
","""event"",""trial"",""time""
""focus"",""5"",""63857""
","""event"",""trial"",""time""
""fullscreenenter"",""1"",""2923""
","""event"",""trial"",""time""
""fullscreenexit"",""5"",""44597""
","","","-1","","","13","1225","1153","r","elianto","#3366ff99","-1","-1","1","+10","[]","0","2","","","1225","42","1","2","win","no-go","0","0"
"pit-trial","115","1127796","0.0-47.0","battery-v0.2","","""event"",""trial"",""time""
""fullscreenenter"",""1"",""2923""
""fullscreenexit"",""5"",""44597""
""blur"",""5"",""47632""
""focus"",""5"",""63857""
","""event"",""trial"",""time""
""blur"",""5"",""47632""
","""event"",""trial"",""time""
""focus"",""5"",""63857""
","""event"",""trial"",""time""
""fullscreenenter"",""1"",""2923""
","""event"",""trial"",""time""
""fullscreenexit"",""5"",""44597""
","","","854.2999997138977","","","13","1225","1153","y","elianto","#3366ff99"," "," ","1","0","[1706.0999999046326]","1","2","","","1225","43","2","1","win","go","1","0"
"pit-trial","116","1132651","0.0-48.0","battery-v0.2","","""event"",""trial"",""time""
""fullscreenenter"",""1"",""2923""
""fullscreenexit"",""5"",""44597""
""blur"",""5"",""47632""
""focus"",""5"",""63857""
","""event"",""trial"",""time""
""blur"",""5"",""47632""
","""event"",""trial"",""time""
""focus"",""5"",""63857""
","""event"",""trial"",""time""
""fullscreenenter"",""1"",""2923""
","""event"",""trial"",""time""
""fullscreenexit"",""5"",""44597""
","","","-1","","","13","1225","1153","h","elianto","#f73b6a7A"," ","-1","0","-10","[]","0","2","","","1225","44","3","3","lose","go","0","0"
"pit-trial","117","1136695","0.0-49.0","battery-v0.2","","""event"",""trial"",""time""
""fullscreenenter"",""1"",""2923""
""fullscreenexit"",""5"",""44597""
""blur"",""5"",""47632""
""focus"",""5"",""63857""
","""event"",""trial"",""time""
""blur"",""5"",""47632""
","""event"",""trial"",""time""
""focus"",""5"",""63857""
","""event"",""trial"",""time""
""fullscreenenter"",""1"",""2923""
","""event"",""trial"",""time""
""fullscreenexit"",""5"",""44597""
","","","1189.3999996185303","","","13","1225","1153","r","elianto","#3366ff99","-1"," ","0","0","[2040]","1","2","","","1225","45","1","2","win","no-go","0","0"
"pit-trial","118","1141550","0.0-50.0","battery-v0.2","","""event"",""trial"",""time""
""fullscreenenter"",""1"",""2923""
""fullscreenexit"",""5"",""44597""
""blur"",""5"",""47632""
""focus"",""5"",""63857""
","""event"",""trial"",""time""
""blur"",""5"",""47632""
","""event"",""trial"",""time""
""focus"",""5"",""63857""
","""event"",""trial"",""time""
""fullscreenenter"",""1"",""2923""
","""event"",""trial"",""time""
""fullscreenexit"",""5"",""44597""
","","","-1","","","13","1225","1153","h","elianto","#f73b6a7A"," ","-1","0","-10","[]","0","2","","","1225","46","3","3","lose","go","0","0"
"pit-trial","119","1145247","0.0-51.0","battery-v0.2","","""event"",""trial"",""time""
""fullscreenenter"",""1"",""2923""
""fullscreenexit"",""5"",""44597""
""blur"",""5"",""47632""
""focus"",""5"",""63857""
","""event"",""trial"",""time""
""blur"",""5"",""47632""
","""event"",""trial"",""time""
""focus"",""5"",""63857""
","""event"",""trial"",""time""
""fullscreenenter"",""1"",""2923""
","""event"",""trial"",""time""
""fullscreenexit"",""5"",""44597""
","","","841.6000003814697","","","13","1225","1153","y","elianto","#3366ff99"," "," ","1","+10","[1692.2000002861023]","1","2","","","1225","47","2","1","win","go","0","0"
"pit-trial","120","1150102","0.0-52.0","battery-v0.2","","""event"",""trial"",""time""
""fullscreenenter"",""1"",""2923""
""fullscreenexit"",""5"",""44597""
""blur"",""5"",""47632""
""focus"",""5"",""63857""
","""event"",""trial"",""time""
""blur"",""5"",""47632""
","""event"",""trial"",""time""
""focus"",""5"",""63857""
","""event"",""trial"",""time""
""fullscreenenter"",""1"",""2923""
","""event"",""trial"",""time""
""fullscreenexit"",""5"",""44597""
","","","-1","","","13","1225","1153","m","elianto","#3366ff99","-1","-1","1","+10","[]","0","2","","","1225","48","0","2","win","no-go","0","0"
"pit-trial","121","1154955","0.0-53.0","battery-v0.2","","""event"",""trial"",""time""
""fullscreenenter"",""1"",""2923""
""fullscreenexit"",""5"",""44597""
""blur"",""5"",""47632""
""focus"",""5"",""63857""
","""event"",""trial"",""time""
""blur"",""5"",""47632""
","""event"",""trial"",""time""
""focus"",""5"",""63857""
","""event"",""trial"",""time""
""fullscreenenter"",""1"",""2923""
","""event"",""trial"",""time""
""fullscreenexit"",""5"",""44597""
","","","-1","","","13","1225","1153","r","elianto","#3366ff99","-1","-1","1","+10","[]","0","2","","","1225","49","1","2","win","no-go","0","0"
"pit-trial","122","1159809","0.0-54.0","battery-v0.2","","""event"",""trial"",""time""
""fullscreenenter"",""1"",""2923""
""fullscreenexit"",""5"",""44597""
""blur"",""5"",""47632""
""focus"",""5"",""63857""
","""event"",""trial"",""time""
""blur"",""5"",""47632""
","""event"",""trial"",""time""
""focus"",""5"",""63857""
","""event"",""trial"",""time""
""fullscreenenter"",""1"",""2923""
","""event"",""trial"",""time""
""fullscreenexit"",""5"",""44597""
","","","-1","","","13","1225","1153","m","elianto","#3366ff99","-1","-1","1","0","[]","0","2","","","1225","50","0","2","win","no-go","1","0"
"pit-trial","123","1163538","0.0-55.0","battery-v0.2","","""event"",""trial"",""time""
""fullscreenenter"",""1"",""2923""
""fullscreenexit"",""5"",""44597""
""blur"",""5"",""47632""
""focus"",""5"",""63857""
","""event"",""trial"",""time""
""blur"",""5"",""47632""
","""event"",""trial"",""time""
""focus"",""5"",""63857""
","""event"",""trial"",""time""
""fullscreenenter"",""1"",""2923""
","""event"",""trial"",""time""
""fullscreenexit"",""5"",""44597""
","","","873.8000001907349","","","13","1225","1153","y","elianto","#3366ff99"," "," ","1","+10","[1724.5]","1","2","","","1225","51","2","1","win","go","0","0"
"pit-trial","124","1167832","0.0-56.0","battery-v0.2","","""event"",""trial"",""time""
""fullscreenenter"",""1"",""2923""
""fullscreenexit"",""5"",""44597""
""blur"",""5"",""47632""
""focus"",""5"",""63857""
","""event"",""trial"",""time""
""blur"",""5"",""47632""
","""event"",""trial"",""time""
""focus"",""5"",""63857""
","""event"",""trial"",""time""
""fullscreenenter"",""1"",""2923""
","""event"",""trial"",""time""
""fullscreenexit"",""5"",""44597""
","","","1440.2000002861023","","","13","1225","1153","h","elianto","#f73b6a7A"," "," ","1","0","[2290.300000190735]","1","2","","","1225","52","3","3","lose","go","0","0"
"pit-trial","125","1171483","0.0-57.0","battery-v0.2","","""event"",""trial"",""time""
""fullscreenenter"",""1"",""2923""
""fullscreenexit"",""5"",""44597""
""blur"",""5"",""47632""
""focus"",""5"",""63857""
","""event"",""trial"",""time""
""blur"",""5"",""47632""
","""event"",""trial"",""time""
""focus"",""5"",""63857""
","""event"",""trial"",""time""
""fullscreenenter"",""1"",""2923""
","""event"",""trial"",""time""
""fullscreenexit"",""5"",""44597""
","","","795.8000001907349","","","13","1225","1153","y","elianto","#3366ff99"," "," ","1","+10","[1646.5999999046326]","1","2","","","1225","53","2","1","win","go","0","0"
"pit-trial","126","1176338","0.0-58.0","battery-v0.2","","""event"",""trial"",""time""
""fullscreenenter"",""1"",""2923""
""fullscreenexit"",""5"",""44597""
""blur"",""5"",""47632""
""focus"",""5"",""63857""
","""event"",""trial"",""time""
""blur"",""5"",""47632""
","""event"",""trial"",""time""
""focus"",""5"",""63857""
","""event"",""trial"",""time""
""fullscreenenter"",""1"",""2923""
","""event"",""trial"",""time""
""fullscreenexit"",""5"",""44597""
","","","-1","","","13","1225","1153","c","elianto","#f73b6a7A"," ","-1","0","-10","[]","0","2","","","1225","54","5","3","lose","go","0","0"
"pit-trial","127","1181192","0.0-59.0","battery-v0.2","","""event"",""trial"",""time""
""fullscreenenter"",""1"",""2923""
""fullscreenexit"",""5"",""44597""
""blur"",""5"",""47632""
""focus"",""5"",""63857""
","""event"",""trial"",""time""
""blur"",""5"",""47632""
","""event"",""trial"",""time""
""focus"",""5"",""63857""
","""event"",""trial"",""time""
""fullscreenenter"",""1"",""2923""
","""event"",""trial"",""time""
""fullscreenexit"",""5"",""44597""
","","","-1","","","13","1225","1153","m","elianto","#3366ff99","-1","-1","1","0","[]","0","2","","","1225","55","0","2","win","no-go","1","0"
"pit-trial","128","1186045","0.0-60.0","battery-v0.2","","""event"",""trial"",""time""
""fullscreenenter"",""1"",""2923""
""fullscreenexit"",""5"",""44597""
""blur"",""5"",""47632""
""focus"",""5"",""63857""
","""event"",""trial"",""time""
""blur"",""5"",""47632""
","""event"",""trial"",""time""
""focus"",""5"",""63857""
","""event"",""trial"",""time""
""fullscreenenter"",""1"",""2923""
","""event"",""trial"",""time""
""fullscreenexit"",""5"",""44597""
","","","-1","","","13","1225","1153","z","elianto","#f73b6a7A","-1","-1","1","0","[]","0","2","","","1225","56","4","4","lose","no-go","0","0"
"pit-trial","129","1190250","0.0-61.0","battery-v0.2","","""event"",""trial"",""time""
""fullscreenenter"",""1"",""2923""
""fullscreenexit"",""5"",""44597""
""blur"",""5"",""47632""
""focus"",""5"",""63857""
","""event"",""trial"",""time""
""blur"",""5"",""47632""
","""event"",""trial"",""time""
""focus"",""5"",""63857""
","""event"",""trial"",""time""
""fullscreenenter"",""1"",""2923""
","""event"",""trial"",""time""
""fullscreenexit"",""5"",""44597""
","","","1349.7000002861023","","","13","1225","1153","m","elianto","#3366ff99","-1"," ","0","0","[2200.5999999046326]","1","2","","","1225","57","0","2","win","no-go","0","0"
"pit-trial","130","1193890","0.0-62.0","battery-v0.2","","""event"",""trial"",""time""
""fullscreenenter"",""1"",""2923""
""fullscreenexit"",""5"",""44597""
""blur"",""5"",""47632""
""focus"",""5"",""63857""
","""event"",""trial"",""time""
""blur"",""5"",""47632""
","""event"",""trial"",""time""
""focus"",""5"",""63857""
","""event"",""trial"",""time""
""fullscreenenter"",""1"",""2923""
","""event"",""trial"",""time""
""fullscreenexit"",""5"",""44597""
","","","785.6999998092651","","","13","1225","1153","y","elianto","#3366ff99"," "," ","1","+10","[1635.6999998092651]","1","2","","","1225","58","2","1","win","go","0","0"
"pit-trial","131","1198745","0.0-63.0","battery-v0.2","","""event"",""trial"",""time""
""fullscreenenter"",""1"",""2923""
""fullscreenexit"",""5"",""44597""
""blur"",""5"",""47632""
""focus"",""5"",""63857""
","""event"",""trial"",""time""
""blur"",""5"",""47632""
","""event"",""trial"",""time""
""focus"",""5"",""63857""
","""event"",""trial"",""time""
""fullscreenenter"",""1"",""2923""
","""event"",""trial"",""time""
""fullscreenexit"",""5"",""44597""
","","","-1","","","13","1225","1153","z","elianto","#f73b6a7A","-1","-1","1","0","[]","0","2","","","1225","59","4","4","lose","no-go","0","0"
"pit-trial","132","1203599","0.0-64.0","battery-v0.2","","""event"",""trial"",""time""
""fullscreenenter"",""1"",""2923""
""fullscreenexit"",""5"",""44597""
""blur"",""5"",""47632""
""focus"",""5"",""63857""
","""event"",""trial"",""time""
""blur"",""5"",""47632""
","""event"",""trial"",""time""
""focus"",""5"",""63857""
","""event"",""trial"",""time""
""fullscreenenter"",""1"",""2923""
","""event"",""trial"",""time""
""fullscreenexit"",""5"",""44597""
","","","-1","","","13","1225","1153","c","elianto","#f73b6a7A"," ","-1","0","0","[]","0","2","","","1225","60","5","3","lose","go","1","0"
"pit-trial","133","1207396","0.0-65.0","battery-v0.2","","""event"",""trial"",""time""
""fullscreenenter"",""1"",""2923""
""fullscreenexit"",""5"",""44597""
""blur"",""5"",""47632""
""focus"",""5"",""63857""
","""event"",""trial"",""time""
""blur"",""5"",""47632""
","""event"",""trial"",""time""
""focus"",""5"",""63857""
","""event"",""trial"",""time""
""fullscreenenter"",""1"",""2923""
","""event"",""trial"",""time""
""fullscreenexit"",""5"",""44597""
","","","943.7000002861023","","","13","1225","1153","y","elianto","#3366ff99"," "," ","1","+10","[1794.3000001907349]","1","2","","","1225","61","2","1","win","go","0","0"
"pit-trial","134","1211647","0.0-66.0","battery-v0.2","","""event"",""trial"",""time""
""fullscreenenter"",""1"",""2923""
""fullscreenexit"",""5"",""44597""
""blur"",""5"",""47632""
""focus"",""5"",""63857""
","""event"",""trial"",""time""
""blur"",""5"",""47632""
","""event"",""trial"",""time""
""focus"",""5"",""63857""
","""event"",""trial"",""time""
""fullscreenenter"",""1"",""2923""
","""event"",""trial"",""time""
""fullscreenexit"",""5"",""44597""
","","","1398.0999999046326","","","13","1225","1153","b","elianto","#3366ff99","-1"," ","0","0","[2248.300000190735]","1","2","","","1225","62","6","2","win","no-go","0","0"
"pit-trial","135","1216500","0.0-67.0","battery-v0.2","","""event"",""trial"",""time""
""fullscreenenter"",""1"",""2923""
""fullscreenexit"",""5"",""44597""
""blur"",""5"",""47632""
""focus"",""5"",""63857""
","""event"",""trial"",""time""
""blur"",""5"",""47632""
","""event"",""trial"",""time""
""focus"",""5"",""63857""
","""event"",""trial"",""time""
""fullscreenenter"",""1"",""2923""
","""event"",""trial"",""time""
""fullscreenexit"",""5"",""44597""
","","","-1","","","13","1225","1153","z","elianto","#f73b6a7A","-1","-1","1","0","[]","0","2","","","1225","63","4","4","lose","no-go","0","0"
"pit-trial","136","1221354","0.0-68.0","battery-v0.2","","""event"",""trial"",""time""
""fullscreenenter"",""1"",""2923""
""fullscreenexit"",""5"",""44597""
""blur"",""5"",""47632""
""focus"",""5"",""63857""
","""event"",""trial"",""time""
""blur"",""5"",""47632""
","""event"",""trial"",""time""
""focus"",""5"",""63857""
","""event"",""trial"",""time""
""fullscreenenter"",""1"",""2923""
","""event"",""trial"",""time""
""fullscreenexit"",""5"",""44597""
","","","-1","","","13","1225","1153","c","elianto","#f73b6a7A"," ","-1","0","-10","[]","0","2","","","1225","64","5","3","lose","go","0","0"
"pit-trial","137","1225623","0.0-69.0","battery-v0.2","","""event"",""trial"",""time""
""fullscreenenter"",""1"",""2923""
""fullscreenexit"",""5"",""44597""
""blur"",""5"",""47632""
""focus"",""5"",""63857""
","""event"",""trial"",""time""
""blur"",""5"",""47632""
","""event"",""trial"",""time""
""focus"",""5"",""63857""
","""event"",""trial"",""time""
""fullscreenenter"",""1"",""2923""
","""event"",""trial"",""time""
""fullscreenexit"",""5"",""44597""
","","","1414.9000000953674","","","13","1225","1153","c","elianto","#f73b6a7A"," "," ","1","0","[2266]","1","2","","","1225","65","5","3","lose","go","0","0"
"pit-trial","138","1229826","0.0-70.0","battery-v0.2","","""event"",""trial"",""time""
""fullscreenenter"",""1"",""2923""
""fullscreenexit"",""5"",""44597""
""blur"",""5"",""47632""
""focus"",""5"",""63857""
","""event"",""trial"",""time""
""blur"",""5"",""47632""
","""event"",""trial"",""time""
""focus"",""5"",""63857""
","""event"",""trial"",""time""
""fullscreenenter"",""1"",""2923""
","""event"",""trial"",""time""
""fullscreenexit"",""5"",""44597""
","","","1350.5","","","13","1225","1153","z","elianto","#f73b6a7A","-1"," ","0","-10","[2200.699999809265,2677.4000000953674,3104.5,3369.5999999046326]","4","2","","","1225","66","4","4","lose","no-go","0","0"
"pit-trial","139","1233333","0.0-71.0","battery-v0.2","","""event"",""trial"",""time""
""fullscreenenter"",""1"",""2923""
""fullscreenexit"",""5"",""44597""
""blur"",""5"",""47632""
""focus"",""5"",""63857""
","""event"",""trial"",""time""
""blur"",""5"",""47632""
","""event"",""trial"",""time""
""focus"",""5"",""63857""
","""event"",""trial"",""time""
""fullscreenenter"",""1"",""2923""
","""event"",""trial"",""time""
""fullscreenexit"",""5"",""44597""
","","","651.7999997138977","","","13","1225","1153","b","elianto","#3366ff99","-1"," ","0","0","[6.700000286102295,308.59999990463257,1502.4000000953674,1828.7000002861023,2113.2000002861023,2390.800000190735,2695.9000000953674,2922.2000002861023,3215.300000190735]","9","2","","","1225","67","6","2","win","no-go","0","0"
"pit-trial","140","1236901","0.0-72.0","battery-v0.2","","""event"",""trial"",""time""
""fullscreenenter"",""1"",""2923""
""fullscreenexit"",""5"",""44597""
""blur"",""5"",""47632""
""focus"",""5"",""63857""
","""event"",""trial"",""time""
""blur"",""5"",""47632""
","""event"",""trial"",""time""
""focus"",""5"",""63857""
","""event"",""trial"",""time""
""fullscreenenter"",""1"",""2923""
","""event"",""trial"",""time""
""fullscreenexit"",""5"",""44597""
","","","713.0999999046326","","","13","1225","1153","y","elianto","#3366ff99"," "," ","1","+10","[1564.8000001907349,1754.6000003814697]","2","2","","","1225","68","2","1","win","go","0","0"
"pit-trial","141","1241756","0.0-73.0","battery-v0.2","","""event"",""trial"",""time""
""fullscreenenter"",""1"",""2923""
""fullscreenexit"",""5"",""44597""
""blur"",""5"",""47632""
""focus"",""5"",""63857""
","""event"",""trial"",""time""
""blur"",""5"",""47632""
","""event"",""trial"",""time""
""focus"",""5"",""63857""
","""event"",""trial"",""time""
""fullscreenenter"",""1"",""2923""
","""event"",""trial"",""time""
""fullscreenexit"",""5"",""44597""
","","","-1","","","13","1225","1153","t","elianto","#f73b6a7A","-1","-1","1","0","[]","0","2","","","1225","69","7","4","lose","no-go","0","0"
"pit-trial","142","1245738","0.0-74.0","battery-v0.2","","""event"",""trial"",""time""
""fullscreenenter"",""1"",""2923""
""fullscreenexit"",""5"",""44597""
""blur"",""5"",""47632""
""focus"",""5"",""63857""
","""event"",""trial"",""time""
""blur"",""5"",""47632""
","""event"",""trial"",""time""
""focus"",""5"",""63857""
","""event"",""trial"",""time""
""fullscreenenter"",""1"",""2923""
","""event"",""trial"",""time""
""fullscreenexit"",""5"",""44597""
","","","1128.2999997138977","","","13","1225","1153","b","elianto","#3366ff99","-1"," ","0","0","[1978.4000000953674]","1","2","","","1225","70","6","2","win","no-go","0","0"
"pit-trial","143","1250593","0.0-75.0","battery-v0.2","","""event"",""trial"",""time""
""fullscreenenter"",""1"",""2923""
""fullscreenexit"",""5"",""44597""
""blur"",""5"",""47632""
""focus"",""5"",""63857""
","""event"",""trial"",""time""
""blur"",""5"",""47632""
","""event"",""trial"",""time""
""focus"",""5"",""63857""
","""event"",""trial"",""time""
""fullscreenenter"",""1"",""2923""
","""event"",""trial"",""time""
""fullscreenexit"",""5"",""44597""
","","","-1","","","13","1225","1153","z","elianto","#f73b6a7A","-1","-1","1","-10","[]","0","2","","","1225","71","4","4","lose","no-go","1","0"
"pit-trial","144","1254845","0.0-76.0","battery-v0.2","","""event"",""trial"",""time""
""fullscreenenter"",""1"",""2923""
""fullscreenexit"",""5"",""44597""
""blur"",""5"",""47632""
""focus"",""5"",""63857""
","""event"",""trial"",""time""
""blur"",""5"",""47632""
","""event"",""trial"",""time""
""focus"",""5"",""63857""
","""event"",""trial"",""time""
""fullscreenenter"",""1"",""2923""
","""event"",""trial"",""time""
""fullscreenexit"",""5"",""44597""
","","","1395.7999997138977","","","13","1225","1153","c","elianto","#f73b6a7A"," "," ","1","0","[2246.8999996185303,2556.7999997138977,3086,3585.7999997138977]","4","2","","","1225","72","5","3","lose","go","0","0"
"pit-trial","145","1257718","0.0-77.0","battery-v0.2","","""event"",""trial"",""time""
""fullscreenenter"",""1"",""2923""
""fullscreenexit"",""5"",""44597""
""blur"",""5"",""47632""
""focus"",""5"",""63857""
","""event"",""trial"",""time""
""blur"",""5"",""47632""
","""event"",""trial"",""time""
""focus"",""5"",""63857""
","""event"",""trial"",""time""
""fullscreenenter"",""1"",""2923""
","""event"",""trial"",""time""
""fullscreenexit"",""5"",""44597""
","","","19.09999990463257","","","13","1225","1153","c","elianto","#f73b6a7A"," "," ","1","0","[869.8000001907349,1234.7000002861023,2201.5999999046326,2500.5]","4","2","","","1225","73","5","3","lose","go","0","0"
"pit-trial","146","1262574","0.0-78.0","battery-v0.2","","""event"",""trial"",""time""
""fullscreenenter"",""1"",""2923""
""fullscreenexit"",""5"",""44597""
""blur"",""5"",""47632""
""focus"",""5"",""63857""
","""event"",""trial"",""time""
""blur"",""5"",""47632""
","""event"",""trial"",""time""
""focus"",""5"",""63857""
","""event"",""trial"",""time""
""fullscreenenter"",""1"",""2923""
","""event"",""trial"",""time""
""fullscreenexit"",""5"",""44597""
","","","-1","","","13","1225","1153","t","elianto","#f73b6a7A","-1","-1","1","0","[]","0","2","","","1225","74","7","4","lose","no-go","0","0"
"pit-trial","147","1266394","0.0-79.0","battery-v0.2","","""event"",""trial"",""time""
""fullscreenenter"",""1"",""2923""
""fullscreenexit"",""5"",""44597""
""blur"",""5"",""47632""
""focus"",""5"",""63857""
","""event"",""trial"",""time""
""blur"",""5"",""47632""
","""event"",""trial"",""time""
""focus"",""5"",""63857""
","""event"",""trial"",""time""
""fullscreenenter"",""1"",""2923""
","""event"",""trial"",""time""
""fullscreenexit"",""5"",""44597""
","","","965.0999999046326","","","13","1225","1153","b","elianto","#3366ff99","-1"," ","0","0","[1815.6000003814697]","1","2","","","1225","75","6","2","win","no-go","0","0"
"pit-trial","148","1271250","0.0-80.0","battery-v0.2","","""event"",""trial"",""time""
""fullscreenenter"",""1"",""2923""
""fullscreenexit"",""5"",""44597""
""blur"",""5"",""47632""
""focus"",""5"",""63857""
","""event"",""trial"",""time""
""blur"",""5"",""47632""
","""event"",""trial"",""time""
""focus"",""5"",""63857""
","""event"",""trial"",""time""
""fullscreenenter"",""1"",""2923""
","""event"",""trial"",""time""
""fullscreenexit"",""5"",""44597""
","","","-1","","","13","1225","1153","z","elianto","#f73b6a7A","-1","-1","1","0","[]","0","2","","","1225","76","4","4","lose","no-go","0","0"
"pit-trial","149","1275085","0.0-81.0","battery-v0.2","","""event"",""trial"",""time""
""fullscreenenter"",""1"",""2923""
""fullscreenexit"",""5"",""44597""
""blur"",""5"",""47632""
""focus"",""5"",""63857""
","""event"",""trial"",""time""
""blur"",""5"",""47632""
","""event"",""trial"",""time""
""focus"",""5"",""63857""
","""event"",""trial"",""time""
""fullscreenenter"",""1"",""2923""
","""event"",""trial"",""time""
""fullscreenexit"",""5"",""44597""
","","","979.1999998092651","","","13","1225","1153","c","elianto","#f73b6a7A"," "," ","1","-10","[1830,2072.7999997138977,2311.5,2682.199999809265,2878.7999997138977,3207.699999809265]","6","2","","","1225","77","5","3","lose","go","1","0"
"pit-trial","150","1278118","0.0-82.0","battery-v0.2","","""event"",""trial"",""time""
""fullscreenenter"",""1"",""2923""
""fullscreenexit"",""5"",""44597""
""blur"",""5"",""47632""
""focus"",""5"",""63857""
","""event"",""trial"",""time""
""blur"",""5"",""47632""
","""event"",""trial"",""time""
""focus"",""5"",""63857""
","""event"",""trial"",""time""
""fullscreenenter"",""1"",""2923""
","""event"",""trial"",""time""
""fullscreenexit"",""5"",""44597""
","","","177.7000002861023","","","13","1225","1153","b","elianto","#3366ff99","-1"," ","0","0","[114,510.90000009536743,839.3000001907349,1029.5,1308.2000002861023,1852.3000001907349]","6","2","","","1225","78","6","2","win","no-go","0","0"
"pit-trial","151","1281142","0.0-83.0","battery-v0.2","","""event"",""trial"",""time""
""fullscreenenter"",""1"",""2923""
""fullscreenexit"",""5"",""44597""
""blur"",""5"",""47632""
""focus"",""5"",""63857""
","""event"",""trial"",""time""
""blur"",""5"",""47632""
","""event"",""trial"",""time""
""focus"",""5"",""63857""
","""event"",""trial"",""time""
""fullscreenenter"",""1"",""2923""
","""event"",""trial"",""time""
""fullscreenexit"",""5"",""44597""
","","","168.59999990463257","","","13","1225","1153","t","elianto","#f73b6a7A","-1"," ","0","-10","[250.40000009536743,603.6999998092651,828.6999998092651,1019.9000000953674,1531,1865.4000000953674]","6","2","","","1225","79","7","4","lose","no-go","0","0"
"pit-trial","152","1285998","0.0-84.0","battery-v0.2","","""event"",""trial"",""time""
""fullscreenenter"",""1"",""2923""
""fullscreenexit"",""5"",""44597""
""blur"",""5"",""47632""
""focus"",""5"",""63857""
","""event"",""trial"",""time""
""blur"",""5"",""47632""
","""event"",""trial"",""time""
""focus"",""5"",""63857""
","""event"",""trial"",""time""
""fullscreenenter"",""1"",""2923""
","""event"",""trial"",""time""
""fullscreenexit"",""5"",""44597""
","","","-1","","","13","1225","1153","z","elianto","#f73b6a7A","-1","-1","1","0","[]","0","2","","","1225","80","4","4","lose","no-go","0","0"
"pit-trial","153","1290855","0.0-85.0","battery-v0.2","","""event"",""trial"",""time""
""fullscreenenter"",""1"",""2923""
""fullscreenexit"",""5"",""44597""
""blur"",""5"",""47632""
""focus"",""5"",""63857""
","""event"",""trial"",""time""
""blur"",""5"",""47632""
","""event"",""trial"",""time""
""focus"",""5"",""63857""
","""event"",""trial"",""time""
""fullscreenenter"",""1"",""2923""
","""event"",""trial"",""time""
""fullscreenexit"",""5"",""44597""
","","","-1","","","13","1225","1153","t","elianto","#f73b6a7A","-1","-1","1","-10","[]","0","2","","","1225","81","7","4","lose","no-go","1","0"
"pit-trial","154","1295711","0.0-86.0","battery-v0.2","","""event"",""trial"",""time""
""fullscreenenter"",""1"",""2923""
""fullscreenexit"",""5"",""44597""
""blur"",""5"",""47632""
""focus"",""5"",""63857""
","""event"",""trial"",""time""
""blur"",""5"",""47632""
","""event"",""trial"",""time""
""focus"",""5"",""63857""
","""event"",""trial"",""time""
""fullscreenenter"",""1"",""2923""
","""event"",""trial"",""time""
""fullscreenexit"",""5"",""44597""
