"trial_type","trial_index","time_elapsed","internal_node_id","task_version","subject_id","interactions","blur_events","focus_events","fullscreenenter_events","fullscreenexit_events","success","view_history","rt","responses","num_errors","age","subject","participantId","rune","rune_set","hex","correct","choice","accuracy","outcome","keys","total_keys","block","practice","value","sub","trial","stimulus","robot","valence","action","sham","browser_interactions"
"pavlovia","0","26","0.0-0.0","battery-v0.2","","""event"",""trial"",""time""
""fullscreenenter"",""1"",""1494""
","
","
","""event"",""trial"",""time""
""fullscreenenter"",""1"",""1494""
","
","","","","","","","","","","","","","","","","","","","","","","","","","","","",""
"fullscreen","1","2481","0.0-1.0","battery-v0.2","","""event"",""trial"",""time""
""fullscreenenter"",""1"",""1494""
","
","
","""event"",""trial"",""time""
""fullscreenenter"",""1"",""1494""
","
","true","","","","","","","","","","","","","","","","","","","","","","","","","","",""
"pit-instructions","2","7769","0.0-2.0-0.0","battery-v0.2","","""event"",""trial"",""time""
""fullscreenenter"",""1"",""1494""
","
","
","""event"",""trial"",""time""
""fullscreenenter"",""1"",""1494""
","
","","[{""page_index"":0,""viewing_time"":5281.5}]","5282.60000000149","","","","","","","","","","","","","","","","","","","","","","","","",""
"pit-comprehension","3","10503","0.0-2.0-1.0-0.0","battery-v0.2","","""event"",""trial"",""time""
""fullscreenenter"",""1"",""1494""
","
","
","""event"",""trial"",""time""
""fullscreenenter"",""1"",""1494""
","
","","","2726.39999999851","[""shark""]","0","15","1049","1183","","","","","","","","","","","","","","","","","","","",""
"pit-instructions","4","15703","0.0-2.0-1.0-1.0","battery-v0.2","","""event"",""trial"",""time""
""fullscreenenter"",""1"",""1494""
","
","
","""event"",""trial"",""time""
""fullscreenenter"",""1"",""1494""
","
","","[{""page_index"":0,""viewing_time"":5175}]","5175.5","","","","","","","","","","","","","","","","","","","","","","","","",""
"pit-comprehension","5","20161","0.0-2.0-2.0-0.0","battery-v0.2","","""event"",""trial"",""time""
""fullscreenenter"",""1"",""1494""
","
","
","""event"",""trial"",""time""
""fullscreenenter"",""1"",""1494""
","
","","","4451.699999999255","[""tiger""]","0","15","1049","1183","","","","","","","","","","","","","","","","","","","",""
"pit-instructions","6","24166","0.0-2.0-2.0-1.0","battery-v0.2","","""event"",""trial"",""time""
""fullscreenenter"",""1"",""1494""
","
","
","""event"",""trial"",""time""
""fullscreenenter"",""1"",""1494""
","
","","[{""page_index"":0,""viewing_time"":3998.2000000029802}]","3998.7000000029802","","","","","","","","","","","","","","","","","","","","","","","","",""
"pit-instructions","7","210853","0.0-2.0-3.0","battery-v0.2","","""event"",""trial"",""time""
""fullscreenenter"",""1"",""1494""
","
","
","""event"",""trial"",""time""
""fullscreenenter"",""1"",""1494""
","
","","[{""page_index"":0,""viewing_time"":12909.5},{""page_index"":1,""viewing_time"":25727.5},{""page_index"":2,""viewing_time"":14043.199999999255},{""page_index"":3,""viewing_time"":36734},{""page_index"":4,""viewing_time"":10777.800000000745},{""page_index"":5,""viewing_time"":8887.599999997765},{""page_index"":6,""viewing_time"":13911.60000000149},{""page_index"":7,""viewing_time"":10207.300000000745},{""page_index"":8,""viewing_time"":7927.599999997765},{""page_index"":9,""viewing_time"":11494.60000000149},{""page_index"":10,""viewing_time"":11889.800000000745},{""page_index"":11,""viewing_time"":8215.800000000745},{""page_index"":12,""viewing_time"":6669.599999997765},{""page_index"":13,""viewing_time"":7284.10000000149}]","186681.19999999925","","","","","","","","","","","","","","","","","","","","","","","","",""
"pit-trial","8","214399","0.0-2.0-4.0-0.0","battery-v0.2","","""event"",""trial"",""time""
""fullscreenenter"",""1"",""1494""
","
","
","""event"",""trial"",""time""
""fullscreenenter"",""1"",""1494""
","
","","","689.6999999992549","","","15","1049","1183","&#9784;","elianto","#FFFFF080"," "," ","1","&#10004","[1539.9000000022352]","1","0","0","","","","","","","","",""
"pit-trial","9","217779","0.0-2.0-4.1-0.1","battery-v0.2","","""event"",""trial"",""time""
""fullscreenenter"",""1"",""1494""
","
","
","""event"",""trial"",""time""
""fullscreenenter"",""1"",""1494""
","
","","","524.3000000007451","","","15","1049","1183","&#9784;","elianto","#FFFFF080"," "," ","1","&#10004","[1374.2000000029802]","1","0","0","","","","","","","","",""
"pit-trial","10","221002","0.0-2.0-4.2-0.2","battery-v0.2","","""event"",""trial"",""time""
""fullscreenenter"",""1"",""1494""
","
","
","""event"",""trial"",""time""
""fullscreenenter"",""1"",""1494""
","
","","","366.69999999925494","","","15","1049","1183","&#9784;","elianto","#FFFFF080"," "," ","1","&#10004","[649,1216.8999999985099]","2","0","0","","","","","","","","",""
"pit-trial","11","224299","0.0-2.0-4.3-0.3","battery-v0.2","","""event"",""trial"",""time""
""fullscreenenter"",""1"",""1494""
","
","
","""event"",""trial"",""time""
""fullscreenenter"",""1"",""1494""
","
","","","442.5","","","15","1049","1183","&#9784;","elianto","#FFFFF080"," "," ","1","&#10004","[1292.5]","1","0","0","","","","","","","","",""
"pit-trial","12","227827","0.0-2.0-4.4-0.4","battery-v0.2","","""event"",""trial"",""time""
""fullscreenenter"",""1"",""1494""
","
","
","""event"",""trial"",""time""
""fullscreenenter"",""1"",""1494""
","
","","","671.8000000007451","","","15","1049","1183","&#9784;","elianto","#FFFFF080"," "," ","1","&#10004","[1522.800000000745]","1","0","0","","","","","","","","",""
"pit-instructions","13","263173","0.0-2.0-5.0","battery-v0.2","","""event"",""trial"",""time""
""fullscreenenter"",""1"",""1494""
","
","
","""event"",""trial"",""time""
""fullscreenenter"",""1"",""1494""
","
","","[{""page_index"":0,""viewing_time"":9803.199999999255},{""page_index"":1,""viewing_time"":9786.199999999255},{""page_index"":2,""viewing_time"":7720.60000000149},{""page_index"":3,""viewing_time"":8027.39999999851}]","35338.29999999702","","","","","","","","","","","","","","","","","","","","","","","","",""
"pit-trial","14","268029","0.0-2.0-6.0-0.0","battery-v0.2","","""event"",""trial"",""time""
""fullscreenenter"",""1"",""1494""
","
","
","""event"",""trial"",""time""
""fullscreenenter"",""1"",""1494""
","
","","","-1","","","15","1049","1183","&#9854;","elianto","#FFFFF080","-1","-1","1","&#10004","[]","0","0","1","","","","","","","","",""
"pit-trial","15","272886","0.0-2.0-6.1-0.1","battery-v0.2","","""event"",""trial"",""time""
""fullscreenenter"",""1"",""1494""
","
","
","""event"",""trial"",""time""
""fullscreenenter"",""1"",""1494""
","
","","","-1","","","15","1049","1183","&#9854;","elianto","#FFFFF080","-1","-1","1","&#10004","[]","0","0","1","","","","","","","","",""
"pit-trial","16","277741","0.0-2.0-6.2-0.2","battery-v0.2","","""event"",""trial"",""time""
""fullscreenenter"",""1"",""1494""
","
","
","""event"",""trial"",""time""
""fullscreenenter"",""1"",""1494""
","
","","","-1","","","15","1049","1183","&#9854;","elianto","#FFFFF080","-1","-1","1","&#10004","[]","0","0","1","","","","","","","","",""
"pit-trial","17","282598","0.0-2.0-6.3-0.3","battery-v0.2","","""event"",""trial"",""time""
""fullscreenenter"",""1"",""1494""
","
","
","""event"",""trial"",""time""
""fullscreenenter"",""1"",""1494""
","
","","","-1","","","15","1049","1183","&#9854;","elianto","#FFFFF080","-1","-1","1","&#10004","[]","0","0","1","","","","","","","","",""
"pit-trial","18","287453","0.0-2.0-6.4-0.4","battery-v0.2","","""event"",""trial"",""time""
""fullscreenenter"",""1"",""1494""
","
","
","""event"",""trial"",""time""
""fullscreenenter"",""1"",""1494""
","
","","","-1","","","15","1049","1183","&#9854;","elianto","#FFFFF080","-1","-1","1","&#10004","[]","0","0","1","","","","","","","","",""
"pit-instructions","19","511355","0.0-2.0-7.0","battery-v0.2","","""event"",""trial"",""time""
""fullscreenenter"",""1"",""1494""
","
","
","""event"",""trial"",""time""
""fullscreenenter"",""1"",""1494""
","
","","[{""page_index"":0,""viewing_time"":9242.099999997765},{""page_index"":1,""viewing_time"":11495.800000000745},{""page_index"":2,""viewing_time"":7875},{""page_index"":3,""viewing_time"":22012.699999999255},{""page_index"":4,""viewing_time"":8707.300000000745},{""page_index"":5,""viewing_time"":10067.89999999851},{""page_index"":6,""viewing_time"":16166.400000002235},{""page_index"":7,""viewing_time"":9452},{""page_index"":8,""viewing_time"":7180.599999997765},{""page_index"":9,""viewing_time"":7819.5},{""page_index"":10,""viewing_time"":18253.10000000149},{""page_index"":11,""viewing_time"":34055.10000000149},{""page_index"":12,""viewing_time"":9353.699999999255},{""page_index"":13,""viewing_time"":8530.099999997765},{""page_index"":14,""viewing_time"":8563.5},{""page_index"":15,""viewing_time"":13451.60000000149},{""page_index"":16,""viewing_time"":8840.800000000745},{""page_index"":17,""viewing_time"":12827.39999999851}]","223895.5","","","","","","","","","","","","","","","","","","","","","","","","",""
"pit-trial","20","516211","0.0-2.0-8.0-0.0","battery-v0.2","","""event"",""trial"",""time""
""fullscreenenter"",""1"",""1494""
","
","
","""event"",""trial"",""time""
""fullscreenenter"",""1"",""1494""
","
","","","-1","","","15","1049","1183","&#9776;","elianto","#3366ff99"," ","-1","0","0","[]","0","0","1","","","","","","","","",""
"pit-trial","21","519771","0.0-2.0-8.0-1.0","battery-v0.2","","""event"",""trial"",""time""
""fullscreenenter"",""1"",""1494""
","
","
","""event"",""trial"",""time""
""fullscreenenter"",""1"",""1494""
","
","","","706.3000000007451","","","15","1049","1183","&#9776;","elianto","#3366ff99"," "," ","1","+10","[1556.5999999977648]","1","0","1","","","","","","","","",""
"pit-trial","22","523341","0.0-2.0-8.0-2.0","battery-v0.2","","""event"",""trial"",""time""
""fullscreenenter"",""1"",""1494""
","
","
","""event"",""trial"",""time""
""fullscreenenter"",""1"",""1494""
","
","","","715","","","15","1049","1183","&#9776;","elianto","#3366ff99"," "," ","1","+10","[1565.300000000745]","1","0","1","","","","","","","","",""
"pit-trial","23","526818","0.0-2.0-8.0-3.0","battery-v0.2","","""event"",""trial"",""time""
""fullscreenenter"",""1"",""1494""
","
","
","""event"",""trial"",""time""
""fullscreenenter"",""1"",""1494""
","
","","","623.1999999992549","","","15","1049","1183","&#9776;","elianto","#3366ff99"," "," ","1","0","[1473.5999999977648]","1","0","1","","","","","","","","",""
"pit-trial","24","530413","0.0-2.0-8.0-4.0","battery-v0.2","","""event"",""trial"",""time""
""fullscreenenter"",""1"",""1494""
","
","
","""event"",""trial"",""time""
""fullscreenenter"",""1"",""1494""
","
","","","740.1999999992549","","","15","1049","1183","&#9776;","elianto","#3366ff99"," "," ","1","+10","[1590.5]","1","0","1","","","","","","","","",""
"call-function","25","530416","0.0-2.0-9.0","battery-v0.2","","""event"",""trial"",""time""
""fullscreenenter"",""1"",""1494""
","
","
","""event"",""trial"",""time""
""fullscreenenter"",""1"",""1494""
","
","","","","","","","","","","","","","","","","","","","","","","","","","","","",""
"pit-instructions","26","605413","0.0-2.0-10.0","battery-v0.2","","""event"",""trial"",""time""
""fullscreenenter"",""1"",""1494""
","
","
","""event"",""trial"",""time""
""fullscreenenter"",""1"",""1494""
","
","","[{""page_index"":0,""viewing_time"":12147.10000000149},{""page_index"":1,""viewing_time"":9359.699999999255},{""page_index"":2,""viewing_time"":13346},{""page_index"":3,""viewing_time"":29939.099999997765},{""page_index"":4,""viewing_time"":10202.800000000745}]","74995.69999999925","","","","","","","","","","","","","","","","","","","","","","","","",""
"pit-trial","27","608763","0.0-2.0-11.0-0.0","battery-v0.2","","""event"",""trial"",""time""
""fullscreenenter"",""1"",""1494""
","
","
","""event"",""trial"",""time""
""fullscreenenter"",""1"",""1494""
","
","","","493.19999999925494","","","15","1049","1183","&#9761;","elianto","#3366ff99","-1"," ","0","0","[1345]","1","0","2","","","","","","","","",""
"pit-trial","28","613619","0.0-2.0-11.0-1.0","battery-v0.2","","""event"",""trial"",""time""
""fullscreenenter"",""1"",""1494""
","
","
","""event"",""trial"",""time""
""fullscreenenter"",""1"",""1494""
","
","","","-1","","","15","1049","1183","&#9761;","elianto","#3366ff99","-1","-1","1","+10","[]","0","0","2","","","","","","","","",""
"pit-trial","29","618474","0.0-2.0-11.0-2.0","battery-v0.2","","""event"",""trial"",""time""
""fullscreenenter"",""1"",""1494""
","
","
","""event"",""trial"",""time""
""fullscreenenter"",""1"",""1494""
","
","","","-1","","","15","1049","1183","&#9761;","elianto","#3366ff99","-1","-1","1","+10","[]","0","0","2","","","","","","","","",""
"pit-trial","30","623329","0.0-2.0-11.0-3.0","battery-v0.2","","""event"",""trial"",""time""
""fullscreenenter"",""1"",""1494""
","
","
","""event"",""trial"",""time""
""fullscreenenter"",""1"",""1494""
","
","","","-1","","","15","1049","1183","&#9761;","elianto","#3366ff99","-1","-1","1","0","[3371.39999999851]","1","0","2","","","","","","","","",""
"pit-trial","31","627026","0.0-2.0-11.0-4.0","battery-v0.2","","""event"",""trial"",""time""
""fullscreenenter"",""1"",""1494""
","
","
","""event"",""trial"",""time""
""fullscreenenter"",""1"",""1494""
","
","","","841.1999999992549","","","15","1049","1183","&#9761;","elianto","#3366ff99","-1"," ","0","0","[1692.3999999985099]","1","0","2","","","","","","","","",""
"pit-trial","32","631882","0.0-2.0-11.1-0.1","battery-v0.2","","""event"",""trial"",""time""
""fullscreenenter"",""1"",""1494""
","
","
","""event"",""trial"",""time""
""fullscreenenter"",""1"",""1494""
","
","","","-1","","","15","1049","1183","&#9761;","elianto","#3366ff99","-1","-1","1","+10","[]","0","0","2","","","","","","","","",""
"pit-trial","33","636737","0.0-2.0-11.1-1.1","battery-v0.2","","""event"",""trial"",""time""
""fullscreenenter"",""1"",""1494""
","
","
","""event"",""trial"",""time""
""fullscreenenter"",""1"",""1494""
","
","","","-1","","","15","1049","1183","&#9761;","elianto","#3366ff99","-1","-1","1","+10","[]","0","0","2","","","","","","","","",""
"pit-trial","34","641593","0.0-2.0-11.1-2.1","battery-v0.2","","""event"",""trial"",""time""
""fullscreenenter"",""1"",""1494""
","
","
","""event"",""trial"",""time""
""fullscreenenter"",""1"",""1494""
","
","","","-1","","","15","1049","1183","&#9761;","elianto","#3366ff99","-1","-1","1","+10","[]","0","0","2","","","","","","","","",""
"pit-trial","35","646449","0.0-2.0-11.1-3.1","battery-v0.2","","""event"",""trial"",""time""
""fullscreenenter"",""1"",""1494""
","
","
","""event"",""trial"",""time""
""fullscreenenter"",""1"",""1494""
","
","","","-1","","","15","1049","1183","&#9761;","elianto","#3366ff99","-1","-1","1","0","[]","0","0","2","","","","","","","","",""
"pit-trial","36","650226","0.0-2.0-11.1-4.1","battery-v0.2","","""event"",""trial"",""time""
""fullscreenenter"",""1"",""1494""
","
","
","""event"",""trial"",""time""
""fullscreenenter"",""1"",""1494""
","
","","","922.5","","","15","1049","1183","&#9761;","elianto","#3366ff99","-1"," ","0","0","[1772.800000000745]","1","0","2","","","","","","","","",""
"pit-trial","37","655082","0.0-2.0-11.2-0.2","battery-v0.2","","""event"",""trial"",""time""
""fullscreenenter"",""1"",""1494""
","
","
","""event"",""trial"",""time""
""fullscreenenter"",""1"",""1494""
","
","","","-1","","","15","1049","1183","&#9761;","elianto","#3366ff99","-1","-1","1","+10","[]","0","0","2","","","","","","","","",""
"pit-trial","38","659938","0.0-2.0-11.2-1.2","battery-v0.2","","""event"",""trial"",""time""
""fullscreenenter"",""1"",""1494""
","
","
","""event"",""trial"",""time""
""fullscreenenter"",""1"",""1494""
","
","","","-1","","","15","1049","1183","&#9761;","elianto","#3366ff99","-1","-1","1","+10","[]","0","0","2","","","","","","","","",""
"pit-trial","39","664793","0.0-2.0-11.2-2.2","battery-v0.2","","""event"",""trial"",""time""
""fullscreenenter"",""1"",""1494""
","
","
","""event"",""trial"",""time""
""fullscreenenter"",""1"",""1494""
","
","","","-1","","","15","1049","1183","&#9761;","elianto","#3366ff99","-1","-1","1","+10","[]","0","0","2","","","","","","","","",""
"pit-trial","40","669648","0.0-2.0-11.2-3.2","battery-v0.2","","""event"",""trial"",""time""
""fullscreenenter"",""1"",""1494""
","
","
","""event"",""trial"",""time""
""fullscreenenter"",""1"",""1494""
","
","","","-1","","","15","1049","1183","&#9761;","elianto","#3366ff99","-1","-1","1","0","[]","0","0","2","","","","","","","","",""
"pit-trial","41","674504","0.0-2.0-11.2-4.2","battery-v0.2","","""event"",""trial"",""time""
""fullscreenenter"",""1"",""1494""
","
","
","""event"",""trial"",""time""
""fullscreenenter"",""1"",""1494""
","
","","","-1","","","15","1049","1183","&#9761;","elianto","#3366ff99","-1","-1","1","+10","[]","0","0","2","","","","","","","","",""
"call-function","42","674507","0.0-2.0-12.0","battery-v0.2","","""event"",""trial"",""time""
""fullscreenenter"",""1"",""1494""
","
","
","""event"",""trial"",""time""
""fullscreenenter"",""1"",""1494""
","
","","","","","","","","","","","","","","","","","","","","","","","","","","","",""
"pit-instructions","43","736232","0.0-2.0-13.0","battery-v0.2","","""event"",""trial"",""time""
""fullscreenenter"",""1"",""1494""
","
","
","""event"",""trial"",""time""
""fullscreenenter"",""1"",""1494""
","
","","[{""page_index"":0,""viewing_time"":19025.699999999255},{""page_index"":1,""viewing_time"":11752.89999999851},{""page_index"":2,""viewing_time"":6434},{""page_index"":3,""viewing_time"":14868.699999999255},{""page_index"":4,""viewing_time"":9641.300000000745}]","61723.29999999702","","","","","","","","","","","","","","","","","","","","","","","","",""
"pit-trial","44","741086","0.0-2.0-14.0-0.0","battery-v0.2","","""event"",""trial"",""time""
""fullscreenenter"",""1"",""1494""
","
","
","""event"",""trial"",""time""
""fullscreenenter"",""1"",""1494""
","
","","","-1","","","15","1049","1183","&#9826;","elianto","#f73b6a7A","-1","-1","1","0","[]","0","0","3","","","","","","","","",""
"pit-trial","45","745940","0.0-2.0-14.0-1.0","battery-v0.2","","""event"",""trial"",""time""
""fullscreenenter"",""1"",""1494""
","
","
","""event"",""trial"",""time""
""fullscreenenter"",""1"",""1494""
","
","","","-1","","","15","1049","1183","&#9826;","elianto","#f73b6a7A","-1","-1","1","0","[]","0","0","3","","","","","","","","",""
"pit-trial","46","750795","0.0-2.0-14.0-2.0","battery-v0.2","","""event"",""trial"",""time""
""fullscreenenter"",""1"",""1494""
","
","
","""event"",""trial"",""time""
""fullscreenenter"",""1"",""1494""
","
","","","-1","","","15","1049","1183","&#9826;","elianto","#f73b6a7A","-1","-1","1","0","[]","0","0","3","","","","","","","","",""
"pit-trial","47","755649","0.0-2.0-14.0-3.0","battery-v0.2","","""event"",""trial"",""time""
""fullscreenenter"",""1"",""1494""
","
","
","""event"",""trial"",""time""
""fullscreenenter"",""1"",""1494""
","
","","","-1","","","15","1049","1183","&#9826;","elianto","#f73b6a7A","-1","-1","1","-10","[]","0","0","3","","","","","","","","",""
"pit-trial","48","760504","0.0-2.0-14.0-4.0","battery-v0.2","","""event"",""trial"",""time""
""fullscreenenter"",""1"",""1494""
","
","
","""event"",""trial"",""time""
""fullscreenenter"",""1"",""1494""
","
","","","-1","","","15","1049","1183","&#9826;","elianto","#f73b6a7A","-1","-1","1","0","[]","0","0","3","","","","","","","","",""
"call-function","49","760507","0.0-2.0-15.0","battery-v0.2","","""event"",""trial"",""time""
""fullscreenenter"",""1"",""1494""
","
","
","""event"",""trial"",""time""
""fullscreenenter"",""1"",""1494""
","
","","","","","","","","","","","","","","","","","","","","","","","","","","","",""
"pit-instructions","50","803498","0.0-2.0-16.0","battery-v0.2","","""event"",""trial"",""time""
""fullscreenenter"",""1"",""1494""
","
","
","""event"",""trial"",""time""
""fullscreenenter"",""1"",""1494""
","
","","[{""page_index"":0,""viewing_time"":8561},{""page_index"":1,""viewing_time"":12013.900000002235},{""page_index"":2,""viewing_time"":7751.199999999255},{""page_index"":3,""viewing_time"":14663.300000000745}]","42990.10000000149","","","","","","","","","","","","","","","","","","","","","","","","",""
"pit-trial","51","807372","0.0-2.0-17.0-0.0","battery-v0.2","","""event"",""trial"",""time""
""fullscreenenter"",""1"",""1494""
","
","
","""event"",""trial"",""time""
""fullscreenenter"",""1"",""1494""
","
","","","1017.9000000022352","","","15","1049","1183","&#9789;","elianto","#f73b6a7A"," "," ","1","0","[1868.1000000014901]","1","0","4","","","","","","","","",""
"pit-trial","52","811055","0.0-2.0-17.0-1.0","battery-v0.2","","""event"",""trial"",""time""
""fullscreenenter"",""1"",""1494""
","
","
","""event"",""trial"",""time""
""fullscreenenter"",""1"",""1494""
","
","","","829","","","15","1049","1183","&#9789;","elianto","#f73b6a7A"," "," ","1","0","[1679.0999999977648]","1","0","4","","","","","","","","",""
"pit-trial","53","814914","0.0-2.0-17.0-2.0","battery-v0.2","","""event"",""trial"",""time""
""fullscreenenter"",""1"",""1494""
","
","
","""event"",""trial"",""time""
""fullscreenenter"",""1"",""1494""
","
","","","1004.3000000007451","","","15","1049","1183","&#9789;","elianto","#f73b6a7A"," "," ","1","0","[1854.3999999985099]","1","0","4","","","","","","","","",""
"pit-trial","54","818684","0.0-2.0-17.0-3.0","battery-v0.2","","""event"",""trial"",""time""
""fullscreenenter"",""1"",""1494""
","
","
","""event"",""trial"",""time""
""fullscreenenter"",""1"",""1494""
","
","","","914.6999999992549","","","15","1049","1183","&#9789;","elianto","#f73b6a7A"," "," ","1","-10","[1765.300000000745]","1","0","4","","","","","","","","",""
"pit-trial","55","823538","0.0-2.0-17.0-4.0","battery-v0.2","","""event"",""trial"",""time""
""fullscreenenter"",""1"",""1494""
","
","
","""event"",""trial"",""time""
""fullscreenenter"",""1"",""1494""
","
","","","-1","","","15","1049","1183","&#9789;","elianto","#f73b6a7A"," ","-1","0","-10","[]","0","0","4","","","","","","","","",""
"pit-trial","56","828406","0.0-2.0-17.1-0.1","battery-v0.2","","""event"",""trial"",""time""
""fullscreenenter"",""1"",""1494""
","
","
","""event"",""trial"",""time""
""fullscreenenter"",""1"",""1494""
","
","","","-1","","","15","1049","1183","&#9789;","elianto","#f73b6a7A"," ","-1","0","-10","[3700.300000000745]","1","0","4","","","","","","","","",""
"pit-trial","57","833261","0.0-2.0-17.1-1.1","battery-v0.2","","""event"",""trial"",""time""
""fullscreenenter"",""1"",""1494""
","
","
","""event"",""trial"",""time""
""fullscreenenter"",""1"",""1494""
","
","","","-1","","","15","1049","1183","&#9789;","elianto","#f73b6a7A"," ","-1","0","-10","[3699.60000000149]","1","0","4","","","","","","","","",""
"pit-trial","58","837669","0.0-2.0-17.1-2.1","battery-v0.2","","""event"",""trial"",""time""
""fullscreenenter"",""1"",""1494""
","
","
","""event"",""trial"",""time""
""fullscreenenter"",""1"",""1494""
","
","","","1553.300000000745","","","15","1049","1183","&#9789;","elianto","#f73b6a7A"," "," ","1","0","[2403.5]","1","0","4","","","","","","","","",""
"pit-trial","59","841310","0.0-2.0-17.1-3.1","battery-v0.2","","""event"",""trial"",""time""
""fullscreenenter"",""1"",""1494""
","
","
","""event"",""trial"",""time""
""fullscreenenter"",""1"",""1494""
","
","","","785.7999999970198","","","15","1049","1183","&#9789;","elianto","#f73b6a7A"," "," ","1","-10","[1636,2641]","2","0","4","","","","","","","","",""
"pit-trial","60","846165","0.0-2.0-17.1-4.1","battery-v0.2","","""event"",""trial"",""time""
""fullscreenenter"",""1"",""1494""
","
","
","""event"",""trial"",""time""
""fullscreenenter"",""1"",""1494""
","
","","","-1","","","15","1049","1183","&#9789;","elianto","#f73b6a7A"," ","-1","0","-10","[4375]","1","0","4","","","","","","","","",""
"pit-trial","61","851024","0.0-2.0-17.2-0.2","battery-v0.2","","""event"",""trial"",""time""
""fullscreenenter"",""1"",""1494""
","
","
","""event"",""trial"",""time""
""fullscreenenter"",""1"",""1494""
","
","","","-1","","","15","1049","1183","&#9789;","elianto","#f73b6a7A"," ","-1","0","-10","[]","0","0","4","","","","","","","","",""
"pit-trial","62","854928","0.0-2.0-17.2-1.2","battery-v0.2","","""event"",""trial"",""time""
""fullscreenenter"",""1"",""1494""
","
","
","""event"",""trial"",""time""
""fullscreenenter"",""1"",""1494""
","
","","","1048.3999999985099","","","15","1049","1183","&#9789;","elianto","#f73b6a7A"," "," ","1","0","[1898.5999999977648,2695.199999999255]","2","0","4","","","","","","","","",""
"pit-trial","63","859783","0.0-2.0-17.2-2.2","battery-v0.2","","""event"",""trial"",""time""
""fullscreenenter"",""1"",""1494""
","
","
","""event"",""trial"",""time""
""fullscreenenter"",""1"",""1494""
","
","","","-1","","","15","1049","1183","&#9789;","elianto","#f73b6a7A"," ","-1","0","-10","[]","0","0","4","","","","","","","","",""
"pit-trial","64","863408","0.0-2.0-17.2-3.2","battery-v0.2","","""event"",""trial"",""time""
""fullscreenenter"",""1"",""1494""
","
","
","""event"",""trial"",""time""
""fullscreenenter"",""1"",""1494""
","
","","","770.3999999985099","","","15","1049","1183","&#9789;","elianto","#f73b6a7A"," "," ","1","-10","[1620.6000000014901]","1","0","4","","","","","","","","",""
"pit-trial","65","868263","0.0-2.0-17.2-4.2","battery-v0.2","","""event"",""trial"",""time""
""fullscreenenter"",""1"",""1494""
","
","
","""event"",""trial"",""time""
""fullscreenenter"",""1"",""1494""
","
","","","-1","","","15","1049","1183","&#9789;","elianto","#f73b6a7A"," ","-1","0","-10","[]","0","0","4","","","","","","","","",""
"pit-trial","66","873119","0.0-2.0-17.3-0.3","battery-v0.2","","""event"",""trial"",""time""
""fullscreenenter"",""1"",""1494""
","
","
","""event"",""trial"",""time""
""fullscreenenter"",""1"",""1494""
","
","","","-1","","","15","1049","1183","&#9789;","elianto","#f73b6a7A"," ","-1","0","-10","[]","0","0","4","","","","","","","","",""
"pit-trial","67","877974","0.0-2.0-17.3-1.3","battery-v0.2","","""event"",""trial"",""time""
""fullscreenenter"",""1"",""1494""
","
","
","""event"",""trial"",""time""
""fullscreenenter"",""1"",""1494""
","
","","","-1","","","15","1049","1183","&#9789;","elianto","#f73b6a7A"," ","-1","0","-10","[]","0","0","4","","","","","","","","",""
"pit-trial","68","882830","0.0-2.0-17.3-2.3","battery-v0.2","","""event"",""trial"",""time""
""fullscreenenter"",""1"",""1494""
","
","
","""event"",""trial"",""time""
""fullscreenenter"",""1"",""1494""
","
","","","-1","","","15","1049","1183","&#9789;","elianto","#f73b6a7A"," ","-1","0","-10","[]","0","0","4","","","","","","","","",""
"pit-trial","69","887685","0.0-2.0-17.3-3.3","battery-v0.2","","""event"",""trial"",""time""
""fullscreenenter"",""1"",""1494""
","
","
","""event"",""trial"",""time""
""fullscreenenter"",""1"",""1494""
","
","","","-1","","","15","1049","1183","&#9789;","elianto","#f73b6a7A"," ","-1","0","0","[]","0","0","4","","","","","","","","",""
"pit-trial","70","892540","0.0-2.0-17.3-4.3","battery-v0.2","","""event"",""trial"",""time""
""fullscreenenter"",""1"",""1494""
","
","
","""event"",""trial"",""time""
""fullscreenenter"",""1"",""1494""
","
","","","-1","","","15","1049","1183","&#9789;","elianto","#f73b6a7A"," ","-1","0","-10","[]","0","0","4","","","","","","","","",""
"pit-trial","71","896321","0.0-2.0-17.4-0.4","battery-v0.2","","""event"",""trial"",""time""
""fullscreenenter"",""1"",""1494""
","
","
","""event"",""trial"",""time""
""fullscreenenter"",""1"",""1494""
","
","","","925.4000000022352","","","15","1049","1183","&#9789;","elianto","#f73b6a7A"," "," ","1","0","[1775.6000000014901]","1","0","4","","","","","","","","",""
"pit-trial","72","901007","0.0-2.0-17.4-1.4","battery-v0.2","","""event"",""trial"",""time""
""fullscreenenter"",""1"",""1494""
","
","
","""event"",""trial"",""time""
""fullscreenenter"",""1"",""1494""
","
","","","1828.1000000014901","","","15","1049","1183","&#9789;","elianto","#f73b6a7A"," "," ","1","0","[2681.5]","1","0","4","","","","","","","","",""
"pit-trial","73","905163","0.0-2.0-17.4-2.4","battery-v0.2","","""event"",""trial"",""time""
""fullscreenenter"",""1"",""1494""
","
","
","""event"",""trial"",""time""
""fullscreenenter"",""1"",""1494""
","
","","","1300","","","15","1049","1183","&#9789;","elianto","#f73b6a7A"," "," ","1","0","[2150.10000000149]","1","0","4","","","","","","","","",""
"pit-trial","74","910019","0.0-2.0-17.4-3.4","battery-v0.2","","""event"",""trial"",""time""
""fullscreenenter"",""1"",""1494""
","
","
","""event"",""trial"",""time""
""fullscreenenter"",""1"",""1494""
","
","","","-1","","","15","1049","1183","&#9789;","elianto","#f73b6a7A"," ","-1","0","0","[]","0","0","4","","","","","","","","",""
"pit-trial","75","914874","0.0-2.0-17.4-4.4","battery-v0.2","","""event"",""trial"",""time""
""fullscreenenter"",""1"",""1494""
","
","
","""event"",""trial"",""time""
""fullscreenenter"",""1"",""1494""
","
","","","-1","","","15","1049","1183","&#9789;","elianto","#f73b6a7A"," ","-1","0","-10","[]","0","0","4","","","","","","","","",""
"pit-instructions","76","941614","0.0-2.0-17.4-5.4-0.4","battery-v0.2","","""event"",""trial"",""time""
""fullscreenenter"",""1"",""1494""
","
","
","""event"",""trial"",""time""
""fullscreenenter"",""1"",""1494""
","
","","[{""page_index"":0,""viewing_time"":7213},{""page_index"":1,""viewing_time"":6467},{""page_index"":2,""viewing_time"":13056.300000000745}]","26737","","","","","","","","","","","","","","","","","","","","","","","","",""
"pit-trial","77","946470","0.0-2.0-17.5-0.5","battery-v0.2","","""event"",""trial"",""time""
""fullscreenenter"",""1"",""1494""
","
","
","""event"",""trial"",""time""
""fullscreenenter"",""1"",""1494""
","
","","","-1","","","15","1049","1183","&#9789;","elianto","#f73b6a7A"," ","-1","0","-10","[]","0","0","4","","","","","","","","",""
"pit-trial","78","951324","0.0-2.0-17.5-1.5","battery-v0.2","","""event"",""trial"",""time""
""fullscreenenter"",""1"",""1494""
","
","
","""event"",""trial"",""time""
""fullscreenenter"",""1"",""1494""
","
","","","-1","","","15","1049","1183","&#9789;","elianto","#f73b6a7A"," ","-1","0","-10","[]","0","0","4","","","","","","","","",""
"pit-trial","79","956178","0.0-2.0-17.5-2.5","battery-v0.2","","""event"",""trial"",""time""
""fullscreenenter"",""1"",""1494""
","
","
","""event"",""trial"",""time""
""fullscreenenter"",""1"",""1494""
","
","","","-1","","","15","1049","1183","&#9789;","elianto","#f73b6a7A"," ","-1","0","-10","[]","0","0","4","","","","","","","","",""
"pit-trial","80","959559","0.0-2.0-17.5-3.5","battery-v0.2","","""event"",""trial"",""time""
""fullscreenenter"",""1"",""1494""
","
","
","""event"",""trial"",""time""
""fullscreenenter"",""1"",""1494""
","
","","","526.9000000022352","","","15","1049","1183","&#9789;","elianto","#f73b6a7A"," "," ","1","-10","[1376.9000000022352]","1","0","4","","","","","","","","",""
"pit-trial","81","962768","0.0-2.0-17.5-4.5","battery-v0.2","","""event"",""trial"",""time""
""fullscreenenter"",""1"",""1494""
","
","
","""event"",""trial"",""time""
""fullscreenenter"",""1"",""1494""
","
","","","354","","","15","1049","1183","&#9789;","elianto","#f73b6a7A"," "," ","1","0","[1204.800000000745,2425.199999999255]","2","0","4","","","","","","","","",""
"pit-trial","82","965882","0.0-2.0-17.6-0.6","battery-v0.2","","""event"",""trial"",""time""
""fullscreenenter"",""1"",""1494""
","
","
","""event"",""trial"",""time""
""fullscreenenter"",""1"",""1494""
","
","","","259.5999999977648","","","15","1049","1183","&#9789;","elianto","#f73b6a7A"," "," ","1","0","[1110]","1","0","4","","","","","","","","",""
"pit-trial","83","968971","0.0-2.0-17.6-1.6","battery-v0.2","","""event"",""trial"",""time""
""fullscreenenter"",""1"",""1494""
","
","
","""event"",""trial"",""time""
""fullscreenenter"",""1"",""1494""
","
","","","234.60000000149012","","","15","1049","1183","&#9789;","elianto","#f73b6a7A"," "," ","1","0","[1084.6000000014901]","1","0","4","","","","","","","","",""
"pit-trial","84","971984","0.0-2.0-17.6-2.6","battery-v0.2","","""event"",""trial"",""time""
""fullscreenenter"",""1"",""1494""
","
","
","""event"",""trial"",""time""
""fullscreenenter"",""1"",""1494""
","
","","","158.69999999925494","","","15","1049","1183","&#9789;","elianto","#f73b6a7A"," "," ","1","0","[1008.9000000022352]","1","0","4","","","","","","","","",""
"pit-trial","85","976838","0.0-2.0-17.6-3.6","battery-v0.2","","""event"",""trial"",""time""
""fullscreenenter"",""1"",""1494""
","
","
","""event"",""trial"",""time""
""fullscreenenter"",""1"",""1494""
","
","","","-1","","","15","1049","1183","&#9789;","elianto","#f73b6a7A"," ","-1","0","0","[]","0","0","4","","","","","","","","",""
"pit-trial","86","981692","0.0-2.0-17.6-4.6","battery-v0.2","","""event"",""trial"",""time""
""fullscreenenter"",""1"",""1494""
","
","
","""event"",""trial"",""time""
""fullscreenenter"",""1"",""1494""
","
","","","-1","","","15","1049","1183","&#9789;","elianto","#f73b6a7A"," ","-1","0","-10","[]","0","0","4","","","","","","","","",""
"pit-trial","87","986547","0.0-2.0-17.7-0.7","battery-v0.2","","""event"",""trial"",""time""
""fullscreenenter"",""1"",""1494""
","
","
","""event"",""trial"",""time""
""fullscreenenter"",""1"",""1494""
","
","","","-1","","","15","1049","1183","&#9789;","elianto","#f73b6a7A"," ","-1","0","-10","[4123.70000000298]","1","0","4","","","","","","","","",""
"pit-trial","88","989671","0.0-2.0-17.7-1.7","battery-v0.2","","""event"",""trial"",""time""
""fullscreenenter"",""1"",""1494""
","
","
","""event"",""trial"",""time""
""fullscreenenter"",""1"",""1494""
","
","","","269.5999999977648","","","15","1049","1183","&#9789;","elianto","#f73b6a7A"," "," ","1","0","[1119.8999999985099]","1","0","4","","","","","","","","",""
"pit-trial","89","992904","0.0-2.0-17.7-2.7","battery-v0.2","","""event"",""trial"",""time""
""fullscreenenter"",""1"",""1494""
","
","
","""event"",""trial"",""time""
""fullscreenenter"",""1"",""1494""
","
","","","379","","","15","1049","1183","&#9789;","elianto","#f73b6a7A"," "," ","1","0","[1228.800000000745,3155.800000000745]","2","0","4","","","","","","","","",""
"pit-trial","90","997759","0.0-2.0-17.7-3.7","battery-v0.2","","""event"",""trial"",""time""
""fullscreenenter"",""1"",""1494""
","
","
","""event"",""trial"",""time""
""fullscreenenter"",""1"",""1494""
","
","","","-1","","","15","1049","1183","&#9789;","elianto","#f73b6a7A"," ","-1","0","0","[3039]","1","0","4","","","","","","","","",""
"pit-trial","91","1000801","0.0-2.0-17.7-4.7","battery-v0.2","","""event"",""trial"",""time""
""fullscreenenter"",""1"",""1494""
","
","
","""event"",""trial"",""time""
""fullscreenenter"",""1"",""1494""
","
","","","186.60000000149012","","","15","1049","1183","&#9789;","elianto","#f73b6a7A"," "," ","1","0","[1038.0999999977648]","1","0","4","","","","","","","","",""
"pit-trial","92","1003874","0.0-2.0-17.8-0.8","battery-v0.2","","""event"",""trial"",""time""
""fullscreenenter"",""1"",""1494""
","
","
","""event"",""trial"",""time""
""fullscreenenter"",""1"",""1494""
","
","","","216.80000000074506","","","15","1049","1183","&#9789;","elianto","#f73b6a7A"," "," ","1","0","[306.1000000014901,1067]","2","0","4","","","","","","","","",""
"pit-trial","93","1007135","0.0-2.0-17.8-1.8","battery-v0.2","","""event"",""trial"",""time""
""fullscreenenter"",""1"",""1494""
","
","
","""event"",""trial"",""time""
""fullscreenenter"",""1"",""1494""
","
","","","407.19999999925494","","","15","1049","1183","&#9789;","elianto","#f73b6a7A"," "," ","1","0","[1257.300000000745]","1","0","4","","","","","","","","",""
"pit-trial","94","1010294","0.0-2.0-17.8-2.8","battery-v0.2","","""event"",""trial"",""time""
""fullscreenenter"",""1"",""1494""
","
","
","""event"",""trial"",""time""
""fullscreenenter"",""1"",""1494""
","
","","","304.4000000022352","","","15","1049","1183","&#9789;","elianto","#f73b6a7A"," "," ","1","0","[1154.7000000029802]","1","0","4","","","","","","","","",""
"pit-trial","95","1013305","0.0-2.0-17.8-3.8","battery-v0.2","","""event"",""trial"",""time""
""fullscreenenter"",""1"",""1494""
","
","
","""event"",""trial"",""time""
""fullscreenenter"",""1"",""1494""
","
","","","156","","","15","1049","1183","&#9789;","elianto","#f73b6a7A"," "," ","1","-10","[1006.2000000029802]","1","0","4","","","","","","","","",""
"pit-trial","96","1017069","0.0-2.0-17.8-4.8","battery-v0.2","","""event"",""trial"",""time""
""fullscreenenter"",""1"",""1494""
","
","
","""event"",""trial"",""time""
""fullscreenenter"",""1"",""1494""
","
","","","909.7000000029802","","","15","1049","1183","&#9789;","elianto","#f73b6a7A"," "," ","1","0","[1759.9000000022352]","1","0","4","","","","","","","","",""
"call-function","97","1017072","0.0-2.0-18.0","battery-v0.2","","""event"",""trial"",""time""
""fullscreenenter"",""1"",""1494""
","
","
","""event"",""trial"",""time""
""fullscreenenter"",""1"",""1494""
","
","","","","","","","","","","","","","","","","","","","","","","","","","","","",""
"pit-instructions","98","1180903","0.0-2.0-19.0","battery-v0.2","","""event"",""trial"",""time""
""fullscreenenter"",""1"",""1494""
","
","
","""event"",""trial"",""time""
""fullscreenenter"",""1"",""1494""
","
","","[{""page_index"":0,""viewing_time"":9140.5},{""page_index"":1,""viewing_time"":15398.900000002235},{""page_index"":2,""viewing_time"":37154.099999997765},{""page_index"":3,""viewing_time"":9989.199999999255},{""page_index"":4,""viewing_time"":11077},{""page_index"":5,""viewing_time"":16409.800000000745},{""page_index"":6,""viewing_time"":14232.5},{""page_index"":7,""viewing_time"":9512.400000002235},{""page_index"":8,""viewing_time"":40914.29999999702}]","163829.69999999925","","","","","","","","","","","","","","","","","","","","","","","","",""
"pit-comprehension","99","1185805","0.0-2.0-20.0-0.0","battery-v0.2","","""event"",""trial"",""time""
""fullscreenenter"",""1"",""1494""
","
","
","""event"",""trial"",""time""
""fullscreenenter"",""1"",""1494""
","
","","","4895.39999999851","[""SPACE""]","0","15","1049","1183","","","","","","","","","","","","","","","","","","","",""
"pit-instructions","100","1191248","0.0-2.0-20.0-1.0","battery-v0.2","","""event"",""trial"",""time""
""fullscreenenter"",""1"",""1494""
","
","
","""event"",""trial"",""time""
""fullscreenenter"",""1"",""1494""
","
","","[{""page_index"":0,""viewing_time"":5398.400000002235}]","5399.300000000745","","","","","","","","","","","","","","","","","","","","","","","","",""
"pit-comprehension","101","1195967","0.0-2.0-21.0-0.0","battery-v0.2","","""event"",""trial"",""time""
""fullscreenenter"",""1"",""1494""
","
","
","""event"",""trial"",""time""
""fullscreenenter"",""1"",""1494""
","
","","","4710.5","[""10""]","0","15","1049","1183","","","","","","","","","","","","","","","","","","","",""
"pit-instructions","102","1202954","0.0-2.0-21.0-1.0","battery-v0.2","","""event"",""trial"",""time""
""fullscreenenter"",""1"",""1494""
","
","
","""event"",""trial"",""time""
""fullscreenenter"",""1"",""1494""
","
","","[{""page_index"":0,""viewing_time"":6940.699999999255}]","6941.79999999702","","","","","","","","","","","","","","","","","","","","","","","","",""
"pit-comprehension","103","1209639","0.0-2.0-22.0-0.0","battery-v0.2","","""event"",""trial"",""time""
""fullscreenenter"",""1"",""1494""
","
","
","""event"",""trial"",""time""
""fullscreenenter"",""1"",""1494""
","
","","","6675.60000000149","[""0""]","0","15","1049","1183","","","","","","","","","","","","","","","","","","","",""
"pit-instructions","104","1214996","0.0-2.0-22.0-1.0","battery-v0.2","","""event"",""trial"",""time""
""fullscreenenter"",""1"",""1494""
","
","
","""event"",""trial"",""time""
""fullscreenenter"",""1"",""1494""
","
","","[{""page_index"":0,""viewing_time"":5311.300000000745}]","5312.10000000149","","","","","","","","","","","","","","","","","","","","","","","","",""
"pit-comprehension","105","1226226","0.0-2.0-23.0-0.0","battery-v0.2","","""event"",""trial"",""time""
""fullscreenenter"",""1"",""1494""
","
","
","""event"",""trial"",""time""
""fullscreenenter"",""1"",""1494""
","
","","","11220.699999999255","[""False""]","1","15","1049","1183","","","","","","","","","","","","","","","","","","","",""
"pit-instructions","106","1227970","0.0-2.0-23.0-1.0","battery-v0.2","","""event"",""trial"",""time""
""fullscreenenter"",""1"",""1494""
","
","
","""event"",""trial"",""time""
""fullscreenenter"",""1"",""1494""
","
","","[{""page_index"":0,""viewing_time"":1699.800000000745}]","1700.6000000014901","","","","","","","","","","","","","","","","","","","","","","","","",""
"pit-instructions","107","1229236","0.0-2.0-23.0-2.0-0.0","battery-v0.2","","""event"",""trial"",""time""
""fullscreenenter"",""1"",""1494""
","
","
","""event"",""trial"",""time""
""fullscreenenter"",""1"",""1494""
","
","","[{""page_index"":0,""viewing_time"":1261}]","1262","","","","","","","","","","","","","","","","","","","","","","","","",""
"pit-comprehension","108","1238292","0.0-2.0-23.1-0.1","battery-v0.2","","""event"",""trial"",""time""
""fullscreenenter"",""1"",""1494""
","
","
","""event"",""trial"",""time""
""fullscreenenter"",""1"",""1494""
","
","","","9049","[""True""]","0","15","1049","1183","","","","","","","","","","","","","","","","","","","",""
"pit-instructions","109","1245204","0.0-2.0-23.1-1.1","battery-v0.2","","""event"",""trial"",""time""
""fullscreenenter"",""1"",""1494""
","
","
","""event"",""trial"",""time""
""fullscreenenter"",""1"",""1494""
","
","","[{""page_index"":0,""viewing_time"":6865.300000000745}]","6866.39999999851","","","","","","","","","","","","","","","","","","","","","","","","",""
"pit-comprehension","110","1253270","0.0-2.0-24.0-0.0","battery-v0.2","","""event"",""trial"",""time""
""fullscreenenter"",""1"",""1494""
","
","
","""event"",""trial"",""time""
""fullscreenenter"",""1"",""1494""
","
","","","8056.199999999255","[""True""]","0","15","1049","1183","","","","","","","","","","","","","","","","","","","",""
"pit-instructions","111","1268068","0.0-2.0-24.0-1.0","battery-v0.2","","""event"",""trial"",""time""
""fullscreenenter"",""1"",""1494""
","
","
","""event"",""trial"",""time""
""fullscreenenter"",""1"",""1494""
","
","","[{""page_index"":0,""viewing_time"":14750.5}]","14751.5","","","","","","","","","","","","","","","","","","","","","","","","",""
"pit-comprehension","112","1282209","0.0-2.0-25.0-0.0","battery-v0.2","","""event"",""trial"",""time""
""fullscreenenter"",""1"",""1494""
","
","
","""event"",""trial"",""time""
""fullscreenenter"",""1"",""1494""
","
","","","14133.300000000745","[""True""]","0","15","1049","1183","","","","","","","","","","","","","","","","","","","",""
"pit-instructions","113","1285653","0.0-2.0-25.0-1.0","battery-v0.2","","""event"",""trial"",""time""
""fullscreenenter"",""1"",""1494""
","
","
","""event"",""trial"",""time""
""fullscreenenter"",""1"",""1494""
","
","","[{""page_index"":0,""viewing_time"":3397.5}]","3398.5","","","","","","","","","","","","","","","","","","","","","","","","",""
"pit-comprehension","114","1292294","0.0-2.0-26.0-0.0","battery-v0.2","","""event"",""trial"",""time""
""fullscreenenter"",""1"",""1494""
","
","
","""event"",""trial"",""time""
""fullscreenenter"",""1"",""1494""
","
","","","6634.5","[""True""]","1","15","1049","1183","","","","","","","","","","","","","","","","","","","",""
"pit-instructions","115","1296273","0.0-2.0-26.0-1.0","battery-v0.2","","""event"",""trial"",""time""
""fullscreenenter"",""1"",""1494""
","
","
","""event"",""trial"",""time""
""fullscreenenter"",""1"",""1494""
","
","","[{""page_index"":0,""viewing_time"":3931.60000000149}]","3932.10000000149","","","","","","","","","","","","","","","","","","","","","","","","",""
"pit-instructions","116","1297173","0.0-2.0-26.0-2.0-0.0","battery-v0.2","","""event"",""trial"",""time""
""fullscreenenter"",""1"",""1494""
","
","
","""event"",""trial"",""time""
""fullscreenenter"",""1"",""1494""
","
","","[{""page_index"":0,""viewing_time"":896.5}]","897","","","","","","","","","","","","","","","","","","","","","","","","",""
"pit-comprehension","117","1301786","0.0-2.0-26.1-0.1","battery-v0.2","","""event"",""trial"",""time""
""fullscreenenter"",""1"",""1494""
","
","
","""event"",""trial"",""time""
""fullscreenenter"",""1"",""1494""
","
","","","4609","[""False""]","0","15","1049","1183","","","","","","","","","","","","","","","","","","","",""
"pit-instructions","118","1307950","0.0-2.0-26.1-1.1","battery-v0.2","","""event"",""trial"",""time""
""fullscreenenter"",""1"",""1494""
","
","
","""event"",""trial"",""time""
""fullscreenenter"",""1"",""1494""
","
","","[{""page_index"":0,""viewing_time"":6117.10000000149}]","6117.70000000298","","","","","","","","","","","","","","","","","","","","","","","","",""
"pit-instructions","119","1342845","0.0-3.0","battery-v0.2","","""event"",""trial"",""time""
""fullscreenenter"",""1"",""1494""
","
","
","""event"",""trial"",""time""
""fullscreenenter"",""1"",""1494""
","
","","[{""page_index"":0,""viewing_time"":15059.5},{""page_index"":1,""viewing_time"":7580.89999999851},{""page_index"":2,""viewing_time"":12250.39999999851}]","34891.5","","","","","","","","","","","","","","","","","","","","","","","","",""
"pit-trial","120","1346629","0.0-4.0","battery-v0.2","","""event"",""trial"",""time""
""fullscreenenter"",""1"",""1494""
","
","
","""event"",""trial"",""time""
""fullscreenenter"",""1"",""1494""
","
","","","921.8000000007451","","","15","1049","1183","&#9730;","elianto","#3366ff99"," "," ","1","+10","[1772.800000000745]","1","1","","","1049","1","1","1","win","go","0","[]"
"pit-trial","121","1350572","0.0-5.0","battery-v0.2","","""event"",""trial"",""time""
""fullscreenenter"",""1"",""1494""
","
","
","""event"",""trial"",""time""
""fullscreenenter"",""1"",""1494""
","
","","","1087.9000000022352","","","15","1049","1183","&#9752;","elianto","#f73b6a7A"," "," ","1","0","[1938]","1","1","","","1049","2","3","3","lose","go","0","0"
"pit-trial","122","1355426","0.0-6.0","battery-v0.2","","""event"",""trial"",""time""
""fullscreenenter"",""1"",""1494""
","
","
","""event"",""trial"",""time""
""fullscreenenter"",""1"",""1494""
","
","","","-1","","","15","1049","1183","&#9728;","elianto","#f73b6a7A","-1","-1","1","0","[]","0","1","","","1049","3","0","4","lose","no-go","0","0"
"pit-trial","123","1359239","0.0-7.0","battery-v0.2","","""event"",""trial"",""time""
""fullscreenenter"",""1"",""1494""
","
","
","""event"",""trial"",""time""
""fullscreenenter"",""1"",""1494""
","
","","","958.3000000007451","","","15","1049","1183","&#9733;","elianto","#3366ff99","-1"," ","0","0","[1808.5]","1","1","","","1049","4","2","2","win","no-go","0","0"
"pit-trial","124","1362974","0.0-8.0","battery-v0.2","","""event"",""trial"",""time""
""fullscreenenter"",""1"",""1494""
","
","
","""event"",""trial"",""time""
""fullscreenenter"",""1"",""1494""
","
","","","880.3000000007451","","","15","1049","1183","&#9733;","elianto","#3366ff99","-1"," ","0","0","[1731.199999999255]","1","1","","","1049","5","2","2","win","no-go","0","0"
"pit-trial","125","1366535","0.0-9.0","battery-v0.2","","""event"",""trial"",""time""
""fullscreenenter"",""1"",""1494""
","
","
","""event"",""trial"",""time""
""fullscreenenter"",""1"",""1494""
","
","","","706.6999999992549","","","15","1049","1183","&#9730;","elianto","#3366ff99"," "," ","1","+10","[1556.800000000745]","1","1","","","1049","6","1","1","win","go","0","0"
"pit-trial","126","1371390","0.0-10.0","battery-v0.2","","""event"",""trial"",""time""
""fullscreenenter"",""1"",""1494""
","
","
","""event"",""trial"",""time""
""fullscreenenter"",""1"",""1494""
","
","","","-1","","","15","1049","1183","&#9752;","elianto","#f73b6a7A"," ","-1","0","0","[4316.099999997765]","1","1","","","1049","7","3","3","lose","go","1","0"
"pit-trial","127","1375615","0.0-11.0","battery-v0.2","","""event"",""trial"",""time""
""fullscreenenter"",""1"",""1494""
","
","
","""event"",""trial"",""time""
""fullscreenenter"",""1"",""1494""
","
","","","1370.8999999985099","","","15","1049","1183","&#9728;","elianto","#f73b6a7A","-1"," ","0","-10","[2221]","1","1","","","1049","8","0","4","lose","no-go","0","0"
"pit-trial","128","1378519","0.0-12.0","battery-v0.2","","""event"",""trial"",""time""
""fullscreenenter"",""1"",""1494""
","
","
","""event"",""trial"",""time""
""fullscreenenter"",""1"",""1494""
","
","","","49","","","15","1049","1183","&#9730;","elianto","#3366ff99"," "," ","1","0","[899]","1","1","","","1049","9","1","1","win","go","1","0"
"pit-trial","129","1383373","0.0-13.0","battery-v0.2","","""event"",""trial"",""time""
""fullscreenenter"",""1"",""1494""
","
","
","""event"",""trial"",""time""
""fullscreenenter"",""1"",""1494""
","
","","","-1","","","15","1049","1183","&#9728;","elianto","#f73b6a7A","-1","-1","1","-10","[4175.5]","1","1","","","1049","10","0","4","lose","no-go","1","0"
"pit-trial","130","1388229","0.0-14.0","battery-v0.2","","""event"",""trial"",""time""
""fullscreenenter"",""1"",""1494""
","
","
","""event"",""trial"",""time""
""fullscreenenter"",""1"",""1494""
","
","","","-1","","","15","1049","1183","&#9752;","elianto","#f73b6a7A"," ","-1","0","-10","[3910.2000000029802]","1","1","","","1049","11","3","3","lose","go","0","0"
"pit-trial","131","1391794","0.0-15.0","battery-v0.2","","""event"",""trial"",""time""
""fullscreenenter"",""1"",""1494""
","
","
","""event"",""trial"",""time""
""fullscreenenter"",""1"",""1494""
","
","","","711","","","15","1049","1183","&#9733;","elianto","#3366ff99","-1"," ","0","0","[1561.2000000029802]","1","1","","","1049","12","2","2","win","no-go","0","0"
"pit-trial","132","1395331","0.0-16.0","battery-v0.2","","""event"",""trial"",""time""
""fullscreenenter"",""1"",""1494""
","
","
","""event"",""trial"",""time""
""fullscreenenter"",""1"",""1494""
","
","","","681.9000000022352","","","15","1049","1183","&#9752;","elianto","#f73b6a7A"," "," ","1","-10","[1532]","1","1","","","1049","13","3","3","lose","go","1","0"
"pit-trial","133","1398878","0.0-17.0","battery-v0.2","","""event"",""trial"",""time""
""fullscreenenter"",""1"",""1494""
","
","
","""event"",""trial"",""time""
""fullscreenenter"",""1"",""1494""
","
","","","692.7999999970198","","","15","1049","1183","&#9730;","elianto","#3366ff99"," "," ","1","+10","[1543]","1","1","","","1049","14","1","1","win","go","0","0"
"pit-trial","134","1403201","0.0-18.0","battery-v0.2","","""event"",""trial"",""time""
""fullscreenenter"",""1"",""1494""
","
","
","""event"",""trial"",""time""
""fullscreenenter"",""1"",""1494""
","
","","","1467.800000000745","","","15","1049","1183","&#9728;","elianto","#f73b6a7A","-1"," ","0","0","[2317.800000000745]","1","1","","","1049","15","0","4","lose","no-go","1","0"
"pit-trial","135","1406644","0.0-19.0","battery-v0.2","","""event"",""trial"",""time""
""fullscreenenter"",""1"",""1494""
","
","
","""event"",""trial"",""time""
""fullscreenenter"",""1"",""1494""
","
","","","588.3999999985099","","","15","1049","1183","&#9733;","elianto","#3366ff99","-1"," ","0","0","[1439]","1","1","","","1049","16","2","2","win","no-go","0","0"
"pit-trial","136","1410355","0.0-20.0","battery-v0.2","","""event"",""trial"",""time""
""fullscreenenter"",""1"",""1494""
","
","
","""event"",""trial"",""time""
""fullscreenenter"",""1"",""1494""
","
","","","856.3999999985099","","","15","1049","1183","&#9730;","elianto","#3366ff99"," "," ","1","0","[1706.5,2912.39999999851]","2","1","","","1049","17","1","1","win","go","1","0"
"pit-trial","137","1413853","0.0-21.0","battery-v0.2","","""event"",""trial"",""time""
""fullscreenenter"",""1"",""1494""
","
","
","""event"",""trial"",""time""
""fullscreenenter"",""1"",""1494""
","
","","","640","","","15","1049","1183","&#9733;","elianto","#3366ff99","-1"," ","0","0","[1493.1000000014901]","1","1","","","1049","18","2","2","win","no-go","0","0"
"pit-trial","138","1417673","0.0-22.0","battery-v0.2","","""event"",""trial"",""time""
""fullscreenenter"",""1"",""1494""
","
","
","""event"",""trial"",""time""
""fullscreenenter"",""1"",""1494""
","
","","","964.8000000007451","","","15","1049","1183","&#9752;","elianto","#f73b6a7A"," "," ","1","0","[1815.0999999977648]","1","1","","","1049","19","3","3","lose","go","0","0"
"pit-trial","139","1421431","0.0-23.0","battery-v0.2","","""event"",""trial"",""time""
""fullscreenenter"",""1"",""1494""
","
","
","""event"",""trial"",""time""
""fullscreenenter"",""1"",""1494""
","
","","","900.5","","","15","1049","1183","&#9728;","elianto","#f73b6a7A","-1"," ","0","-10","[1753]","1","1","","","1049","20","0","4","lose","no-go","0","0"
"pit-instructions","140","1439720","0.0-24.0","battery-v0.2","","""event"",""trial"",""time""
""fullscreenenter"",""1"",""1494""
","
","
","""event"",""trial"",""time""
""fullscreenenter"",""1"",""1494""
","
","","[{""page_index"":0,""viewing_time"":9315.599999997765},{""page_index"":1,""viewing_time"":8970.20000000298}]","18286.699999999255","","","","","","","","","","","","","","","","","","","","","","","","",""
"pit-trial","141","1444006","0.0-25.0","battery-v0.2","","""event"",""trial"",""time""
""fullscreenenter"",""1"",""1494""
","
","
","""event"",""trial"",""time""
""fullscreenenter"",""1"",""1494""
","
","","","1427.5","","","15","1049","1183","y","elianto","#f73b6a7A","-1"," ","0","-10","[2277.5]","1","2","","","1049","21","2","4","lose","no-go","0","0"
"pit-trial","142","1447667","0.0-26.0","battery-v0.2","","""event"",""trial"",""time""
""fullscreenenter"",""1"",""1494""
","
","
","""event"",""trial"",""time""
""fullscreenenter"",""1"",""1494""
","
","","","806.1000000014901","","","15","1049","1183","h","elianto","#3366ff99"," "," ","1","+10","[814.8999999985099,1656.300000000745]","2","2","","","1049","22","3","1","win","go","0","0"
"pit-trial","143","1451327","0.0-27.0","battery-v0.2","","""event"",""trial"",""time""
""fullscreenenter"",""1"",""1494""
","
","
","""event"",""trial"",""time""
""fullscreenenter"",""1"",""1494""
","
","","","805.3000000007451","","","15","1049","1183","m","elianto","#3366ff99","-1"," ","0","0","[1655.300000000745]","1","2","","","1049","23","0","2","win","no-go","0","0"
"pit-trial","144","1456183","0.0-28.0","battery-v0.2","","""event"",""trial"",""time""
""fullscreenenter"",""1"",""1494""
","
","
","""event"",""trial"",""time""
""fullscreenenter"",""1"",""1494""
","
","","","-1","","","15","1049","1183","r","elianto","#f73b6a7A"," ","-1","0","-10","[3111.199999999255]","1","2","","","1049","24","1","3","lose","go","0","0"
"pit-trial","145","1461038","0.0-29.0","battery-v0.2","","""event"",""trial"",""time""
""fullscreenenter"",""1"",""1494""
","
","
","""event"",""trial"",""time""
""fullscreenenter"",""1"",""1494""
","
","","","-1","","","15","1049","1183","y","elianto","#f73b6a7A","-1","-1","1","0","[]","0","2","","","1049","25","2","4","lose","no-go","0","0"
"pit-trial","146","1464764","0.0-30.0","battery-v0.2","","""event"",""trial"",""time""
""fullscreenenter"",""1"",""1494""
","
","
","""event"",""trial"",""time""
""fullscreenenter"",""1"",""1494""
","
","","","871","","","15","1049","1183","r","elianto","#f73b6a7A"," "," ","1","0","[1721.6000000014901]","1","2","","","1049","26","1","3","lose","go","0","0"
"pit-trial","147","1468414","0.0-31.0","battery-v0.2","","""event"",""trial"",""time""
""fullscreenenter"",""1"",""1494""
","
","
","""event"",""trial"",""time""
""fullscreenenter"",""1"",""1494""
","
","","","795","","","15","1049","1183","m","elianto","#3366ff99","-1"," ","0","0","[1645.1000000014901]","1","2","","","1049","27","0","2","win","no-go","0","0"
"pit-trial","148","1471873","0.0-32.0","battery-v0.2","","""event"",""trial"",""time""
""fullscreenenter"",""1"",""1494""
","
","
","""event"",""trial"",""time""
""fullscreenenter"",""1"",""1494""
","
","","","603.5999999977648","","","15","1049","1183","h","elianto","#3366ff99"," "," ","1","+10","[1453.800000000745]","1","2","","","1049","28","3","1","win","go","0","0"
"pit-trial","149","1476729","0.0-33.0","battery-v0.2","","""event"",""trial"",""time""
""fullscreenenter"",""1"",""1494""
","
","
","""event"",""trial"",""time""
""fullscreenenter"",""1"",""1494""
","
","","","-1","","","15","1049","1183","r","elianto","#f73b6a7A"," ","-1","0","-10","[]","0","2","","","1049","29","1","3","lose","go","0","0"
"pit-trial","150","1481075","0.0-34.0","battery-v0.2","","""event"",""trial"",""time""
""fullscreenenter"",""1"",""1494""
","
","
","""event"",""trial"",""time""
""fullscreenenter"",""1"",""1494""
","
","","","1490.6000000014901","","","15","1049","1183","y","elianto","#f73b6a7A","-1"," ","0","-10","[2340.699999999255]","1","2","","","1049","30","2","4","lose","no-go","0","0"
"pit-trial","151","1484645","0.0-35.0","battery-v0.2","","""event"",""trial"",""time""
""fullscreenenter"",""1"",""1494""
","
","
","""event"",""trial"",""time""
""fullscreenenter"",""1"",""1494""
","
","","","715.3000000007451","","","15","1049","1183","m","elianto","#3366ff99","-1"," ","0","0","[1565.300000000745]","1","2","","","1049","31","0","2","win","no-go","0","0"
"pit-trial","152","1488165","0.0-36.0","battery-v0.2","","""event"",""trial"",""time""
""fullscreenenter"",""1"",""1494""
","
","
","""event"",""trial"",""time""
""fullscreenenter"",""1"",""1494""
","
","","","663.8999999985099","","","15","1049","1183","h","elianto","#3366ff99"," "," ","1","+10","[1513.8999999985099]","1","2","","","1049","32","3","1","win","go","0","0"
"pit-trial","153","1492670","0.0-37.0","battery-v0.2","","""event"",""trial"",""time""
""fullscreenenter"",""1"",""1494""
","
","
","""event"",""trial"",""time""
""fullscreenenter"",""1"",""1494""
","
","","","1650.3999999985099","","","15","1049","1183","y","elianto","#f73b6a7A","-1"," ","0","0","[2500.5,3963.699999999255]","2","2","","","1049","33","2","4","lose","no-go","1","0"
"pit-trial","154","1497526","0.0-38.0","battery-v0.2","","""event"",""trial"",""time""
""fullscreenenter"",""1"",""1494""
","
","
","""event"",""trial"",""time""
""fullscreenenter"",""1"",""1494""
","
","","","-1","","","15","1049","1183","r","elianto","#f73b6a7A"," ","-1","0","0","[]","0","2","","","1049","34","1","3","lose","go","1","0"
"pit-trial","155","1501090","0.0-39.0","battery-v0.2","","""event"",""trial"",""time""
""fullscreenenter"",""1"",""1494""
","
","
","""event"",""trial"",""time""
""fullscreenenter"",""1"",""1494""
","
","","","707.5","","","15","1049","1183","h","elianto","#3366ff99"," "," ","1","+10","[1559.2999999970198]","1","2","","","1049","35","3","1","win","go","0","0"
"pit-trial","156","1504662","0.0-40.0","battery-v0.2","","""event"",""trial"",""time""
""fullscreenenter"",""1"",""1494""
","
","
","""event"",""trial"",""time""
""fullscreenenter"",""1"",""1494""
","
","","","716.2999999970198","","","15","1049","1183","m","elianto","#3366ff99","-1"," ","0","+10","[1566.5]","1","2","","","1049","36","0","2","win","no-go","1","0"
"pit-trial","157","1508213","0.0-41.0","battery-v0.2","","""event"",""trial"",""time""
""fullscreenenter"",""1"",""1494""
","
","
","""event"",""trial"",""time""
""fullscreenenter"",""1"",""1494""
","
","","","696.8999999985099","","","15","1049","1183","m","elianto","#3366ff99","-1"," ","0","+10","[1547.199999999255]","1","2","","","1049","37","0","2","win","no-go","1","0"
"pit-trial","158","1513068","0.0-42.0","battery-v0.2","","""event"",""trial"",""time""
""fullscreenenter"",""1"",""1494""
","
","
","""event"",""trial"",""time""
""fullscreenenter"",""1"",""1494""
","
","","","-1","","","15","1049","1183","r","elianto","#f73b6a7A"," ","-1","0","-10","[]","0","2","","","1049","38","1","3","lose","go","0","0"
"pit-trial","159","1516902","0.0-43.0","battery-v0.2","","""event"",""trial"",""time""
""fullscreenenter"",""1"",""1494""
","
","
","""event"",""trial"",""time""
""fullscreenenter"",""1"",""1494""
","
","","","980","","","15","1049","1183","y","elianto","#f73b6a7A","-1"," ","0","-10","[1830.199999999255]","1","2","","","1049","39","2","4","lose","no-go","0","0"
"pit-trial","160","1520246","0.0-44.0","battery-v0.2","","""event"",""trial"",""time""
""fullscreenenter"",""1"",""1494""
","
","
","""event"",""trial"",""time""
""fullscreenenter"",""1"",""1494""
","
","","","489.80000000074506","","","15","1049","1183","h","elianto","#3366ff99"," "," ","1","+10","[1340]","1","2","","","1049","40","3","1","win","go","0","0"
"pit-trial","161","1523286","0.0-45.0","battery-v0.2","","""event"",""trial"",""time""
""fullscreenenter"",""1"",""1494""
","
","
","""event"",""trial"",""time""
""fullscreenenter"",""1"",""1494""
","
","","","185.70000000298023","","","15","1049","1183","y","elianto","#f73b6a7A","-1"," ","0","0","[1035.6000000014901]","1","2","","","1049","41","2","4","lose","no-go","1","0"
"pit-trial","162","1527122","0.0-46.0","battery-v0.2","","""event"",""trial"",""time""
""fullscreenenter"",""1"",""1494""
","
","
","""event"",""trial"",""time""
""fullscreenenter"",""1"",""1494""
","
","","","980.7999999970198","","","15","1049","1183","r","elianto","#f73b6a7A"," "," ","1","0","[1830.9000000022352]","1","2","","","1049","42","1","3","lose","go","0","0"
"pit-trial","163","1530558","0.0-47.0","battery-v0.2","","""event"",""trial"",""time""
""fullscreenenter"",""1"",""1494""
","
","
","""event"",""trial"",""time""
""fullscreenenter"",""1"",""1494""
","
","","","582.5999999977648","","","15","1049","1183","m","elianto","#3366ff99","-1"," ","0","+10","[1432.800000000745]","1","2","","","1049","43","0","2","win","no-go","1","0"
"pit-trial","164","1534997","0.0-48.0","battery-v0.2","","""event"",""trial"",""time""
""fullscreenenter"",""1"",""1494""
","
","
","""event"",""trial"",""time""
""fullscreenenter"",""1"",""1494""
","
","","","1583.300000000745","","","15","1049","1183","h","elianto","#3366ff99"," "," ","1","+10","[2433.60000000149]","1","2","","","1049","44","3","1","win","go","0","0"
"pit-trial","165","1539852","0.0-49.0","battery-v0.2","","""event"",""trial"",""time""
""fullscreenenter"",""1"",""1494""
","
","
","""event"",""trial"",""time""
""fullscreenenter"",""1"",""1494""
","
","","","-1","","","15","1049","1183","r","elianto","#f73b6a7A"," ","-1","0","-10","[4460.199999999255]","1","2","","","1049","45","1","3","lose","go","0","0"
"pit-trial","166","1543252","0.0-50.0","battery-v0.2","","""event"",""trial"",""time""
""fullscreenenter"",""1"",""1494""
","
","
","""event"",""trial"",""time""
""fullscreenenter"",""1"",""1494""
","
","","","545.6000000014901","","","15","1049","1183","h","elianto","#3366ff99"," "," ","1","0","[1395.800000000745]","1","2","","","1049","46","3","1","win","go","1","0"
"pit-trial","167","1546872","0.0-51.0","battery-v0.2","","""event"",""trial"",""time""
""fullscreenenter"",""1"",""1494""
","
","
","""event"",""trial"",""time""
""fullscreenenter"",""1"",""1494""
","
","","","766.1999999992549","","","15","1049","1183","m","elianto","#3366ff99","-1"," ","0","0","[1616.300000000745]","1","2","","","1049","47","0","2","win","no-go","0","0"
"pit-trial","168","1551364","0.0-52.0","battery-v0.2","","""event"",""trial"",""time""
""fullscreenenter"",""1"",""1494""
","
","
","""event"",""trial"",""time""
""fullscreenenter"",""1"",""1494""
","
","","","1637.5","","","15","1049","1183","y","elianto","#f73b6a7A","-1"," ","0","0","[2487.5]","1","2","","","1049","48","2","4","lose","no-go","1","0"
"pit-trial","169","1555230","0.0-53.0","battery-v0.2","","""event"",""trial"",""time""
""fullscreenenter"",""1"",""1494""
","
","
","""event"",""trial"",""time""
""fullscreenenter"",""1"",""1494""
","
","","","1011.6000000014901","","","15","1049","1183","y","elianto","#f73b6a7A","-1"," ","0","-10","[1861.699999999255,3232.60000000149]","2","2","","","1049","49","2","4","lose","no-go","0","0"
"pit-trial","170","1558675","0.0-54.0","battery-v0.2","","""event"",""trial"",""time""
""fullscreenenter"",""1"",""1494""
","
","
","""event"",""trial"",""time""
""fullscreenenter"",""1"",""1494""
","
","","","590.3999999985099","","","15","1049","1183","h","elianto","#3366ff99"," "," ","1","+10","[1440.6000000014901]","1","2","","","1049","50","3","1","win","go","0","0"
"pit-trial","171","1562043","0.0-55.0","battery-v0.2","","""event"",""trial"",""time""
""fullscreenenter"",""1"",""1494""
","
","
","""event"",""trial"",""time""
""fullscreenenter"",""1"",""1494""
","
","","","513.3999999985099","","","15","1049","1183","m","elianto","#3366ff99","-1"," ","0","+10","[1363.699999999255]","1","2","","","1049","51","0","2","win","no-go","1","0"
"pit-trial","172","1565831","0.0-56.0","battery-v0.2","","""event"",""trial"",""time""
""fullscreenenter"",""1"",""1494""
","
","
","""event"",""trial"",""time""
""fullscreenenter"",""1"",""1494""
","
","","","933.1000000014901","","","15","1049","1183","r","elianto","#f73b6a7A"," "," ","1","0","[1783.300000000745,3226.60000000149]","2","2","","","1049","52","1","3","lose","go","0","0"
"pit-trial","173","1569688","0.0-57.0","battery-v0.2","","""event"",""trial"",""time""
""fullscreenenter"",""1"",""1494""
","
","
","""event"",""trial"",""time""
""fullscreenenter"",""1"",""1494""
","
","","","1002.0999999977648","","","15","1049","1183","r","elianto","#f73b6a7A"," "," ","1","0","[1852.199999999255]","1","2","","","1049","53","1","3","lose","go","0","0"
"pit-trial","174","1573240","0.0-58.0","battery-v0.2","","""event"",""trial"",""time""
""fullscreenenter"",""1"",""1494""
","
","
","""event"",""trial"",""time""
""fullscreenenter"",""1"",""1494""
","
","","","697.5","","","15","1049","1183","z","elianto","#f73b6a7A"," "," ","1","-10","[769.8000000007451,1547.800000000745]","2","2","","","1049","54","4","3","lose","go","1","0"
"pit-trial","175","1578095","0.0-59.0","battery-v0.2","","""event"",""trial"",""time""
""fullscreenenter"",""1"",""1494""
","
","
","""event"",""trial"",""time""
""fullscreenenter"",""1"",""1494""
","
","","","-1","","","15","1049","1183","c","elianto","#f73b6a7A","-1","-1","1","0","[]","0","2","","","1049","55","5","4","lose","no-go","0","0"
"pit-trial","176","1582221","0.0-60.0","battery-v0.2","","""event"",""trial"",""time""
""fullscreenenter"",""1"",""1494""
","
","
","""event"",""trial"",""time""
""fullscreenenter"",""1"",""1494""
","
","","","1269.5","","","15","1049","1183","y","elianto","#f73b6a7A","-1"," ","0","-10","[2121.099999997765]","1","2","","","1049","56","2","4","lose","no-go","0","0"
"pit-trial","177","1586502","0.0-61.0","battery-v0.2","","""event"",""trial"",""time""
""fullscreenenter"",""1"",""1494""
","
","
","""event"",""trial"",""time""
""fullscreenenter"",""1"",""1494""
","
","","","1426.300000000745","","","15","1049","1183","y","elianto","#f73b6a7A","-1"," ","0","-10","[2276.39999999851]","1","2","","","1049","57","2","4","lose","no-go","0","0"
"pit-trial","178","1590909","0.0-62.0","battery-v0.2","","""event"",""trial"",""time""
""fullscreenenter"",""1"",""1494""
","
","
","""event"",""trial"",""time""
""fullscreenenter"",""1"",""1494""
","
","","","1551.7000000029802","","","15","1049","1183","c","elianto","#f73b6a7A","-1"," ","0","-10","[2401.699999999255]","1","2","","","1049","58","5","4","lose","no-go","0","0"
"pit-trial","179","1595764","0.0-63.0","battery-v0.2","","""event"",""trial"",""time""
""fullscreenenter"",""1"",""1494""
","
","
","""event"",""trial"",""time""
""fullscreenenter"",""1"",""1494""
","
","","","-1","","","15","1049","1183","r","elianto","#f73b6a7A"," ","-1","0","-10","[]","0","2","","","1049","59","1","3","lose","go","0","0"
"pit-trial","180","1600618","0.0-64.0","battery-v0.2","","""event"",""trial"",""time""
""fullscreenenter"",""1"",""1494""
","
","
","""event"",""trial"",""time""
""fullscreenenter"",""1"",""1494""
","
","","","-1","","","15","1049","1183","z","elianto","#f73b6a7A"," ","-1","0","-10","[]","0","2","","","1049","60","4","3","lose","go","0","0"
"pit-trial","181","1605474","0.0-65.0","battery-v0.2","","""event"",""trial"",""time""
""fullscreenenter"",""1"",""1494""
","
","
","""event"",""trial"",""time""
""fullscreenenter"",""1"",""1494""
","
","","","-1","","","15","1049","1183","y","elianto","#f73b6a7A","-1","-1","1","0","[]","0","2","","","1049","61","2","4","lose","no-go","0","0"
"pit-trial","182","1610329","0.0-66.0","battery-v0.2","","""event"",""trial"",""time""
""fullscreenenter"",""1"",""1494""
","
","
","""event"",""trial"",""time""
""fullscreenenter"",""1"",""1494""
","
","","","-1","","","15","1049","1183","z","elianto","#f73b6a7A"," ","-1","0","-10","[]","0","2","","","1049","62","4","3","lose","go","0","0"
"pit-trial","183","1615185","0.0-67.0","battery-v0.2","","""event"",""trial"",""time""
""fullscreenenter"",""1"",""1494""
","
","
","""event"",""trial"",""time""
""fullscreenenter"",""1"",""1494""
","
","","","-1","","","15","1049","1183","c","elianto","#f73b6a7A","-1","-1","1","0","[]","0","2","","","1049","63","5","4","lose","no-go","0","0"
"pit-trial","184","1618663","0.0-68.0","battery-v0.2","","""event"",""trial"",""time""
""fullscreenenter"",""1"",""1494""
","
","
","""event"",""trial"",""time""
""fullscreenenter"",""1"",""1494""
","
","","","623.9000000022352","","","15","1049","1183","b","elianto","#3366ff99","-1"," ","0","0","[1474]","1","2","","","1049","64","6","2","win","no-go","0","0"
"pit-trial","185","1622146","0.0-69.0","battery-v0.2","","""event"",""trial"",""time""
""fullscreenenter"",""1"",""1494""
","
","
","""event"",""trial"",""time""
""fullscreenenter"",""1"",""1494""
","
","","","625.8999999985099","","","15","1049","1183","y","elianto","#f73b6a7A","-1"," ","0","0","[1477.7999999970198]","1","2","","","1049","65","2","4","lose","no-go","1","0"
"pit-trial","186","1625761","0.0-70.0","battery-v0.2","","""event"",""trial"",""time""
""fullscreenenter"",""1"",""1494""
","
","
","""event"",""trial"",""time""
""fullscreenenter"",""1"",""1494""
","
","","","755.1999999992549","","","15","1049","1183","b","elianto","#3366ff99","-1"," ","0","+10","[1609.1000000014901]","1","2","","","1049","66","6","2","win","no-go","1","0"
"pit-trial","187","1630616","0.0-71.0","battery-v0.2","","""event"",""trial"",""time""
""fullscreenenter"",""1"",""1494""
","
","
","""event"",""trial"",""time""
""fullscreenenter"",""1"",""1494""
","
","","","-1","","","15","1049","1183","z","elianto","#f73b6a7A"," ","-1","0","-10","[]","0","2","","","1049","67","4","3","lose","go","0","0"
"pit-trial","188","1634286","0.0-72.0","battery-v0.2","","""event"",""trial"",""time""
""fullscreenenter"",""1"",""1494""
","
","
","""event"",""trial"",""time""
""fullscreenenter"",""1"",""1494""
","
","","","814.8999999985099","","","15","1049","1183","c","elianto","#f73b6a7A","-1"," ","0","-10","[1664.9000000022352]","1","2","","","1049","68","5","4","lose","no-go","0","0"
"pit-trial","189","1637877","0.0-73.0","battery-v0.2","","""event"",""trial"",""time""
""fullscreenenter"",""1"",""1494""
","
","
","""event"",""trial"",""time""
""fullscreenenter"",""1"",""1494""
","
","","","735.3999999985099","","","15","1049","1183","c","elianto","#f73b6a7A","-1"," ","0","-10","[1585.5]","1","2","","","1049","69","5","4","lose","no-go","0","0"
"pit-trial","190","1642732","0.0-74.0","battery-v0.2","","""event"",""trial"",""time""
""fullscreenenter"",""1"",""1494""
","
","
","""event"",""trial"",""time""
""fullscreenenter"",""1"",""1494""
","
","","","-1","","","15","1049","1183","z","elianto","#f73b6a7A"," ","-1","0","-10","[]","0","2","","","1049","70","4","3","lose","go","0","0"
"pit-trial","191","1646166","0.0-75.0","battery-v0.2","","""event"",""trial"",""time""
""fullscreenenter"",""1"",""1494""
","
","
","""event"",""trial"",""time""
""fullscreenenter"",""1"",""1494""
","
","","","578.6000000014901","","","15","1049","1183","t","elianto","#3366ff99"," "," ","1","+10","[1429.5]","1","2","","","1049","71","7","1","win","go","0","0"
"pit-trial","192","1649603","0.0-76.0","battery-v0.2","","""event"",""trial"",""time""
""fullscreenenter"",""1"",""1494""
","
","
","""event"",""trial"",""time""
""fullscreenenter"",""1"",""1494""
","
","","","581.9000000022352","","","15","1049","1183","b","elianto","#3366ff99","-1"," ","0","+10","[1432.1000000014901,2411.900000002235]","2","2","","","1049","72","6","2","win","no-go","1","0"
"pit-trial","193","1653066","0.0-77.0","battery-v0.2","","""event"",""trial"",""time""
""fullscreenenter"",""1"",""1494""
","
","
","""event"",""trial"",""time""
""fullscreenenter"",""1"",""1494""
","
","","","607.5","","","15","1049","1183","b","elianto","#3366ff99","-1"," ","0","0","[1457.699999999255]","1","2","","","1049","73","6","2","win","no-go","0","0"
"pit-trial","194","1656875","0.0-78.0","battery-v0.2","","""event"",""trial"",""time""
""fullscreenenter"",""1"",""1494""
","
","
","""event"",""trial"",""time""
""fullscreenenter"",""1"",""1494""
","
","","","952.8000000007451","","","15","1049","1183","c","elianto","#f73b6a7A","-1"," ","0","0","[1803.1000000014901]","1","2","","","1049","74","5","4","lose","no-go","1","0"
"pit-trial","195","1660602","0.0-79.0","battery-v0.2","","""event"",""trial"",""time""
""fullscreenenter"",""1"",""1494""
","
","
","""event"",""trial"",""time""
""fullscreenenter"",""1"",""1494""
","
","","","871.8999999985099","","","15","1049","1183","t","elianto","#3366ff99"," "," ","1","+10","[64.30000000074506,1722.0999999977648]","2","2","","","1049","75","7","1","win","go","0","0"
"pit-trial","196","1664635","0.0-80.0","battery-v0.2","","""event"",""trial"",""time""
""fullscreenenter"",""1"",""1494""
","
","
","""event"",""trial"",""time""
""fullscreenenter"",""1"",""1494""
","
","","","1178.199999999255","","","15","1049","1183","z","elianto","#f73b6a7A"," "," ","1","0","[2028.300000000745]","1","2","","","1049","76","4","3","lose","go","0","0"
"pit-trial","197","1669492","0.0-81.0","battery-v0.2","","""event"",""trial"",""time""
""fullscreenenter"",""1"",""1494""
","
","
","""event"",""trial"",""time""
""fullscreenenter"",""1"",""1494""
","
","","","-1","","","15","1049","1183","c","elianto","#f73b6a7A","-1","-1","1","0","[]","0","2","","","1049","77","5","4","lose","no-go","0","0"
"pit-trial","198","1673302","0.0-82.0","battery-v0.2","","""event"",""trial"",""time""
""fullscreenenter"",""1"",""1494""
","
","
","""event"",""trial"",""time""
""fullscreenenter"",""1"",""1494""
","
","","","954.2999999970198","","","15","1049","1183","z","elianto","#f73b6a7A"," "," ","1","0","[1804.5]","1","2","","","1049","78","4","3","lose","go","0","0"
"pit-trial","199","1676581","0.0-83.0","battery-v0.2","","""event"",""trial"",""time""
""fullscreenenter"",""1"",""1494""
","
","
","""event"",""trial"",""time""
""fullscreenenter"",""1"",""1494""
","
","","","425.20000000298023","","","15","1049","1183","t","elianto","#3366ff99"," "," ","1","+10","[1275.300000000745]","1","2","","","1049","79","7","1","win","go","0","0"
"pit-trial","200","1680227","0.0-84.0","battery-v0.2","","""event"",""trial"",""time""
""fullscreenenter"",""1"",""1494""
","
","
","""event"",""trial"",""time""
""fullscreenenter"",""1"",""1494""
","
","","","791.4000000022352","","","15","1049","1183","b","elianto","#3366ff99","-1"," ","0","0","[1641.5]","1","2","","","1049","80","6","2","win","no-go","0","0"
"pit-trial","201","1683921","0.0-85.0","battery-v0.2","","""event"",""trial"",""time""
""fullscreenenter"",""1"",""1494""
","
","
","""event"",""trial"",""time""
""fullscreenenter"",""1"",""1494""
","
","","","839.6999999992549","","","15","1049","1183","b","elianto","#3366ff99","-1"," ","0","+10","[227.5,1689.8999999985099,2980.39999999851]","3","2","","","1049","81","6","2","win","no-go","1","0"
"pit-trial","202","1687359","0.0-86.0","battery-v0.2","","""event"",""trial"",""time""
""fullscreenenter"",""1"",""1494""
","
","
","""event"",""trial"",""time""
""fullscreenenter"",""1"",""1494""
","
","","","584.1000000014901","","","15","1049","1183","z","elianto","#f73b6a7A"," "," ","1","0","[1434.3999999985099]","1","2","","","1049","82","4","3","lose","go","0","0"
"pit-trial","203","1692213","0.0-87.0","battery-v0.2","","""event"",""trial"",""time""
""fullscreenenter"",""1"",""1494""
","
","
","""event"",""trial"",""time""
""fullscreenenter"",""1"",""1494""
","
","","","-1","","","15","1049","1183","t","elianto","#3366ff99"," ","-1","0","0","[3162.39999999851]","1","2","","","1049","83","7","1","win","go","0","0"
"pit-trial","204","1695428","0.0-88.0","battery-v0.2","","""event"",""trial"",""time""
""fullscreenenter"",""1"",""1494""
","
","
","""event"",""trial"",""time""
""fullscreenenter"",""1"",""1494""
","
","","","360.8999999985099","","","15","1049","1183","c","elianto","#f73b6a7A","-1"," ","0","-10","[1211.199999999255]","1","2","","","1049","84","5","4","lose","no-go","0","0"
"pit-trial","205","1700282","0.0-89.0","battery-v0.2","","""event"",""trial"",""time""
""fullscreenenter"",""1"",""1494""
","
","
","""event"",""trial"",""time""
""fullscreenenter"",""1"",""1494""
","
","","","-1","","","15","1049","1183","c","elianto","#f73b6a7A","-1","-1","1","0","[]","0","2","","","1049","85","5","4","lose","no-go","0","0"
"pit-trial","206","1703906","0.0-90.0","battery-v0.2","","""event"",""trial"",""time""
""fullscreenenter"",""1"",""1494""
","
","
","""event"",""trial"",""time""
""fullscreenenter"",""1"",""1494""
","
","","","766.6000000014901","","","15","1049","1183","t","elianto","#3366ff99"," "," ","1","0","[1618.9000000022352]","1","2","","","1049","86","7","1","win","go","1","0"
"pit-trial","207","1707305","0.0-91.0","battery-v0.2","","""event"",""trial"",""time""
""fullscreenenter"",""1"",""1494""
","
","
","""event"",""trial"",""time""
""fullscreenenter"",""1"",""1494""
","
","","","545","","","15","1049","1183","b","elianto","#3366ff99","-1"," ","0","0","[1395.2000000029802]","1","2","","","1049","87","6","2","win","no-go","0","0"
"pit-trial","208","1710166","0.0-92.0","battery-v0.2","","""event"",""trial"",""time""
""fullscreenenter"",""1"",""1494""
","
","
","""event"",""trial"",""time""
""fullscreenenter"",""1"",""1494""
","
","","","7.800000000745058","","","15","1049","1183","z","elianto","#f73b6a7A"," "," ","1","0","[857.8000000007451]","1","2","","","1049","88","4","3","lose","go","0","0"
"pit-trial","209","1713183","0.0-93.0","battery-v0.2","","""event"",""trial"",""time""
""fullscreenenter"",""1"",""1494""
","
","
","""event"",""trial"",""time""
""fullscreenenter"",""1"",""1494""
","
","","","160.10000000149012","","","15","1049","1183","b","elianto","#3366ff99","-1"," ","0","0","[1012]","1","2","","","1049","89","6","2","win","no-go","0","0"
"pit-trial","210","1717802","0.0-94.0","battery-v0.2","","""event"",""trial"",""time""
""fullscreenenter"",""1"",""1494""
","
","
","""event"",""trial"",""time""
""fullscreenenter"",""1"",""1494""
","
","","","1763.699999999255","","","15","1049","1183","t","elianto","#3366ff99"," "," ","1","+10","[2613.699999999255]","1","2","","","1049","90","7","1","win","go","0","0"
"pit-trial","211","1720910","0.0-95.0","battery-v0.2","","""event"",""trial"",""time""
""fullscreenenter"",""1"",""1494""
","
","
","""event"",""trial"",""time""
""fullscreenenter"",""1"",""1494""
","
","","","253.89999999850988","","","15","1049","1183","c","elianto","#f73b6a7A","-1"," ","0","-10","[1104.5,3000.10000000149]","2","2","","","1049","91","5","4","lose","no-go","0","0"
"pit-trial","212","1724006","0.0-96.0","battery-v0.2","","""event"",""trial"",""time""
""fullscreenenter"",""1"",""1494""
","
","
","""event"",""trial"",""time""
""fullscreenenter"",""1"",""1494""
","
","","","240.69999999925494","","","15","1049","1183","z","elianto","#f73b6a7A"," "," ","1","-10","[1090.7999999970198]","1","2","","","1049","92","4","3","lose","go","1","0"
"pit-trial","213","1728861","0.0-97.0","battery-v0.2","","""event"",""trial"",""time""
""fullscreenenter"",""1"",""1494""
","
","
","""event"",""trial"",""time""
""fullscreenenter"",""1"",""1494""
","
","","","-1","","","15","1049","1183","z","elianto","#f73b6a7A"," ","-1","0","-10","[3832]","1","2","","","1049","93","4","3","lose","go","0","0"
"pit-trial","214","1732392","0.0-98.0","battery-v0.2","","""event"",""trial"",""time""
""fullscreenenter"",""1"",""1494""
","
","
","""event"",""trial"",""time""
""fullscreenenter"",""1"",""1494""
","
","","","675.8999999985099","","","15","1049","1183","x","elianto","#3366ff99"," "," ","1","+10","[1526.0999999977648]","1","2","","","1049","94","8","1","win","go","0","0"
"pit-trial","215","1735844","0.0-99.0","battery-v0.2","","""event"",""trial"",""time""
""fullscreenenter"",""1"",""1494""
","
","
","""event"",""trial"",""time""
""fullscreenenter"",""1"",""1494""
","
","","","597.9000000022352","","","15","1049","1183","t","elianto","#3366ff99"," "," ","1","+10","[1448.1000000014901]","1","2","","","1049","95","7","1","win","go","0","0"
"pit-trial","216","1739219","0.0-100.0","battery-v0.2","","""event"",""trial"",""time""
""fullscreenenter"",""1"",""1494""
","
","
","""event"",""trial"",""time""
""fullscreenenter"",""1"",""1494""
","
","","","519.9000000022352","","","15","1049","1183","b","elianto","#3366ff99","-1"," ","0","+10","[1370.1000000014901]","1","2","","","1049","96","6","2","win","no-go","1","0"
"pit-trial","217","1742616","0.0-101.0","battery-v0.2","","""event"",""trial"",""time""
""fullscreenenter"",""1"",""1494""
","
","
","""event"",""trial"",""time""
""fullscreenenter"",""1"",""1494""
","
","","","541.5999999977648","","","15","1049","1183","x","elianto","#3366ff99"," "," ","1","+10","[1392]","1","2","","","1049","97","8","1","win","go","0","0"
"pit-trial","218","1747471","0.0-102.0","battery-v0.2","","""event"",""trial"",""time""
""fullscreenenter"",""1"",""1494""
","
","
","""event"",""trial"",""time""
""fullscreenenter"",""1"",""1494""
","
","","","-1","","","15","1049","1183","z","elianto","#f73b6a7A"," ","-1","0","0","[]","0","2","","","1049","98","4","3","lose","go","1","0"
"pit-trial","219","1751689","0.0-103.0","battery-v0.2","","""event"",""trial"",""time""
""fullscreenenter"",""1"",""1494""
","
","
","""event"",""trial"",""time""
""fullscreenenter"",""1"",""1494""
","
","","","1363.800000000745","","","15","1049","1183","b","elianto","#3366ff99","-1"," ","0","0","[2213.89999999851]","1","2","","","1049","99","6","2","win","no-go","0","0"
"pit-trial","220","1755125","0.0-104.0","battery-v0.2","","""event"",""trial"",""time""
""fullscreenenter"",""1"",""1494""
","
","
","""event"",""trial"",""time""
""fullscreenenter"",""1"",""1494""
","
","","","581.0999999977648","","","15","1049","1183","t","elianto","#3366ff99"," "," ","1","+10","[1431.300000000745]","1","2","","","1049","100","7","1","win","go","0","0"
"pit-trial","221","1758496","0.0-105.0","battery-v0.2","","""event"",""trial"",""time""
""fullscreenenter"",""1"",""1494""
","
","
","""event"",""trial"",""time""
""fullscreenenter"",""1"",""1494""
","
","","","515.8999999985099","","","15","1049","1183","b","elianto","#3366ff99","-1"," ","0","+10","[739.8999999985099,1366]","2","2","","","1049","101","6","2","win","no-go","1","0"
"pit-trial","222","1762627","0.0-106.0","battery-v0.2","","""event"",""trial"",""time""
""fullscreenenter"",""1"",""1494""
","
","
","""event"",""trial"",""time""
""fullscreenenter"",""1"",""1494""
","
","","","1276.199999999255","","","15","1049","1183","t","elianto","#3366ff99"," "," ","1","0","[219.80000000074506,2126.39999999851]","2","2","","","1049","102","7","1","win","go","1","0"
"pit-trial","223","1765552","0.0-107.0","battery-v0.2","","""event"",""trial"",""time""
""fullscreenenter"",""1"",""1494""
","
","
","""event"",""trial"",""time""
""fullscreenenter"",""1"",""1494""
","
","","","69.90000000223517","","","15","1049","1183","f","elianto","#3366ff99","-1"," ","0","0","[920.3000000007451]","1","2","","","1049","103","9","2","win","no-go","0","0"
"pit-trial","224","1769524","0.0-108.0","battery-v0.2","","""event"",""trial"",""time""
""fullscreenenter"",""1"",""1494""
","
","
","""event"",""trial"",""time""
""fullscreenenter"",""1"",""1494""
","
","","","1116","","","15","1049","1183","x","elianto","#3366ff99"," "," ","1","+10","[1968,2332.300000000745,2615.699999999255]","3","2","","","1049","104","8","1","win","go","0","0"
"pit-trial","225","1773128","0.0-109.0","battery-v0.2","","""event"",""trial"",""time""
""fullscreenenter"",""1"",""1494""
","
","
","""event"",""trial"",""time""
""fullscreenenter"",""1"",""1494""
","
","","","749","","","15","1049","1183","x","elianto","#3366ff99"," "," ","1","+10","[1599,2592.699999999255]","2","2","","","1049","105","8","1","win","go","0","0"
"pit-trial","226","1777490","0.0-110.0","battery-v0.2","","""event"",""trial"",""time""
""fullscreenenter"",""1"",""1494""
","
","
","""event"",""trial"",""time""
""fullscreenenter"",""1"",""1494""
","
","","","1506.8999999985099","","","15","1049","1183","b","elianto","#3366ff99","-1"," ","0","0","[2357]","1","2","","","1049","106","6","2","win","no-go","0","0"
"pit-trial","227","1781642","0.0-111.0","battery-v0.2","","""event"",""trial"",""time""
""fullscreenenter"",""1"",""1494""
","
","
","""event"",""trial"",""time""
""fullscreenenter"",""1"",""1494""
","
","","","1296.2999999970198","","","15","1049","1183","t","elianto","#3366ff99"," "," ","1","0","[2146.5]","1","2","","","1049","107","7","1","win","go","1","0"
"pit-trial","228","1784587","0.0-112.0","battery-v0.2","","""event"",""trial"",""time""
""fullscreenenter"",""1"",""1494""
","
","
","""event"",""trial"",""time""
""fullscreenenter"",""1"",""1494""
","
","","","90.69999999925494","","","15","1049","1183","f","elianto","#3366ff99","-1"," ","0","0","[941]","1","2","","","1049","108","9","2","win","no-go","0","0"
"pit-trial","229","1789173","0.0-113.0","battery-v0.2","","""event"",""trial"",""time""
""fullscreenenter"",""1"",""1494""
","
","
","""event"",""trial"",""time""
""fullscreenenter"",""1"",""1494""
","
","","","1730.0999999977648","","","15","1049","1183","q","elianto","#f73b6a7A","-1"," ","0","-10","[2580.099999997765]","1","2","","","1049","109","11","4","lose","no-go","0","0"
"pit-trial","230","1792615","0.0-114.0","battery-v0.2","","""event"",""trial"",""time""
""fullscreenenter"",""1"",""1494""
","
","
","""event"",""trial"",""time""
""fullscreenenter"",""1"",""1494""
","
","","","586.1999999992549","","","15","1049","1183","f","elianto","#3366ff99","-1"," ","0","0","[1436.2999999970198,2746.5]","2","2","","","1049","110","9","2","win","no-go","0","0"
"pit-trial","231","1795902","0.0-115.0","battery-v0.2","","""event"",""trial"",""time""
""fullscreenenter"",""1"",""1494""
","
","
","""event"",""trial"",""time""
""fullscreenenter"",""1"",""1494""
","
","","","430.79999999701977","","","15","1049","1183","n","elianto","#f73b6a7A"," "," ","1","-10","[1281]","1","2","","","1049","111","10","3","lose","go","1","0"
"pit-trial","232","1800757","0.0-116.0","battery-v0.2","","""event"",""trial"",""time""
""fullscreenenter"",""1"",""1494""
","
","
","""event"",""trial"",""time""
""fullscreenenter"",""1"",""1494""
","
","","","-1","","","15","1049","1183","x","elianto","#3366ff99"," ","-1","0","0","[420.19999999925494,3124.300000000745]","2","2","","","1049","112","8","1","win","go","0","0"
"pit-trial","233","1804640","0.0-117.0","battery-v0.2","","""event"",""trial"",""time""
""fullscreenenter"",""1"",""1494""
","
","
","""event"",""trial"",""time""
""fullscreenenter"",""1"",""1494""
","
","","","1026.6000000014901","","","15","1049","1183","q","elianto","#f73b6a7A","-1"," ","0","-10","[1876.9000000022352]","1","2","","","1049","113","11","4","lose","no-go","0","0"
"pit-trial","234","1809495","0.0-118.0","battery-v0.2","","""event"",""trial"",""time""
""fullscreenenter"",""1"",""1494""
","
","
","""event"",""trial"",""time""
""fullscreenenter"",""1"",""1494""
","
","","","-1","","","15","1049","1183","x","elianto","#3366ff99"," ","-1","0","0","[4309.300000000745]","1","2","","","1049","114","8","1","win","go","0","0"
"pit-trial","235","1812722","0.0-119.0","battery-v0.2","","""event"",""trial"",""time""
""fullscreenenter"",""1"",""1494""
","
","
","""event"",""trial"",""time""
""fullscreenenter"",""1"",""1494""
","
","","","368.80000000074506","","","15","1049","1183","n","elianto","#f73b6a7A"," "," ","1","0","[1219.199999999255]","1","2","","","1049","115","10","3","lose","go","0","0"
"pit-trial","236","1816243","0.0-120.0","battery-v0.2","","""event"",""trial"",""time""
""fullscreenenter"",""1"",""1494""
","
","
","""event"",""trial"",""time""
""fullscreenenter"",""1"",""1494""
","
","","","665","","","15","1049","1183","f","elianto","#3366ff99","-1"," ","0","0","[84.19999999925494,1515.699999999255]","2","2","","","1049","116","9","2","win","no-go","0","0"
"pit-trial","237","1819640","0.0-121.0","battery-v0.2","","""event"",""trial"",""time""
""fullscreenenter"",""1"",""1494""
","
","
","""event"",""trial"",""time""
""fullscreenenter"",""1"",""1494""
","
","","","541.6999999992549","","","15","1049","1183","n","elianto","#f73b6a7A"," "," ","1","0","[267.4000000022352,1391.9000000022352]","2","2","","","1049","117","10","3","lose","go","0","0"
"pit-trial","238","1822971","0.0-122.0","battery-v0.2","","""event"",""trial"",""time""
""fullscreenenter"",""1"",""1494""
","
","
","""event"",""trial"",""time""
""fullscreenenter"",""1"",""1494""
","
","","","475.19999999925494","","","15","1049","1183","f","elianto","#3366ff99","-1"," ","0","+10","[159.59999999776483,1325.300000000745]","2","2","","","1049","118","9","2","win","no-go","1","0"
"pit-trial","239","1826144","0.0-123.0","battery-v0.2","","""event"",""trial"",""time""
""fullscreenenter"",""1"",""1494""
","
","
","""event"",""trial"",""time""
""fullscreenenter"",""1"",""1494""
","
","","","316.0999999977648","","","15","1049","1183","x","elianto","#3366ff99"," "," ","1","+10","[1167.199999999255]","1","2","","","1049","119","8","1","win","go","0","0"
"pit-trial","240","1829229","0.0-124.0","battery-v0.2","","""event"",""trial"",""time""
""fullscreenenter"",""1"",""1494""
","
","
","""event"",""trial"",""time""
""fullscreenenter"",""1"",""1494""
","
","","","229.5","","","15","1049","1183","q","elianto","#f73b6a7A","-1"," ","0","-10","[1079.699999999255]","1","2","","","1049","120","11","4","lose","no-go","0","0"
"pit-trial","241","1832407","0.0-125.0","battery-v0.2","","""event"",""trial"",""time""
""fullscreenenter"",""1"",""1494""
","
","
","""event"",""trial"",""time""
""fullscreenenter"",""1"",""1494""
","
","","","321.8999999985099","","","15","1049","1183","q","elianto","#f73b6a7A","-1"," ","0","-10","[1172]","1","2","","","1049","121","11","4","lose","no-go","0","0"
"pit-trial","242","1835799","0.0-126.0","battery-v0.2","","""event"",""trial"",""time""
""fullscreenenter"",""1"",""1494""
","
","
","""event"",""trial"",""time""
""fullscreenenter"",""1"",""1494""
","
","","","537.3000000007451","","","15","1049","1183","x","elianto","#3366ff99"," "," ","1","+10","[1387.300000000745]","1","2","","","1049","122","8","1","win","go","0","0"
"pit-trial","243","1840653","0.0-127.0","battery-v0.2","","""event"",""trial"",""time""
""fullscreenenter"",""1"",""1494""
","
","
","""event"",""trial"",""time""
""fullscreenenter"",""1"",""1494""
","
","","","-1","","","15","1049","1183","n","elianto","#f73b6a7A"," ","-1","0","-10","[3181.199999999255]","1","2","","","1049","123","10","3","lose","go","0","0"
"pit-trial","244","1845135","0.0-128.0","battery-v0.2","","""event"",""trial"",""time""
""fullscreenenter"",""1"",""1494""
","
","
","""event"",""trial"",""time""
""fullscreenenter"",""1"",""1494""
","
","","","1627.3999999985099","","","15","1049","1183","f","elianto","#3366ff99","-1"," ","0","0","[2477.39999999851]","1","2","","","1049","124","9","2","win","no-go","0","0"
"pit-trial","245","1848609","0.0-129.0","battery-v0.2","","""event"",""trial"",""time""
""fullscreenenter"",""1"",""1494""
","
","
","""event"",""trial"",""time""
""fullscreenenter"",""1"",""1494""
","
","","","620.1999999992549","","","15","1049","1183","f","elianto","#3366ff99","-1"," ","0","+10","[1470.2000000029802]","1","2","","","1049","125","9","2","win","no-go","1","0"
"pit-trial","246","1853463","0.0-130.0","battery-v0.2","","""event"",""trial"",""time""
""fullscreenenter"",""1"",""1494""
","
","
","""event"",""trial"",""time""
""fullscreenenter"",""1"",""1494""
","
","","","-1","","","15","1049","1183","x","elianto","#3366ff99"," ","-1","0","0","[133.40000000223517]","1","2","","","1049","126","8","1","win","go","0","0"
"pit-trial","247","1856856","0.0-131.0","battery-v0.2","","""event"",""trial"",""time""
""fullscreenenter"",""1"",""1494""
","
","
","""event"",""trial"",""time""
""fullscreenenter"",""1"",""1494""
","
","","","537.3000000007451","","","15","1049","1183","q","elianto","#f73b6a7A","-1"," ","0","-10","[1387.4000000022352,2378.199999999255]","2","2","","","1049","127","11","4","lose","no-go","0","0"
"pit-trial","248","1860238","0.0-132.0","battery-v0.2","","""event"",""trial"",""time""
""fullscreenenter"",""1"",""1494""
","
","
","""event"",""trial"",""time""
""fullscreenenter"",""1"",""1494""
","
","","","527.5","","","15","1049","1183","n","elianto","#f73b6a7A"," "," ","1","0","[1378.3999999985099]","1","2","","","1049","128","10","3","lose","go","0","0"
"pit-trial","249","1863181","0.0-133.0","battery-v0.2","","""event"",""trial"",""time""
""fullscreenenter"",""1"",""1494""
","
","
","""event"",""trial"",""time""
""fullscreenenter"",""1"",""1494""
","
","","","86","","","15","1049","1183","q","elianto","#f73b6a7A","-1"," ","0","-10","[938.4000000022352]","1","2","","","1049","129","11","4","lose","no-go","0","0"
"pit-trial","250","1868036","0.0-134.0","battery-v0.2","","""event"",""trial"",""time""
""fullscreenenter"",""1"",""1494""
","
","
","""event"",""trial"",""time""
""fullscreenenter"",""1"",""1494""
","
","","","-1","","","15","1049","1183","n","elianto","#f73b6a7A"," ","-1","0","-10","[2955.699999999255]","1","2","","","1049","130","10","3","lose","go","0","0"
"pit-trial","251","1871562","0.0-135.0","battery-v0.2","","""event"",""trial"",""time""
""fullscreenenter"",""1"",""1494""
","
","
","""event"",""trial"",""time""
""fullscreenenter"",""1"",""1494""
","
","","","671.8000000007451","","","15","1049","1183","f","elianto","#3366ff99","-1"," ","0","0","[1522.199999999255,3040.199999999255]","2","2","","","1049","131","9","2","win","no-go","0","0"
"pit-trial","252","1875208","0.0-136.0","battery-v0.2","","""event"",""trial"",""time""
""fullscreenenter"",""1"",""1494""
","
","
","""event"",""trial"",""time""
""fullscreenenter"",""1"",""1494""
","
","","","791.1000000014901","","","15","1049","1183","x","elianto","#3366ff99"," "," ","1","+10","[1641.199999999255,2985]","2","2","","","1049","132","8","1","win","go","0","0"
"pit-trial","253","1878933","0.0-137.0","battery-v0.2","","""event"",""trial"",""time""
""fullscreenenter"",""1"",""1494""
","
","
","""event"",""trial"",""time""
""fullscreenenter"",""1"",""1494""
","
","","","871","","","15","1049","1183","n","elianto","#f73b6a7A"," "," ","1","0","[1721]","1","2","","","1049","133","10","3","lose","go","0","0"
"pit-trial","254","1882389","0.0-138.0","battery-v0.2","","""event"",""trial"",""time""
""fullscreenenter"",""1"",""1494""
","
","
","""event"",""trial"",""time""
""fullscreenenter"",""1"",""1494""
","
","","","602","","","15","1049","1183","q","elianto","#f73b6a7A","-1"," ","0","-10","[570.6000000014901,1452.2000000029802]","2","2","","","1049","134","11","4","lose","no-go","0","0"
"pit-trial","255","1885884","0.0-139.0","battery-v0.2","","""event"",""trial"",""time""
""fullscreenenter"",""1"",""1494""
","
","
","""event"",""trial"",""time""
""fullscreenenter"",""1"",""1494""
","
","","","638.1999999992549","","","15","1049","1183","f","elianto","#3366ff99","-1"," ","0","+10","[1490]","1","2","","","1049","135","9","2","win","no-go","1","0"
"pit-trial","256","1888906","0.0-140.0","battery-v0.2","","""event"",""trial"",""time""
""fullscreenenter"",""1"",""1494""
","
","
","""event"",""trial"",""time""
""fullscreenenter"",""1"",""1494""
","
","","","167.80000000074506","","","15","1049","1183","x","elianto","#3366ff99"," "," ","1","+10","[307.80000000074506,1018]","2","2","","","1049","136","8","1","win","go","0","0"
"pit-trial","257","1892586","0.0-141.0","battery-v0.2","","""event"",""trial"",""time""
""fullscreenenter"",""1"",""1494""
","
","
","""event"",""trial"",""time""
""fullscreenenter"",""1"",""1494""
","
","","","823.3000000007451","","","15","1049","1183","x","elianto","#3366ff99"," "," ","1","0","[1674.5]","1","2","","","1049","137","8","1","win","go","1","0"
"pit-trial","258","1895752","0.0-142.0","battery-v0.2","","""event"",""trial"",""time""
""fullscreenenter"",""1"",""1494""
","
","
","""event"",""trial"",""time""
""fullscreenenter"",""1"",""1494""
","
","","","311.19999999925494","","","15","1049","1183","n","elianto","#f73b6a7A"," "," ","1","0","[1161.5,1972.3999999985099]","2","2","","","1049","138","10","3","lose","go","0","0"
"pit-trial","259","1899054","0.0-143.0","battery-v0.2","","""event"",""trial"",""time""
""fullscreenenter"",""1"",""1494""
","
","
","""event"",""trial"",""time""
""fullscreenenter"",""1"",""1494""
","
","","","447.0999999977648","","","15","1049","1183","q","elianto","#f73b6a7A","-1"," ","0","-10","[668.5,1297.6000000014901]","2","2","","","1049","139","11","4","lose","no-go","0","0"
"pit-trial","260","1903137","0.0-144.0","battery-v0.2","","""event"",""trial"",""time""
""fullscreenenter"",""1"",""1494""
","
","
","""event"",""trial"",""time""
""fullscreenenter"",""1"",""1494""
","
","","","1228.199999999255","","","15","1049","1183","f","elianto","#3366ff99","-1"," ","0","0","[2078.39999999851]","1","2","","","1049","140","9","2","win","no-go","0","0"
"pit-instructions","261","1960752","0.0-145.0","battery-v0.2","","""event"",""trial"",""time""
""fullscreenenter"",""1"",""1494""
","
","
","""event"",""trial"",""time""
""fullscreenenter"",""1"",""1494""
","
