"trial_type","trial_index","time_elapsed","internal_node_id","task_version","view_history","rt","rune","rune_set","hex","correct","choice","accuracy","outcome","keys","total_keys","block","practice","subject","participantId","value"
"pavlovia","0","5","0.0-0.0","battery-v0.2","","","","","","","","","","","","","","","",""
"pit-instructions","1","6004","0.0-1.0-0.0","battery-v0.2","[{""page_index"":0,""viewing_time"":693.7999999523163},{""page_index"":1,""viewing_time"":183.09999990463257},{""page_index"":2,""viewing_time"":166.70000004768372},{""page_index"":3,""viewing_time"":183.90000009536743},{""page_index"":4,""viewing_time"":166.09999990463257},{""page_index"":5,""viewing_time"":183.5},{""page_index"":6,""viewing_time"":183.09999990463257},{""page_index"":7,""viewing_time"":166.40000009536743},{""page_index"":8,""viewing_time"":467.2000000476837},{""page_index"":9,""viewing_time"":199.89999985694885},{""page_index"":10,""viewing_time"":450.10000014305115},{""page_index"":11,""viewing_time"":933.3999998569489},{""page_index"":12,""viewing_time"":2017.9000000953674}]","5996.799999952316","","","","","","","","","","","","","",""
"pit-trial","2","9307","0.0-1.0-1.0-0.0","battery-v0.2","","450.40000009536743","&#9776;","elianto","#3366ff99","32","32","1","+10","839,1300.5","2","0","1","4e0e8737a0304baac70a&order=1&STUDY_ID=61caf85b4892b889f6411591","999",""
"pit-trial","3","14162","0.0-1.0-1.0-1.0","battery-v0.2","","-1","&#9776;","elianto","#3366ff99","32","-1","0","0","","0","0","1","4e0e8737a0304baac70a&order=1&STUDY_ID=61caf85b4892b889f6411591","999",""
"pit-trial","4","17045","0.0-1.0-1.0-2.0","battery-v0.2","","30.600000143051147","&#9776;","elianto","#3366ff99","32","32","1","+10","881.2999999523163,1466.5999999046326","2","0","1","4e0e8737a0304baac70a&order=1&STUDY_ID=61caf85b4892b889f6411591","999",""
"pit-trial","5","21904","0.0-1.0-1.0-3.0","battery-v0.2","","-1","&#9776;","elianto","#3366ff99","32","-1","0","+10","","0","0","1","4e0e8737a0304baac70a&order=1&STUDY_ID=61caf85b4892b889f6411591","999",""
"pit-trial","6","26025","0.0-1.0-1.0-4.0","battery-v0.2","","1266.4000000953674","&#9776;","elianto","#3366ff99","32","32","1","+10","2117.5","1","0","1","4e0e8737a0304baac70a&order=1&STUDY_ID=61caf85b4892b889f6411591","999",""
"pit-trial","7","30881","0.0-1.0-1.1-0.1","battery-v0.2","","-1","&#9776;","elianto","#3366ff99","32","-1","0","0","","0","0","1","4e0e8737a0304baac70a&order=1&STUDY_ID=61caf85b4892b889f6411591","999",""
"pit-trial","8","35734","0.0-1.0-1.1-1.1","battery-v0.2","","-1","&#9776;","elianto","#3366ff99","32","-1","0","0","","0","0","1","4e0e8737a0304baac70a&order=1&STUDY_ID=61caf85b4892b889f6411591","999",""
"pit-trial","9","40591","0.0-1.0-1.1-2.1","battery-v0.2","","-1","&#9776;","elianto","#3366ff99","32","-1","0","0","","0","0","1","4e0e8737a0304baac70a&order=1&STUDY_ID=61caf85b4892b889f6411591","999",""
"pit-trial","10","45451","0.0-1.0-1.1-3.1","battery-v0.2","","-1","&#9776;","elianto","#3366ff99","32","-1","0","+10","","0","0","1","4e0e8737a0304baac70a&order=1&STUDY_ID=61caf85b4892b889f6411591","999",""
"pit-trial","11","50307","0.0-1.0-1.1-4.1","battery-v0.2","","-1","&#9776;","elianto","#3366ff99","32","-1","0","0","","0","0","1","4e0e8737a0304baac70a&order=1&STUDY_ID=61caf85b4892b889f6411591","999",""
"pit-trial","12","55166","0.0-1.0-1.2-0.2","battery-v0.2","","-1","&#9776;","elianto","#3366ff99","32","-1","0","0","","0","0","1","4e0e8737a0304baac70a&order=1&STUDY_ID=61caf85b4892b889f6411591","999",""
"pit-trial","13","60023","0.0-1.0-1.2-1.2","battery-v0.2","","-1","&#9776;","elianto","#3366ff99","32","-1","0","0","","0","0","1","4e0e8737a0304baac70a&order=1&STUDY_ID=61caf85b4892b889f6411591","999",""
"pit-trial","14","64880","0.0-1.0-1.2-2.2","battery-v0.2","","-1","&#9776;","elianto","#3366ff99","32","-1","0","0","","0","0","1","4e0e8737a0304baac70a&order=1&STUDY_ID=61caf85b4892b889f6411591","999",""
"pit-trial","15","69736","0.0-1.0-1.2-3.2","battery-v0.2","","-1","&#9776;","elianto","#3366ff99","32","-1","0","+10","","0","0","1","4e0e8737a0304baac70a&order=1&STUDY_ID=61caf85b4892b889f6411591","999",""
"pit-trial","16","74592","0.0-1.0-1.2-4.2","battery-v0.2","","-1","&#9776;","elianto","#3366ff99","32","-1","0","0","","0","0","1","4e0e8737a0304baac70a&order=1&STUDY_ID=61caf85b4892b889f6411591","999",""
"pit-trial","17","79446","0.0-1.0-1.3-0.3","battery-v0.2","","-1","&#9776;","elianto","#3366ff99","32","-1","0","0","","0","0","1","4e0e8737a0304baac70a&order=1&STUDY_ID=61caf85b4892b889f6411591","999",""
"pit-trial","18","84301","0.0-1.0-1.3-1.3","battery-v0.2","","-1","&#9776;","elianto","#3366ff99","32","-1","0","0","","0","0","1","4e0e8737a0304baac70a&order=1&STUDY_ID=61caf85b4892b889f6411591","999",""
"pit-trial","19","89156","0.0-1.0-1.3-2.3","battery-v0.2","","-1","&#9776;","elianto","#3366ff99","32","-1","0","0","","0","0","1","4e0e8737a0304baac70a&order=1&STUDY_ID=61caf85b4892b889f6411591","999",""
"pit-trial","20","94008","0.0-1.0-1.3-3.3","battery-v0.2","","-1","&#9776;","elianto","#3366ff99","32","-1","0","+10","","0","0","1","4e0e8737a0304baac70a&order=1&STUDY_ID=61caf85b4892b889f6411591","999",""
"pit-trial","21","98866","0.0-1.0-1.3-4.3","battery-v0.2","","-1","&#9776;","elianto","#3366ff99","32","-1","0","0","","0","0","1","4e0e8737a0304baac70a&order=1&STUDY_ID=61caf85b4892b889f6411591","999",""
"pit-trial","22","103722","0.0-1.0-1.4-0.4","battery-v0.2","","-1","&#9776;","elianto","#3366ff99","32","-1","0","0","","0","0","1","4e0e8737a0304baac70a&order=1&STUDY_ID=61caf85b4892b889f6411591","999",""
"pit-trial","23","108578","0.0-1.0-1.4-1.4","battery-v0.2","","-1","&#9776;","elianto","#3366ff99","32","-1","0","0","","0","0","1","4e0e8737a0304baac70a&order=1&STUDY_ID=61caf85b4892b889f6411591","999",""
"pit-trial","24","113431","0.0-1.0-1.4-2.4","battery-v0.2","","-1","&#9776;","elianto","#3366ff99","32","-1","0","0","","0","0","1","4e0e8737a0304baac70a&order=1&STUDY_ID=61caf85b4892b889f6411591","999",""
"pit-trial","25","118284","0.0-1.0-1.4-3.4","battery-v0.2","","-1","&#9776;","elianto","#3366ff99","32","-1","0","+10","","0","0","1","4e0e8737a0304baac70a&order=1&STUDY_ID=61caf85b4892b889f6411591","999",""
"pit-trial","26","123136","0.0-1.0-1.4-4.4","battery-v0.2","","-1","&#9776;","elianto","#3366ff99","32","-1","0","0","","0","0","1","4e0e8737a0304baac70a&order=1&STUDY_ID=61caf85b4892b889f6411591","999",""
"pit-instructions","27","147305","0.0-1.0-1.4-5.4-0.4","battery-v0.2","[{""page_index"":0,""viewing_time"":5379.699999809265},{""page_index"":1,""viewing_time"":10602.300000190735},{""page_index"":2,""viewing_time"":8186.699999809265}]","24169","","","","","","","","","","","","","",""
"pit-trial","28","151331","0.0-1.0-1.5-0.5","battery-v0.2","","1173.7999999523163","&#9776;","elianto","#3366ff99","32","32","1","+10","2023.8000001907349","1","0","1","4e0e8737a0304baac70a&order=1&STUDY_ID=61caf85b4892b889f6411591","999",""
"pit-trial","29","156188","0.0-1.0-1.5-1.5","battery-v0.2","","-1","&#9776;","elianto","#3366ff99","32","-1","0","0","","0","0","1","4e0e8737a0304baac70a&order=1&STUDY_ID=61caf85b4892b889f6411591","999",""
"pit-trial","30","161041","0.0-1.0-1.5-2.5","battery-v0.2","","-1","&#9776;","elianto","#3366ff99","32","-1","0","0","","0","0","1","4e0e8737a0304baac70a&order=1&STUDY_ID=61caf85b4892b889f6411591","999",""
"pit-trial","31","165893","0.0-1.0-1.5-3.5","battery-v0.2","","-1","&#9776;","elianto","#3366ff99","32","-1","0","+10","","0","0","1","4e0e8737a0304baac70a&order=1&STUDY_ID=61caf85b4892b889f6411591","999",""
"pit-trial","32","170747","0.0-1.0-1.5-4.5","battery-v0.2","","-1","&#9776;","elianto","#3366ff99","32","-1","0","0","","0","0","1","4e0e8737a0304baac70a&order=1&STUDY_ID=61caf85b4892b889f6411591","999",""
"call-function","33","170748","0.0-1.0-2.0","battery-v0.2","","","","","","","","","","","","","","","",""
