"trial_type","trial_index","time_elapsed","internal_node_id","task_version","success","view_history","rt","rune","rune_set","hex","correct","choice","accuracy","outcome","keys","total_keys","block","practice","subject","participantId","value","responses","num_errors","sub","trial","stimulus","robot","valence","action","sham"
"pavlovia","0","25","0.0-0.0","battery-v0.2","","","","","","","","","","","","","","","","","","","","","","","","","",""
"fullscreen","1","3780","0.0-1.0","battery-v0.2","true","","","","","","","","","","","","","","","","","","","","","","","","",""
"pit-instructions","2","106022","0.0-2.0-0.0","battery-v0.2","","[{""page_index"":0,""viewing_time"":3807.800000011921},{""page_index"":1,""viewing_time"":8035},{""page_index"":2,""viewing_time"":4132.9000000059605},{""page_index"":3,""viewing_time"":6544.199999988079},{""page_index"":4,""viewing_time"":4415.700000017881},{""page_index"":5,""viewing_time"":2944.199999988079},{""page_index"":6,""viewing_time"":6848.199999988079},{""page_index"":7,""viewing_time"":6105},{""page_index"":8,""viewing_time"":6116.600000023842},{""page_index"":9,""viewing_time"":5262.299999982119},{""page_index"":10,""viewing_time"":1935.2000000178814},{""page_index"":11,""viewing_time"":3010.699999988079},{""page_index"":12,""viewing_time"":3891.9000000059605},{""page_index"":13,""viewing_time"":5066.0999999940395},{""page_index"":14,""viewing_time"":17565.59999999404},{""page_index"":15,""viewing_time"":3708.300000011921},{""page_index"":16,""viewing_time"":7845.0999999940395},{""page_index"":17,""viewing_time"":5002.9000000059605}]","102238.80000001192","","","","","","","","","","","","","","","","","","","","","","",""
"pit-trial","3","109703","0.0-2.0-1.0-0.0","battery-v0.2","","","825.5","&#9776;","elianto","#3366ff99","32","32","1","+10","1677.0999999940395","1","0","1","6166587899ecb8510945b094&order=1&STUDY_ID=61caf85b4892b889f6411591","999","","","","","","","","","",""
"pit-trial","4","113001","0.0-2.0-1.0-1.0","battery-v0.2","","","441.90000000596046","&#9776;","elianto","#3366ff99","32","32","1","+10","1294.6000000238419","1","0","1","6166587899ecb8510945b094&order=1&STUDY_ID=61caf85b4892b889f6411591","999","","","","","","","","","",""
"pit-trial","5","116958","0.0-2.0-1.0-2.0","battery-v0.2","","","1101.3999999761581","&#9776;","elianto","#3366ff99","32","32","1","+10","1952.5999999940395","1","0","1","6166587899ecb8510945b094&order=1&STUDY_ID=61caf85b4892b889f6411591","999","","","","","","","","","",""
"pit-trial","6","120484","0.0-2.0-1.0-3.0","battery-v0.2","","","671.3000000119209","&#9776;","elianto","#3366ff99","32","32","1","0","1522.2000000178814","1","0","1","6166587899ecb8510945b094&order=1&STUDY_ID=61caf85b4892b889f6411591","999","","","","","","","","","",""
"pit-trial","7","124145","0.0-2.0-1.0-4.0","battery-v0.2","","","806.5999999940395","&#9776;","elianto","#3366ff99","32","32","1","+10","1657","1","0","1","6166587899ecb8510945b094&order=1&STUDY_ID=61caf85b4892b889f6411591","999","","","","","","","","","",""
"call-function","8","124151","0.0-2.0-2.0","battery-v0.2","","","","","","","","","","","","","","","","","","","","","","","","","",""
"pit-instructions","9","147578","0.0-2.0-3.0","battery-v0.2","","[{""page_index"":0,""viewing_time"":7518.9000000059605},{""page_index"":1,""viewing_time"":4350.5},{""page_index"":2,""viewing_time"":6611.5},{""page_index"":3,""viewing_time"":4944}]","23425.30000001192","","","","","","","","","","","","","","","","","","","","","","",""
"pit-trial","10","151563","0.0-2.0-4.0-0.0","battery-v0.2","","","1131.9000000059605","&#9761;","elianto","#3366ff99","-1","32","0","0","1982.4000000059605","1","0","2","6166587899ecb8510945b094&order=1&STUDY_ID=61caf85b4892b889f6411591","999","","","","","","","","","",""
"pit-trial","11","155585","0.0-2.0-4.0-1.0","battery-v0.2","","","1165.9000000059605","&#9761;","elianto","#3366ff99","-1","32","0","0","2017.2999999821186","1","0","2","6166587899ecb8510945b094&order=1&STUDY_ID=61caf85b4892b889f6411591","999","","","","","","","","","",""
"pit-trial","12","160441","0.0-2.0-4.0-2.0","battery-v0.2","","","-1","&#9761;","elianto","#3366ff99","-1","-1","1","+10","","0","0","2","6166587899ecb8510945b094&order=1&STUDY_ID=61caf85b4892b889f6411591","999","","","","","","","","","",""
"pit-trial","13","165296","0.0-2.0-4.0-3.0","battery-v0.2","","","-1","&#9761;","elianto","#3366ff99","-1","-1","1","+10","","0","0","2","6166587899ecb8510945b094&order=1&STUDY_ID=61caf85b4892b889f6411591","999","","","","","","","","","",""
"pit-trial","14","170151","0.0-2.0-4.0-4.0","battery-v0.2","","","-1","&#9761;","elianto","#3366ff99","-1","-1","1","0","","0","0","2","6166587899ecb8510945b094&order=1&STUDY_ID=61caf85b4892b889f6411591","999","","","","","","","","","",""
"call-function","15","170156","0.0-2.0-5.0","battery-v0.2","","","","","","","","","","","","","","","","","","","","","","","","","",""
"pit-instructions","16","183986","0.0-2.0-6.0","battery-v0.2","","[{""page_index"":0,""viewing_time"":7026.199999988079},{""page_index"":1,""viewing_time"":6801.5}]","13828.09999999404","","","","","","","","","","","","","","","","","","","","","","",""
"pit-trial","17","187448","0.0-2.0-7.0-0.0","battery-v0.2","","","607","&#9826;","elianto","#f73b6a7A","-1","32","0","-10","1458.800000011921","1","0","3","6166587899ecb8510945b094&order=1&STUDY_ID=61caf85b4892b889f6411591","999","","","","","","","","","",""
"pit-trial","18","192304","0.0-2.0-7.0-1.0","battery-v0.2","","","-1","&#9826;","elianto","#f73b6a7A","-1","-1","1","0","","0","0","3","6166587899ecb8510945b094&order=1&STUDY_ID=61caf85b4892b889f6411591","999","","","","","","","","","",""
"pit-trial","19","197159","0.0-2.0-7.0-2.0","battery-v0.2","","","-1","&#9826;","elianto","#f73b6a7A","-1","-1","1","-10","","0","0","3","6166587899ecb8510945b094&order=1&STUDY_ID=61caf85b4892b889f6411591","999","","","","","","","","","",""
"pit-trial","20","202014","0.0-2.0-7.0-3.0","battery-v0.2","","","-1","&#9826;","elianto","#f73b6a7A","-1","-1","1","0","","0","0","3","6166587899ecb8510945b094&order=1&STUDY_ID=61caf85b4892b889f6411591","999","","","","","","","","","",""
"pit-trial","21","206869","0.0-2.0-7.0-4.0","battery-v0.2","","","-1","&#9826;","elianto","#f73b6a7A","-1","-1","1","0","","0","0","3","6166587899ecb8510945b094&order=1&STUDY_ID=61caf85b4892b889f6411591","999","","","","","","","","","",""
"call-function","22","206873","0.0-2.0-8.0","battery-v0.2","","","","","","","","","","","","","","","","","","","","","","","","","",""
"pit-instructions","23","217865","0.0-2.0-9.0","battery-v0.2","","[{""page_index"":0,""viewing_time"":6211.699999988079},{""page_index"":1,""viewing_time"":4779.9000000059605}]","10991.899999976158","","","","","","","","","","","","","","","","","","","","","","",""
"pit-trial","24","221562","0.0-2.0-10.0-0.0","battery-v0.2","","","842.6000000238419","&#9789;","elianto","#f73b6a7A","32","32","1","0","1692.5999999940395","1","0","4","6166587899ecb8510945b094&order=1&STUDY_ID=61caf85b4892b889f6411591","999","","","","","","","","","",""
"pit-trial","25","225188","0.0-2.0-10.0-1.0","battery-v0.2","","","772.8000000119209","&#9789;","elianto","#f73b6a7A","32","32","1","0","1623.2000000178814","1","0","4","6166587899ecb8510945b094&order=1&STUDY_ID=61caf85b4892b889f6411591","999","","","","","","","","","",""
"pit-trial","26","228737","0.0-2.0-10.0-2.0","battery-v0.2","","","696","&#9789;","elianto","#f73b6a7A","32","32","1","0","1546.4000000059605","1","0","4","6166587899ecb8510945b094&order=1&STUDY_ID=61caf85b4892b889f6411591","999","","","","","","","","","",""
"pit-trial","27","232210","0.0-2.0-10.0-3.0","battery-v0.2","","","618.0999999940395","&#9789;","elianto","#f73b6a7A","32","32","1","0","1469.2000000178814","1","0","4","6166587899ecb8510945b094&order=1&STUDY_ID=61caf85b4892b889f6411591","999","","","","","","","","","",""
"pit-trial","28","235641","0.0-2.0-10.0-4.0","battery-v0.2","","","576.6000000238419","&#9789;","elianto","#f73b6a7A","32","32","1","-10","1427.6000000238419","1","0","4","6166587899ecb8510945b094&order=1&STUDY_ID=61caf85b4892b889f6411591","999","","","","","","","","","",""
"call-function","29","235645","0.0-2.0-11.0","battery-v0.2","","","","","","","","","","","","","","","","","","","","","","","","","",""
"pit-instructions","30","262619","0.0-2.0-12.0","battery-v0.2","","[{""page_index"":0,""viewing_time"":6286.9000000059605},{""page_index"":1,""viewing_time"":9166.09999999404},{""page_index"":2,""viewing_time"":6891.100000023842},{""page_index"":3,""viewing_time"":2828.5},{""page_index"":4,""viewing_time"":1800.5}]","26973.5","","","","","","","","","","","","","","","","","","","","","","",""
"pit-comprehension","31","267688","0.0-2.0-13.0-0.0","battery-v0.2","","","5064.9000000059605","","","","","","","","","","","","","","","SPACE","0","","","","","","",""
"pit-instructions","32","269253","0.0-2.0-13.0-1.0","battery-v0.2","","[{""page_index"":0,""viewing_time"":1527.699999988079}]","1528.0999999940395","","","","","","","","","","","","","","","","","","","","","","",""
"pit-comprehension","33","276671","0.0-2.0-14.0-0.0","battery-v0.2","","","7414.5","","","","","","","","","","","","","","","10","0","","","","","","",""
"pit-instructions","34","278349","0.0-2.0-14.0-1.0","battery-v0.2","","[{""page_index"":0,""viewing_time"":1669.6000000238419}]","1669.9000000059605","","","","","","","","","","","","","","","","","","","","","","",""
"pit-comprehension","35","287371","0.0-2.0-15.0-0.0","battery-v0.2","","","9018.200000017881","","","","","","","","","","","","","","","0","0","","","","","","",""
"pit-instructions","36","289038","0.0-2.0-15.0-1.0","battery-v0.2","","[{""page_index"":0,""viewing_time"":1657.4000000059605}]","1657.699999988079","","","","","","","","","","","","","","","","","","","","","","",""
"pit-comprehension","37","296814","0.0-2.0-16.0-0.0","battery-v0.2","","","7773.799999982119","","","","","","","","","","","","","","","True","0","","","","","","",""
"pit-instructions","38","298317","0.0-2.0-16.0-1.0","battery-v0.2","","[{""page_index"":0,""viewing_time"":1493.5}]","1493.8999999761581","","","","","","","","","","","","","","","","","","","","","","",""
"pit-comprehension","39","305025","0.0-2.0-17.0-0.0","battery-v0.2","","","6704","","","","","","","","","","","","","","","True","0","","","","","","",""
"pit-instructions","40","306390","0.0-2.0-17.0-1.0","battery-v0.2","","[{""page_index"":0,""viewing_time"":1354.0999999940395}]","1354.4000000059605","","","","","","","","","","","","","","","","","","","","","","",""
"pit-comprehension","41","311394","0.0-2.0-18.0-0.0","battery-v0.2","","","5001.699999988079","","","","","","","","","","","","","","","True","0","","","","","","",""
"pit-instructions","42","312616","0.0-2.0-18.0-1.0","battery-v0.2","","[{""page_index"":0,""viewing_time"":1211.8999999761581}]","1212.199999988079","","","","","","","","","","","","","","","","","","","","","","",""
"pit-instructions","43","323073","0.0-3.0","battery-v0.2","","[{""page_index"":0,""viewing_time"":2026.800000011921},{""page_index"":1,""viewing_time"":2258.9000000059605},{""page_index"":2,""viewing_time"":6168.5999999940395}]","10454.800000011921","","","","","","","","","","","","","","","","","","","","","","",""
"pit-trial","44","326563","0.0-4.0","battery-v0.2","","","632.4000000059605","&#9730;","elianto","#3366ff99","32","32","1","+10","1483.2000000178814","1","1","","","","","","","6166587899ecb8510945b094&order=1&STUDY_ID=61caf85b4892b889f6411591","1","1","1","win","go","0"
"pit-trial","45","329891","0.0-5.0","battery-v0.2","","","471.2000000178814","&#9733;","elianto","#3366ff99","-1","32","0","0","1322.0999999940395","1","1","","","","","","","6166587899ecb8510945b094&order=1&STUDY_ID=61caf85b4892b889f6411591","2","2","2","win","no-go","0"
"pit-trial","46","333658","0.0-6.0","battery-v0.2","","","910.4000000059605","&#9728;","elianto","#f73b6a7A","-1","32","0","0","1761.9000000059605","1","1","","","","","","","6166587899ecb8510945b094&order=1&STUDY_ID=61caf85b4892b889f6411591","3","0","4","lose","no-go","1"
"pit-trial","47","337433","0.0-7.0","battery-v0.2","","","919.4000000059605","&#9752;","elianto","#f73b6a7A","32","32","1","0","1770.199999988079","1","1","","","","","","","6166587899ecb8510945b094&order=1&STUDY_ID=61caf85b4892b889f6411591","4","3","3","lose","go","0"
"pit-trial","48","341402","0.0-8.0","battery-v0.2","","","1113.300000011921","&#9728;","elianto","#f73b6a7A","-1","32","0","-10","1963.800000011921","1","1","","","","","","","6166587899ecb8510945b094&order=1&STUDY_ID=61caf85b4892b889f6411591","5","0","4","lose","no-go","0"
"pit-trial","49","345605","0.0-9.0","battery-v0.2","","","1345.699999988079","&#9752;","elianto","#f73b6a7A","32","32","1","0","2198","1","1","","","","","","","6166587899ecb8510945b094&order=1&STUDY_ID=61caf85b4892b889f6411591","6","3","3","lose","go","0"
"pit-trial","50","349605","0.0-10.0","battery-v0.2","","","1144.2000000178814","&#9733;","elianto","#3366ff99","-1","32","0","0","1994.3999999761581","1","1","","","","","","","6166587899ecb8510945b094&order=1&STUDY_ID=61caf85b4892b889f6411591","7","2","2","win","no-go","0"
"pit-trial","51","353522","0.0-11.0","battery-v0.2","","","1062.2000000178814","&#9730;","elianto","#3366ff99","32","32","1","+10","1912.7999999821186","1","1","","","","","","","6166587899ecb8510945b094&order=1&STUDY_ID=61caf85b4892b889f6411591","8","1","1","win","go","0"
"pit-trial","52","358378","0.0-12.0","battery-v0.2","","","-1","&#9728;","elianto","#f73b6a7A","-1","-1","1","0","","0","1","","","","","","","6166587899ecb8510945b094&order=1&STUDY_ID=61caf85b4892b889f6411591","9","0","4","lose","no-go","0"
"pit-trial","53","363234","0.0-13.0","battery-v0.2","","","-1","&#9752;","elianto","#f73b6a7A","32","-1","0","-10","","0","1","","","","","","","6166587899ecb8510945b094&order=1&STUDY_ID=61caf85b4892b889f6411591","10","3","3","lose","go","0"
"pit-trial","54","366994","0.0-14.0","battery-v0.2","","","903","&#9730;","elianto","#3366ff99","32","32","1","+10","1754.0999999940395","1","1","","","","","","","6166587899ecb8510945b094&order=1&STUDY_ID=61caf85b4892b889f6411591","11","1","1","win","go","0"
"pit-trial","55","371098","0.0-15.0","battery-v0.2","","","1249.7999999821186","&#9733;","elianto","#3366ff99","-1","32","0","0","2099.9000000059605","1","1","","","","","","","6166587899ecb8510945b094&order=1&STUDY_ID=61caf85b4892b889f6411591","12","2","2","win","no-go","0"
"pit-trial","56","375001","0.0-16.0","battery-v0.2","","","1046.4000000059605","&#9752;","elianto","#f73b6a7A","32","32","1","0","1898.199999988079","1","1","","","","","","","6166587899ecb8510945b094&order=1&STUDY_ID=61caf85b4892b889f6411591","13","3","3","lose","go","0"
"pit-trial","57","378609","0.0-17.0","battery-v0.2","","","751.8999999761581","&#9728;","elianto","#f73b6a7A","-1","32","0","-10","1602.199999988079","1","1","","","","","","","6166587899ecb8510945b094&order=1&STUDY_ID=61caf85b4892b889f6411591","14","0","4","lose","no-go","0"
"pit-trial","58","383465","0.0-18.0","battery-v0.2","","","-1","&#9733;","elianto","#3366ff99","-1","-1","1","+10","","0","1","","","","","","","6166587899ecb8510945b094&order=1&STUDY_ID=61caf85b4892b889f6411591","15","2","2","win","no-go","0"
"pit-trial","59","387331","0.0-19.0","battery-v0.2","","","1010.9000000059605","&#9730;","elianto","#3366ff99","32","32","1","0","1861.5","1","1","","","","","","","6166587899ecb8510945b094&order=1&STUDY_ID=61caf85b4892b889f6411591","16","1","1","win","go","1"
"pit-trial","60","391316","0.0-20.0","battery-v0.2","","","1129.699999988079","&#9752;","elianto","#f73b6a7A","32","32","1","0","1979.9000000059605","1","1","","","","","","","6166587899ecb8510945b094&order=1&STUDY_ID=61caf85b4892b889f6411591","17","3","3","lose","go","0"
"pit-trial","61","395155","0.0-21.0","battery-v0.2","","","981.7000000178814","&#9730;","elianto","#3366ff99","32","32","1","0","1833.2000000178814","1","1","","","","","","","6166587899ecb8510945b094&order=1&STUDY_ID=61caf85b4892b889f6411591","18","1","1","win","go","1"
"pit-trial","62","400011","0.0-22.0","battery-v0.2","","","-1","&#9728;","elianto","#f73b6a7A","-1","-1","1","-10","","0","1","","","","","","","6166587899ecb8510945b094&order=1&STUDY_ID=61caf85b4892b889f6411591","19","0","4","lose","no-go","1"
"pit-trial","63","404150","0.0-23.0","battery-v0.2","","","1281.300000011921","&#9733;","elianto","#3366ff99","-1","32","0","0","2133.2000000178814","1","1","","","","","","","6166587899ecb8510945b094&order=1&STUDY_ID=61caf85b4892b889f6411591","20","2","2","win","no-go","0"
"pit-instructions","64","412149","0.0-24.0","battery-v0.2","","[{""page_index"":0,""viewing_time"":3228.7000000178814},{""page_index"":1,""viewing_time"":4766}]","7995.200000017881","","","","","","","","","","","","","","","","","","","","","","",""
"pit-trial","65","415797","0.0-25.0","battery-v0.2","","","792.1999999880791","y","elianto","#3366ff99","32","32","1","+10","1642.9000000059605","1","2","","","","","","","6166587899ecb8510945b094&order=1&STUDY_ID=61caf85b4892b889f6411591","21","2","1","win","go","0"
"pit-trial","66","419518","0.0-26.0","battery-v0.2","","","866","r","elianto","#3366ff99","-1","32","0","+10","1715.9000000059605","1","2","","","","","","","6166587899ecb8510945b094&order=1&STUDY_ID=61caf85b4892b889f6411591","22","1","2","win","no-go","1"
"pit-trial","67","423265","0.0-27.0","battery-v0.2","","","890.2000000178814","m","elianto","#3366ff99","-1","32","0","0","1741.300000011921","1","2","","","","","","","6166587899ecb8510945b094&order=1&STUDY_ID=61caf85b4892b889f6411591","23","0","2","win","no-go","0"
"pit-trial","68","428122","0.0-28.0","battery-v0.2","","","-1","h","elianto","#f73b6a7A","32","-1","0","-10","","0","2","","","","","","","6166587899ecb8510945b094&order=1&STUDY_ID=61caf85b4892b889f6411591","24","3","3","lose","go","0"
"pit-trial","69","431944","0.0-29.0","battery-v0.2","","","965.3000000119209","h","elianto","#f73b6a7A","32","32","1","0","1816.0999999940395","1","2","","","","","","","6166587899ecb8510945b094&order=1&STUDY_ID=61caf85b4892b889f6411591","25","3","3","lose","go","0"
"pit-trial","70","436800","0.0-30.0","battery-v0.2","","","-1","m","elianto","#3366ff99","-1","-1","1","+10","","0","2","","","","","","","6166587899ecb8510945b094&order=1&STUDY_ID=61caf85b4892b889f6411591","26","0","2","win","no-go","0"
"pit-trial","71","440392","0.0-31.0","battery-v0.2","","","737.3000000119209","y","elianto","#3366ff99","32","32","1","+10","1587.300000011921","1","2","","","","","","","6166587899ecb8510945b094&order=1&STUDY_ID=61caf85b4892b889f6411591","27","2","1","win","go","0"
"pit-trial","72","443893","0.0-32.0","battery-v0.2","","","646.5","r","elianto","#3366ff99","-1","32","0","0","1496.800000011921","1","2","","","","","","","6166587899ecb8510945b094&order=1&STUDY_ID=61caf85b4892b889f6411591","28","1","2","win","no-go","0"
"pit-trial","73","448750","0.0-33.0","battery-v0.2","","","-1","m","elianto","#3366ff99","-1","-1","1","+10","","0","2","","","","","","","6166587899ecb8510945b094&order=1&STUDY_ID=61caf85b4892b889f6411591","29","0","2","win","no-go","0"
"pit-trial","74","453605","0.0-34.0","battery-v0.2","","","-1","h","elianto","#f73b6a7A","32","-1","0","0","","0","2","","","","","","","6166587899ecb8510945b094&order=1&STUDY_ID=61caf85b4892b889f6411591","30","3","3","lose","go","1"
"pit-trial","75","457379","0.0-35.0","battery-v0.2","","","919.5","y","elianto","#3366ff99","32","32","1","0","1769.5","1","2","","","","","","","6166587899ecb8510945b094&order=1&STUDY_ID=61caf85b4892b889f6411591","31","2","1","win","go","1"
"pit-trial","76","461242","0.0-36.0","battery-v0.2","","","1007.9000000059605","r","elianto","#3366ff99","-1","32","0","0","1858.4000000059605","1","2","","","","","","","6166587899ecb8510945b094&order=1&STUDY_ID=61caf85b4892b889f6411591","32","1","2","win","no-go","0"
"pit-trial","77","466098","0.0-37.0","battery-v0.2","","","-1","m","elianto","#3366ff99","-1","-1","1","+10","","0","2","","","","","","","6166587899ecb8510945b094&order=1&STUDY_ID=61caf85b4892b889f6411591","33","0","2","win","no-go","0"
"pit-trial","78","469886","0.0-38.0","battery-v0.2","","","931.4000000059605","y","elianto","#3366ff99","32","32","1","0","1781.5999999940395","1","2","","","","","","","6166587899ecb8510945b094&order=1&STUDY_ID=61caf85b4892b889f6411591","34","2","1","win","go","1"
"pit-trial","79","474743","0.0-39.0","battery-v0.2","","","-1","r","elianto","#3366ff99","-1","-1","1","0","","0","2","","","","","","","6166587899ecb8510945b094&order=1&STUDY_ID=61caf85b4892b889f6411591","35","1","2","win","no-go","1"
"pit-trial","80","478672","0.0-40.0","battery-v0.2","","","1073.7999999821186","h","elianto","#f73b6a7A","32","32","1","-10","1924.2999999821186","1","2","","","","","","","6166587899ecb8510945b094&order=1&STUDY_ID=61caf85b4892b889f6411591","36","3","3","lose","go","1"
"pit-trial","81","482840","0.0-41.0","battery-v0.2","","","1312","y","elianto","#3366ff99","32","32","1","0","2162.9000000059605","1","2","","","","","","","6166587899ecb8510945b094&order=1&STUDY_ID=61caf85b4892b889f6411591","37","2","1","win","go","1"
"pit-trial","82","487696","0.0-42.0","battery-v0.2","","","-1","m","elianto","#3366ff99","-1","-1","1","+10","","0","2","","","","","","","6166587899ecb8510945b094&order=1&STUDY_ID=61caf85b4892b889f6411591","38","0","2","win","no-go","0"
"pit-trial","83","492550","0.0-43.0","battery-v0.2","","","-1","h","elianto","#f73b6a7A","32","-1","0","0","","0","2","","","","","","","6166587899ecb8510945b094&order=1&STUDY_ID=61caf85b4892b889f6411591","39","3","3","lose","go","1"
"pit-trial","84","497241","0.0-44.0","battery-v0.2","","","1836.2999999821186","r","elianto","#3366ff99","-1","32","0","+10","2687.0999999940395","1","2","","","","","","","6166587899ecb8510945b094&order=1&STUDY_ID=61caf85b4892b889f6411591","40","1","2","win","no-go","1"
"pit-trial","85","502094","0.0-45.0","battery-v0.2","","","-1","m","elianto","#3366ff99","-1","-1","1","+10","","0","2","","","","","","","6166587899ecb8510945b094&order=1&STUDY_ID=61caf85b4892b889f6411591","41","0","2","win","no-go","0"
"pit-trial","86","506228","0.0-46.0","battery-v0.2","","","1279.699999988079","r","elianto","#3366ff99","-1","32","0","0","2131.199999988079","1","2","","","","","","","6166587899ecb8510945b094&order=1&STUDY_ID=61caf85b4892b889f6411591","42","1","2","win","no-go","0"
"pit-trial","87","511081","0.0-47.0","battery-v0.2","","","-1","h","elianto","#f73b6a7A","32","-1","0","-10","","0","2","","","","","","","6166587899ecb8510945b094&order=1&STUDY_ID=61caf85b4892b889f6411591","43","3","3","lose","go","0"
"pit-trial","88","515935","0.0-48.0","battery-v0.2","","","-1","y","elianto","#3366ff99","32","-1","0","0","","0","2","","","","","","","6166587899ecb8510945b094&order=1&STUDY_ID=61caf85b4892b889f6411591","44","2","1","win","go","0"
"pit-trial","89","519486","0.0-49.0","battery-v0.2","","","698.5999999940395","r","elianto","#3366ff99","-1","32","0","0","1549.300000011921","1","2","","","","","","","6166587899ecb8510945b094&order=1&STUDY_ID=61caf85b4892b889f6411591","45","1","2","win","no-go","0"
"pit-trial","90","523301","0.0-50.0","battery-v0.2","","","960","h","elianto","#f73b6a7A","32","32","1","0","1811.7000000178814","1","2","","","","","","","6166587899ecb8510945b094&order=1&STUDY_ID=61caf85b4892b889f6411591","46","3","3","lose","go","0"
"pit-trial","91","528154","0.0-51.0","battery-v0.2","","","-1","m","elianto","#3366ff99","-1","-1","1","0","","0","2","","","","","","","6166587899ecb8510945b094&order=1&STUDY_ID=61caf85b4892b889f6411591","47","0","2","win","no-go","1"
"pit-trial","92","531881","0.0-52.0","battery-v0.2","","","874.9000000059605","y","elianto","#3366ff99","32","32","1","+10","1725.4000000059605","1","2","","","","","","","6166587899ecb8510945b094&order=1&STUDY_ID=61caf85b4892b889f6411591","48","2","1","win","go","0"
"pit-trial","93","535579","0.0-53.0","battery-v0.2","","","844.5999999940395","r","elianto","#3366ff99","-1","32","0","0","1695.300000011921","1","2","","","","","","","6166587899ecb8510945b094&order=1&STUDY_ID=61caf85b4892b889f6411591","49","1","2","win","no-go","0"
"pit-trial","94","539453","0.0-54.0","battery-v0.2","","","1020.5999999940395","y","elianto","#3366ff99","32","32","1","0","1871.800000011921","1","2","","","","","","","6166587899ecb8510945b094&order=1&STUDY_ID=61caf85b4892b889f6411591","50","2","1","win","go","1"
"pit-trial","95","544307","0.0-55.0","battery-v0.2","","","-1","m","elianto","#3366ff99","-1","-1","1","+10","","0","2","","","","","","","6166587899ecb8510945b094&order=1&STUDY_ID=61caf85b4892b889f6411591","51","0","2","win","no-go","0"
"pit-trial","96","548137","0.0-56.0","battery-v0.2","","","977.7000000178814","h","elianto","#f73b6a7A","32","32","1","0","1827.7000000178814","1","2","","","","","","","6166587899ecb8510945b094&order=1&STUDY_ID=61caf85b4892b889f6411591","52","3","3","lose","go","0"
"pit-trial","97","552990","0.0-57.0","battery-v0.2","","","-1","m","elianto","#3366ff99","-1","-1","1","+10","","0","2","","","","","","","6166587899ecb8510945b094&order=1&STUDY_ID=61caf85b4892b889f6411591","53","0","2","win","no-go","0"
"pit-trial","98","557850","0.0-58.0","battery-v0.2","","","-1","y","elianto","#3366ff99","32","-1","0","0","","0","2","","","","","","","6166587899ecb8510945b094&order=1&STUDY_ID=61caf85b4892b889f6411591","54","2","1","win","go","0"
"pit-trial","99","561790","0.0-59.0","battery-v0.2","","","1087","c","elianto","#f73b6a7A","32","32","1","0","1938.0999999940395","1","2","","","","","","","6166587899ecb8510945b094&order=1&STUDY_ID=61caf85b4892b889f6411591","55","5","3","lose","go","0"
"pit-trial","100","565842","0.0-60.0","battery-v0.2","","","1197.800000011921","z","elianto","#f73b6a7A","-1","32","0","-10","2048.7000000178814","1","2","","","","","","","6166587899ecb8510945b094&order=1&STUDY_ID=61caf85b4892b889f6411591","56","4","4","lose","no-go","0"
"pit-trial","101","570023","0.0-61.0","battery-v0.2","","","1328.2000000178814","c","elianto","#f73b6a7A","32","32","1","0","2179.7000000178814","1","2","","","","","","","6166587899ecb8510945b094&order=1&STUDY_ID=61caf85b4892b889f6411591","57","5","3","lose","go","0"
"pit-trial","102","574877","0.0-62.0","battery-v0.2","","","-1","y","elianto","#3366ff99","32","-1","0","+10","","0","2","","","","","","","6166587899ecb8510945b094&order=1&STUDY_ID=61caf85b4892b889f6411591","58","2","1","win","go","1"
"pit-trial","103","579249","0.0-63.0","battery-v0.2","","","1518","z","elianto","#f73b6a7A","-1","32","0","-10","2369","1","2","","","","","","","6166587899ecb8510945b094&order=1&STUDY_ID=61caf85b4892b889f6411591","59","4","4","lose","no-go","0"
"pit-trial","104","584103","0.0-64.0","battery-v0.2","","","-1","m","elianto","#3366ff99","-1","-1","1","+10","","0","2","","","","","","","6166587899ecb8510945b094&order=1&STUDY_ID=61caf85b4892b889f6411591","60","0","2","win","no-go","0"
"pit-trial","105","588139","0.0-65.0","battery-v0.2","","","1182.699999988079","b","elianto","#3366ff99","-1","32","0","+10","2033.699999988079","1","2","","","","","","","6166587899ecb8510945b094&order=1&STUDY_ID=61caf85b4892b889f6411591","61","6","2","win","no-go","1"
"pit-trial","106","592992","0.0-66.0","battery-v0.2","","","-1","z","elianto","#f73b6a7A","-1","-1","1","-10","","0","2","","","","","","","6166587899ecb8510945b094&order=1&STUDY_ID=61caf85b4892b889f6411591","62","4","4","lose","no-go","1"
"pit-trial","107","596964","0.0-67.0","battery-v0.2","","","1118.9000000059605","c","elianto","#f73b6a7A","32","32","1","0","1969.9000000059605","1","2","","","","","","","6166587899ecb8510945b094&order=1&STUDY_ID=61caf85b4892b889f6411591","63","5","3","lose","go","0"
"pit-trial","108","601298","0.0-68.0","battery-v0.2","","","1481.3999999761581","y","elianto","#3366ff99","32","32","1","+10","2332.0999999940395","1","2","","","","","","","6166587899ecb8510945b094&order=1&STUDY_ID=61caf85b4892b889f6411591","64","2","1","win","go","0"
"pit-trial","109","605117","0.0-69.0","battery-v0.2","","","965.7000000178814","y","elianto","#3366ff99","32","32","1","0","1816.5999999940395","1","2","","","","","","","6166587899ecb8510945b094&order=1&STUDY_ID=61caf85b4892b889f6411591","65","2","1","win","go","1"
"pit-trial","110","609473","0.0-70.0","battery-v0.2","","","1500.4000000059605","c","elianto","#f73b6a7A","32","32","1","0","2352.300000011921","1","2","","","","","","","6166587899ecb8510945b094&order=1&STUDY_ID=61caf85b4892b889f6411591","66","5","3","lose","go","0"
"pit-trial","111","613392","0.0-71.0","battery-v0.2","","","1066.5999999940395","b","elianto","#3366ff99","-1","32","0","0","1917","1","2","","","","","","","6166587899ecb8510945b094&order=1&STUDY_ID=61caf85b4892b889f6411591","67","6","2","win","no-go","0"
"pit-trial","112","618246","0.0-72.0","battery-v0.2","","","-1","z","elianto","#f73b6a7A","-1","-1","1","0","","0","2","","","","","","","6166587899ecb8510945b094&order=1&STUDY_ID=61caf85b4892b889f6411591","68","4","4","lose","no-go","0"
"pit-trial","113","623100","0.0-73.0","battery-v0.2","","","-1","z","elianto","#f73b6a7A","-1","-1","1","0","","0","2","","","","","","","6166587899ecb8510945b094&order=1&STUDY_ID=61caf85b4892b889f6411591","69","4","4","lose","no-go","0"
"pit-trial","114","627063","0.0-74.0","battery-v0.2","","","1109.5","t","elianto","#f73b6a7A","-1","32","0","-10","1960.1000000238419","1","2","","","","","","","6166587899ecb8510945b094&order=1&STUDY_ID=61caf85b4892b889f6411591","70","7","4","lose","no-go","0"
"pit-trial","115","631316","0.0-75.0","battery-v0.2","","","1400.2000000178814","c","elianto","#f73b6a7A","32","32","1","0","2250.600000023842","1","2","","","","","","","6166587899ecb8510945b094&order=1&STUDY_ID=61caf85b4892b889f6411591","71","5","3","lose","go","0"
"pit-trial","116","635378","0.0-76.0","battery-v0.2","","","1207.3999999761581","b","elianto","#3366ff99","-1","32","0","0","2058.699999988079","1","2","","","","","","","6166587899ecb8510945b094&order=1&STUDY_ID=61caf85b4892b889f6411591","72","6","2","win","no-go","0"
"pit-trial","117","639582","0.0-77.0","battery-v0.2","","","1350.9000000059605","t","elianto","#f73b6a7A","-1","32","0","-10","2201.4000000059605","1","2","","","","","","","6166587899ecb8510945b094&order=1&STUDY_ID=61caf85b4892b889f6411591","73","7","4","lose","no-go","0"
"pit-trial","118","644203","0.0-78.0","battery-v0.2","","","1769.0999999940395","c","elianto","#f73b6a7A","32","32","1","-10","2619.7000000178814","1","2","","","","","","","6166587899ecb8510945b094&order=1&STUDY_ID=61caf85b4892b889f6411591","74","5","3","lose","go","1"
"pit-trial","119","649057","0.0-79.0","battery-v0.2","","","-1","b","elianto","#3366ff99","-1","-1","1","0","","0","2","","","","","","","6166587899ecb8510945b094&order=1&STUDY_ID=61caf85b4892b889f6411591","75","6","2","win","no-go","1"
"pit-trial","120","653911","0.0-80.0","battery-v0.2","","","-1","z","elianto","#f73b6a7A","-1","-1","1","0","","0","2","","","","","","","6166587899ecb8510945b094&order=1&STUDY_ID=61caf85b4892b889f6411591","76","4","4","lose","no-go","0"
"pit-trial","121","657983","0.0-81.0","battery-v0.2","","","1218.1000000238419","b","elianto","#3366ff99","-1","32","0","0","2068.5999999940395","1","2","","","","","","","6166587899ecb8510945b094&order=1&STUDY_ID=61caf85b4892b889f6411591","77","6","2","win","no-go","0"
"pit-trial","122","662845","0.0-82.0","battery-v0.2","","","-1","t","elianto","#f73b6a7A","-1","-1","1","0","","0","2","","","","","","","6166587899ecb8510945b094&order=1&STUDY_ID=61caf85b4892b889f6411591","78","7","4","lose","no-go","0"
"pit-trial","123","667699","0.0-83.0","battery-v0.2","","","-1","c","elianto","#f73b6a7A","32","-1","0","-10","","0","2","","","","","","","6166587899ecb8510945b094&order=1&STUDY_ID=61caf85b4892b889f6411591","79","5","3","lose","go","0"
"pit-trial","124","672553","0.0-84.0","battery-v0.2","","","-1","z","elianto","#f73b6a7A","-1","-1","1","0","","0","2","","","","","","","6166587899ecb8510945b094&order=1&STUDY_ID=61caf85b4892b889f6411591","80","4","4","lose","no-go","0"
"pit-trial","125","677407","0.0-85.0","battery-v0.2","","","-1","t","elianto","#f73b6a7A","-1","-1","1","0","","0","2","","","","","","","6166587899ecb8510945b094&order=1&STUDY_ID=61caf85b4892b889f6411591","81","7","4","lose","no-go","0"
"pit-trial","126","682261","0.0-86.0","battery-v0.2","","","-1","z","elianto","#f73b6a7A","-1","-1","1","0","","0","2","","","","","","","6166587899ecb8510945b094&order=1&STUDY_ID=61caf85b4892b889f6411591","82","4","4","lose","no-go","0"
"pit-trial","127","686144","0.0-87.0","battery-v0.2","","","1029.8999999761581","c","elianto","#f73b6a7A","32","32","1","0","1881.0999999940395","1","2","","","","","","","6166587899ecb8510945b094&order=1&STUDY_ID=61caf85b4892b889f6411591","83","5","3","lose","go","0"
"pit-trial","128","690519","0.0-88.0","battery-v0.2","","","1521.9000000059605","b","elianto","#3366ff99","-1","32","0","0","2373","1","2","","","","","","","6166587899ecb8510945b094&order=1&STUDY_ID=61caf85b4892b889f6411591","84","6","2","win","no-go","0"
"pit-trial","129","695373","0.0-89.0","battery-v0.2","","","-1","t","elianto","#f73b6a7A","-1","-1","1","0","","0","2","","","","","","","6166587899ecb8510945b094&order=1&STUDY_ID=61caf85b4892b889f6411591","85","7","4","lose","no-go","0"
"pit-trial","130","700227","0.0-90.0","battery-v0.2","","","-1","z","elianto","#f73b6a7A","-1","-1","1","0","","0","2","","","","","","","6166587899ecb8510945b094&order=1&STUDY_ID=61caf85b4892b889f6411591","86","4","4","lose","no-go","0"
"pit-trial","131","705080","0.0-91.0","battery-v0.2","","","-1","b","elianto","#3366ff99","-1","-1","1","+10","","0","2","","","","","","","6166587899ecb8510945b094&order=1&STUDY_ID=61caf85b4892b889f6411591","87","6","2","win","no-go","0"
"pit-trial","132","709084","0.0-92.0","battery-v0.2","","","1150.5","c","elianto","#f73b6a7A","32","32","1","0","2001.3999999761581","1","2","","","","","","","6166587899ecb8510945b094&order=1&STUDY_ID=61caf85b4892b889f6411591","88","5","3","lose","go","0"
"pit-trial","133","713937","0.0-93.0","battery-v0.2","","","-1","b","elianto","#3366ff99","-1","-1","1","+10","","0","2","","","","","","","6166587899ecb8510945b094&order=1&STUDY_ID=61caf85b4892b889f6411591","89","6","2","win","no-go","0"
"pit-trial","134","718791","0.0-94.0","battery-v0.2","","","-1","t","elianto","#f73b6a7A","-1","-1","1","-10","","0","2","","","","","","","6166587899ecb8510945b094&order=1&STUDY_ID=61caf85b4892b889f6411591","90","7","4","lose","no-go","1"
"pit-trial","135","723644","0.0-95.0","battery-v0.2","","","-1","z","elianto","#f73b6a7A","-1","-1","1","-10","","0","2","","","","","","","6166587899ecb8510945b094&order=1&STUDY_ID=61caf85b4892b889f6411591","91","4","4","lose","no-go","1"
"pit-trial","136","727473","0.0-96.0","battery-v0.2","","","972.6000000238419","c","elianto","#f73b6a7A","32","32","1","0","1823.7000000178814","1","2","","","","","","","6166587899ecb8510945b094&order=1&STUDY_ID=61caf85b4892b889f6411591","92","5","3","lose","go","0"
"pit-trial","137","731556","0.0-97.0","battery-v0.2","","","1227","c","elianto","#f73b6a7A","32","32","1","0","2077.800000011921","1","2","","","","","","","6166587899ecb8510945b094&order=1&STUDY_ID=61caf85b4892b889f6411591","93","5","3","lose","go","0"
"pit-trial","138","735269","0.0-98.0","battery-v0.2","","","858.5","t","elianto","#f73b6a7A","-1","32","0","-10","1708.699999988079","1","2","","","","","","","6166587899ecb8510945b094&order=1&STUDY_ID=61caf85b4892b889f6411591","94","7","4","lose","no-go","0"
"pit-trial","139","740124","0.0-99.0","battery-v0.2","","","-1","b","elianto","#3366ff99","-1","-1","1","+10","","0","2","","","","","","","6166587899ecb8510945b094&order=1&STUDY_ID=61caf85b4892b889f6411591","95","6","2","win","no-go","0"
"pit-trial","140","744471","0.0-100.0","battery-v0.2","","","1492.2000000178814","x","elianto","#f73b6a7A","-1","32","0","-10","2343.2999999821186","1","2","","","","","","","6166587899ecb8510945b094&order=1&STUDY_ID=61caf85b4892b889f6411591","96","8","4","lose","no-go","0"
"pit-trial","141","748776","0.0-101.0","battery-v0.2","","","1451","x","elianto","#f73b6a7A","-1","32","0","-10","2302.5","1","2","","","","","","","6166587899ecb8510945b094&order=1&STUDY_ID=61caf85b4892b889f6411591","97","8","4","lose","no-go","0"
"pit-trial","142","753629","0.0-102.0","battery-v0.2","","","-1","t","elianto","#f73b6a7A","-1","-1","1","0","","0","2","","","","","","","6166587899ecb8510945b094&order=1&STUDY_ID=61caf85b4892b889f6411591","98","7","4","lose","no-go","0"
"pit-trial","143","758484","0.0-103.0","battery-v0.2","","","-1","b","elianto","#3366ff99","-1","-1","1","+10","","0","2","","","","","","","6166587899ecb8510945b094&order=1&STUDY_ID=61caf85b4892b889f6411591","99","6","2","win","no-go","0"
"pit-trial","144","762503","0.0-104.0","battery-v0.2","","","1163.0999999940395","c","elianto","#f73b6a7A","32","32","1","0","2014.1000000238419","1","2","","","","","","","6166587899ecb8510945b094&order=1&STUDY_ID=61caf85b4892b889f6411591","100","5","3","lose","go","0"
"pit-trial","145","767358","0.0-105.0","battery-v0.2","","","-1","n","elianto","#f73b6a7A","32","-1","0","-10","","0","2","","","","","","","6166587899ecb8510945b094&order=1&STUDY_ID=61caf85b4892b889f6411591","101","10","3","lose","go","0"
"pit-trial","146","771359","0.0-106.0","battery-v0.2","","","1146","x","elianto","#f73b6a7A","-1","32","0","-10","1996.2000000178814","1","2","","","","","","","6166587899ecb8510945b094&order=1&STUDY_ID=61caf85b4892b889f6411591","102","8","4","lose","no-go","0"
"pit-trial","147","776214","0.0-107.0","battery-v0.2","","","-1","f","elianto","#3366ff99","32","-1","0","0","","0","2","","","","","","","6166587899ecb8510945b094&order=1&STUDY_ID=61caf85b4892b889f6411591","103","9","1","win","go","0"
"pit-trial","148","779960","0.0-108.0","battery-v0.2","","","891.2999999821186","b","elianto","#3366ff99","-1","32","0","0","1741.5","1","2","","","","","","","6166587899ecb8510945b094&order=1&STUDY_ID=61caf85b4892b889f6411591","104","6","2","win","no-go","0"
"pit-trial","149","784825","0.0-109.0","battery-v0.2","","","-1","n","elianto","#f73b6a7A","32","-1","0","0","","0","2","","","","","","","6166587899ecb8510945b094&order=1&STUDY_ID=61caf85b4892b889f6411591","105","10","3","lose","go","1"
"pit-trial","150","789681","0.0-110.0","battery-v0.2","","","-1","f","elianto","#3366ff99","32","-1","0","0","","0","2","","","","","","","6166587899ecb8510945b094&order=1&STUDY_ID=61caf85b4892b889f6411591","106","9","1","win","go","0"
"pit-trial","151","794533","0.0-111.0","battery-v0.2","","","-1","b","elianto","#3366ff99","-1","-1","1","+10","","0","2","","","","","","","6166587899ecb8510945b094&order=1&STUDY_ID=61caf85b4892b889f6411591","107","6","2","win","no-go","0"
"pit-trial","152","799388","0.0-112.0","battery-v0.2","","","-1","x","elianto","#f73b6a7A","-1","-1","1","0","","0","2","","","","","","","6166587899ecb8510945b094&order=1&STUDY_ID=61caf85b4892b889f6411591","108","8","4","lose","no-go","0"
"pit-trial","153","804243","0.0-113.0","battery-v0.2","","","-1","n","elianto","#f73b6a7A","32","-1","0","-10","","0","2","","","","","","","6166587899ecb8510945b094&order=1&STUDY_ID=61caf85b4892b889f6411591","109","10","3","lose","go","0"
"pit-trial","154","809096","0.0-114.0","battery-v0.2","","","-1","x","elianto","#f73b6a7A","-1","-1","1","0","","0","2","","","","","","","6166587899ecb8510945b094&order=1&STUDY_ID=61caf85b4892b889f6411591","110","8","4","lose","no-go","0"
"pit-trial","155","813952","0.0-115.0","battery-v0.2","","","-1","f","elianto","#3366ff99","32","-1","0","+10","","0","2","","","","","","","6166587899ecb8510945b094&order=1&STUDY_ID=61caf85b4892b889f6411591","111","9","1","win","go","1"
"pit-trial","156","818333","0.0-116.0","battery-v0.2","","","1526.2999999821186","q","elianto","#3366ff99","32","32","1","+10","2376.7999999821186","1","2","","","","","","","6166587899ecb8510945b094&order=1&STUDY_ID=61caf85b4892b889f6411591","112","11","1","win","go","0"
"pit-trial","157","823187","0.0-117.0","battery-v0.2","","","-1","x","elianto","#f73b6a7A","-1","-1","1","0","","0","2","","","","","","","6166587899ecb8510945b094&order=1&STUDY_ID=61caf85b4892b889f6411591","113","8","4","lose","no-go","0"
"pit-trial","158","828042","0.0-118.0","battery-v0.2","","","-1","n","elianto","#f73b6a7A","32","-1","0","-10","","0","2","","","","","","","6166587899ecb8510945b094&order=1&STUDY_ID=61caf85b4892b889f6411591","114","10","3","lose","go","0"
"pit-trial","159","832462","0.0-119.0","battery-v0.2","","","1564.2999999821186","q","elianto","#3366ff99","32","32","1","+10","2417","1","2","","","","","","","6166587899ecb8510945b094&order=1&STUDY_ID=61caf85b4892b889f6411591","115","11","1","win","go","0"
"pit-trial","160","837317","0.0-120.0","battery-v0.2","","","-1","f","elianto","#3366ff99","32","-1","0","+10","","0","2","","","","","","","6166587899ecb8510945b094&order=1&STUDY_ID=61caf85b4892b889f6411591","116","9","1","win","go","1"
"pit-trial","161","842171","0.0-121.0","battery-v0.2","","","-1","x","elianto","#f73b6a7A","-1","-1","1","0","","0","2","","","","","","","6166587899ecb8510945b094&order=1&STUDY_ID=61caf85b4892b889f6411591","117","8","4","lose","no-go","0"
"pit-trial","162","845908","0.0-122.0","battery-v0.2","","","882.8999999761581","q","elianto","#3366ff99","32","32","1","0","1733.7999999821186","1","2","","","","","","","6166587899ecb8510945b094&order=1&STUDY_ID=61caf85b4892b889f6411591","118","11","1","win","go","1"
"pit-trial","163","850763","0.0-123.0","battery-v0.2","","","-1","f","elianto","#3366ff99","32","-1","0","0","","0","2","","","","","","","6166587899ecb8510945b094&order=1&STUDY_ID=61caf85b4892b889f6411591","119","9","1","win","go","0"
"pit-trial","164","855620","0.0-124.0","battery-v0.2","","","-1","n","elianto","#f73b6a7A","32","-1","0","-10","","0","2","","","","","","","6166587899ecb8510945b094&order=1&STUDY_ID=61caf85b4892b889f6411591","120","10","3","lose","go","0"
"pit-trial","165","860474","0.0-125.0","battery-v0.2","","","-1","x","elianto","#f73b6a7A","-1","-1","1","0","","0","2","","","","","","","6166587899ecb8510945b094&order=1&STUDY_ID=61caf85b4892b889f6411591","121","8","4","lose","no-go","0"
"pit-trial","166","864099","0.0-126.0","battery-v0.2","","","770.9000000059605","n","elianto","#f73b6a7A","32","32","1","-10","1621.5","1","2","","","","","","","6166587899ecb8510945b094&order=1&STUDY_ID=61caf85b4892b889f6411591","122","10","3","lose","go","1"
"pit-trial","167","868952","0.0-127.0","battery-v0.2","","","-1","f","elianto","#3366ff99","32","-1","0","0","","0","2","","","","","","","6166587899ecb8510945b094&order=1&STUDY_ID=61caf85b4892b889f6411591","123","9","1","win","go","0"
"pit-trial","168","872538","0.0-128.0","battery-v0.2","","","730.5999999940395","q","elianto","#3366ff99","32","32","1","+10","1582.5","1","2","","","","","","","6166587899ecb8510945b094&order=1&STUDY_ID=61caf85b4892b889f6411591","124","11","1","win","go","0"
"pit-trial","169","876237","0.0-129.0","battery-v0.2","","","841.2999999821186","q","elianto","#3366ff99","32","32","1","+10","1693","1","2","","","","","","","6166587899ecb8510945b094&order=1&STUDY_ID=61caf85b4892b889f6411591","125","11","1","win","go","0"
"pit-trial","170","881092","0.0-130.0","battery-v0.2","","","-1","f","elianto","#3366ff99","32","-1","0","0","","0","2","","","","","","","6166587899ecb8510945b094&order=1&STUDY_ID=61caf85b4892b889f6411591","126","9","1","win","go","0"
"pit-trial","171","885948","0.0-131.0","battery-v0.2","","","-1","x","elianto","#f73b6a7A","-1","-1","1","0","","0","2","","","","","","","6166587899ecb8510945b094&order=1&STUDY_ID=61caf85b4892b889f6411591","127","8","4","lose","no-go","0"
"pit-trial","172","889702","0.0-132.0","battery-v0.2","","","899.0999999940395","n","elianto","#f73b6a7A","32","32","1","0","1749.300000011921","1","2","","","","","","","6166587899ecb8510945b094&order=1&STUDY_ID=61caf85b4892b889f6411591","128","10","3","lose","go","0"
"pit-trial","173","893684","0.0-133.0","battery-v0.2","","","1127.1000000238419","f","elianto","#3366ff99","32","32","1","0","1977.800000011921","1","2","","","","","","","6166587899ecb8510945b094&order=1&STUDY_ID=61caf85b4892b889f6411591","129","9","1","win","go","1"
"pit-trial","174","898542","0.0-134.0","battery-v0.2","","","-1","x","elianto","#f73b6a7A","-1","-1","1","0","","0","2","","","","","","","6166587899ecb8510945b094&order=1&STUDY_ID=61caf85b4892b889f6411591","130","8","4","lose","no-go","0"
"pit-trial","175","902605","0.0-135.0","battery-v0.2","","","1207.2000000178814","n","elianto","#f73b6a7A","32","32","1","0","2058","1","2","","","","","","","6166587899ecb8510945b094&order=1&STUDY_ID=61caf85b4892b889f6411591","131","10","3","lose","go","0"
"pit-trial","176","906260","0.0-136.0","battery-v0.2","","","798.9000000059605","q","elianto","#3366ff99","32","32","1","+10","1650.0999999940395","1","2","","","","","","","6166587899ecb8510945b094&order=1&STUDY_ID=61caf85b4892b889f6411591","132","11","1","win","go","0"
"pit-trial","177","911117","0.0-137.0","battery-v0.2","","","-1","x","elianto","#f73b6a7A","-1","-1","1","-10","","0","2","","","","","","","6166587899ecb8510945b094&order=1&STUDY_ID=61caf85b4892b889f6411591","133","8","4","lose","no-go","1"
"pit-trial","178","914710","0.0-138.0","battery-v0.2","","","737.7000000178814","n","elianto","#f73b6a7A","32","32","1","0","1588.300000011921","1","2","","","","","","","6166587899ecb8510945b094&order=1&STUDY_ID=61caf85b4892b889f6411591","134","10","3","lose","go","0"
"pit-trial","179","918372","0.0-139.0","battery-v0.2","","","806.3999999761581","q","elianto","#3366ff99","32","32","1","+10","1656.699999988079","1","2","","","","","","","6166587899ecb8510945b094&order=1&STUDY_ID=61caf85b4892b889f6411591","135","11","1","win","go","0"
"pit-trial","180","922480","0.0-140.0","battery-v0.2","","","1252.699999988079","f","elianto","#3366ff99","32","32","1","+10","2103","1","2","","","","","","","6166587899ecb8510945b094&order=1&STUDY_ID=61caf85b4892b889f6411591","136","9","1","win","go","0"
"pit-trial","181","926256","0.0-141.0","battery-v0.2","","","919.7999999821186","q","elianto","#3366ff99","32","32","1","+10","1771.2999999821186","1","2","","","","","","","6166587899ecb8510945b094&order=1&STUDY_ID=61caf85b4892b889f6411591","137","11","1","win","go","0"
"pit-trial","182","930358","0.0-142.0","battery-v0.2","","","1245.800000011921","n","elianto","#f73b6a7A","32","32","1","0","2096.7000000178814","1","2","","","","","","","6166587899ecb8510945b094&order=1&STUDY_ID=61caf85b4892b889f6411591","138","10","3","lose","go","0"
"pit-trial","183","934358","0.0-143.0","battery-v0.2","","","1144.3999999761581","f","elianto","#3366ff99","32","32","1","+10","1995.199999988079","1","2","","","","","","","6166587899ecb8510945b094&order=1&STUDY_ID=61caf85b4892b889f6411591","139","9","1","win","go","0"
"pit-trial","184","939214","0.0-144.0","battery-v0.2","","","-1","x","elianto","#f73b6a7A","-1","-1","1","0","","0","2","","","","","","","6166587899ecb8510945b094&order=1&STUDY_ID=61caf85b4892b889f6411591","140","8","4","lose","no-go","0"
"pit-instructions","185","951179","0.0-145.0","battery-v0.2","","[{""page_index"":0,""viewing_time"":8212.09999999404},{""page_index"":1,""viewing_time"":3749}]","11961.59999999404","","","","","","","","","","","","","","","","","","","","","","",""
"pit-trial","186","955051","0.0-146.0","battery-v0.2","","","1004","a","elianto","#f73b6a7A","-1","32","0","-10","1854.7999999821186","1","3","","","","","","","6166587899ecb8510945b094&order=1&STUDY_ID=61caf85b4892b889f6411591","141","2","4","lose","no-go","0"
"pit-trial","187","959908","0.0-147.0","battery-v0.2","","","-1","l","elianto","#f73b6a7A","32","-1","0","-10","","0","3","","","","","","","6166587899ecb8510945b094&order=1&STUDY_ID=61caf85b4892b889f6411591","142","1","3","lose","go","0"
"pit-trial","188","963754","0.0-148.0","battery-v0.2","","","990.1999999880791","g","elianto","#3366ff99","32","32","1","+10","1841.199999988079","1","3","","","","","","","6166587899ecb8510945b094&order=1&STUDY_ID=61caf85b4892b889f6411591","143","3","1","win","go","0"
"pit-trial","189","968256","0.0-149.0","battery-v0.2","","","1645.0999999940395","u","elianto","#3366ff99","-1","32","0","0","2497.5","1","3","","","","","","","6166587899ecb8510945b094&order=1&STUDY_ID=61caf85b4892b889f6411591","144","0","2","win","no-go","0"
"pit-trial","190","972090","0.0-150.0","battery-v0.2","","","979.1000000238419","g","elianto","#3366ff99","32","32","1","+10","1830","1","3","","","","","","","6166587899ecb8510945b094&order=1&STUDY_ID=61caf85b4892b889f6411591","145","3","1","win","go","0"
"pit-trial","191","976945","0.0-151.0","battery-v0.2","","","-1","u","elianto","#3366ff99","-1","-1","1","+10","","0","3","","","","","","","6166587899ecb8510945b094&order=1&STUDY_ID=61caf85b4892b889f6411591","146","0","2","win","no-go","0"
"pit-trial","192","981799","0.0-152.0","battery-v0.2","","","-1","a","elianto","#f73b6a7A","-1","-1","1","0","","0","3","","","","","","","6166587899ecb8510945b094&order=1&STUDY_ID=61caf85b4892b889f6411591","147","2","4","lose","no-go","0"
"pit-trial","193","986654","0.0-153.0","battery-v0.2","","","-1","l","elianto","#f73b6a7A","32","-1","0","-10","","0","3","","","","","","","6166587899ecb8510945b094&order=1&STUDY_ID=61caf85b4892b889f6411591","148","1","3","lose","go","0"
"pit-trial","194","991509","0.0-154.0","battery-v0.2","","","-1","u","elianto","#3366ff99","-1","-1","1","0","","0","3","","","","","","","6166587899ecb8510945b094&order=1&STUDY_ID=61caf85b4892b889f6411591","149","0","2","win","no-go","1"
"pit-trial","195","996366","0.0-155.0","battery-v0.2","","","-1","a","elianto","#f73b6a7A","-1","-1","1","-10","","0","3","","","","","","","6166587899ecb8510945b094&order=1&STUDY_ID=61caf85b4892b889f6411591","150","2","4","lose","no-go","1"
"pit-trial","196","1000053","0.0-156.0","battery-v0.2","","","830.5","l","elianto","#f73b6a7A","32","32","1","0","1681.6000000238419","1","3","","","","","","","6166587899ecb8510945b094&order=1&STUDY_ID=61caf85b4892b889f6411591","151","1","3","lose","go","0"
"pit-trial","197","1003617","0.0-157.0","battery-v0.2","","","709.2000000178814","g","elianto","#3366ff99","32","32","1","+10","1560.0999999940395","1","3","","","","","","","6166587899ecb8510945b094&order=1&STUDY_ID=61caf85b4892b889f6411591","152","3","1","win","go","0"
"pit-trial","198","1008473","0.0-158.0","battery-v0.2","","","-1","u","elianto","#3366ff99","-1","-1","1","+10","","0","3","","","","","","","6166587899ecb8510945b094&order=1&STUDY_ID=61caf85b4892b889f6411591","153","0","2","win","no-go","0"
"pit-trial","199","1012515","0.0-159.0","battery-v0.2","","","1178.6000000238419","l","elianto","#f73b6a7A","32","32","1","-10","2036.2999999821186","1","3","","","","","","","6166587899ecb8510945b094&order=1&STUDY_ID=61caf85b4892b889f6411591","154","1","3","lose","go","1"
"pit-trial","200","1016103","0.0-160.0","battery-v0.2","","","731","g","elianto","#3366ff99","32","32","1","0","1582","1","3","","","","","","","6166587899ecb8510945b094&order=1&STUDY_ID=61caf85b4892b889f6411591","155","3","1","win","go","1"
"pit-trial","201","1020958","0.0-161.0","battery-v0.2","","","-1","a","elianto","#f73b6a7A","-1","-1","1","0","","0","3","","","","","","","6166587899ecb8510945b094&order=1&STUDY_ID=61caf85b4892b889f6411591","156","2","4","lose","no-go","0"
"pit-trial","202","1024602","0.0-162.0","battery-v0.2","","","787.1999999880791","g","elianto","#3366ff99","32","32","1","+10","1638.2999999821186","1","3","","","","","","","6166587899ecb8510945b094&order=1&STUDY_ID=61caf85b4892b889f6411591","157","3","1","win","go","0"
"pit-trial","203","1029459","0.0-163.0","battery-v0.2","","","-1","a","elianto","#f73b6a7A","-1","-1","1","0","","0","3","","","","","","","6166587899ecb8510945b094&order=1&STUDY_ID=61caf85b4892b889f6411591","158","2","4","lose","no-go","0"
"pit-trial","204","1034315","0.0-164.0","battery-v0.2","","","-1","l","elianto","#f73b6a7A","32","-1","0","-10","","0","3","","","","","","","6166587899ecb8510945b094&order=1&STUDY_ID=61caf85b4892b889f6411591","159","1","3","lose","go","0"
"pit-trial","205","1039170","0.0-165.0","battery-v0.2","","","-1","u","elianto","#3366ff99","-1","-1","1","+10","","0","3","","","","","","","6166587899ecb8510945b094&order=1&STUDY_ID=61caf85b4892b889f6411591","160","0","2","win","no-go","0"
"pit-trial","206","1042670","0.0-166.0","battery-v0.2","","","643.5999999940395","g","elianto","#3366ff99","32","32","1","+10","1494.5999999940395","1","3","","","","","","","6166587899ecb8510945b094&order=1&STUDY_ID=61caf85b4892b889f6411591","161","3","1","win","go","0"
"pit-trial","207","1047527","0.0-167.0","battery-v0.2","","","-1","a","elianto","#f73b6a7A","-1","-1","1","0","","0","3","","","","","","","6166587899ecb8510945b094&order=1&STUDY_ID=61caf85b4892b889f6411591","162","2","4","lose","no-go","0"
"pit-trial","208","1052383","0.0-168.0","battery-v0.2","","","-1","u","elianto","#3366ff99","-1","-1","1","0","","0","3","","","","","","","6166587899ecb8510945b094&order=1&STUDY_ID=61caf85b4892b889f6411591","163","0","2","win","no-go","1"
"pit-trial","209","1057239","0.0-169.0","battery-v0.2","","","-1","l","elianto","#f73b6a7A","32","-1","0","-10","","0","3","","","","","","","6166587899ecb8510945b094&order=1&STUDY_ID=61caf85b4892b889f6411591","164","1","3","lose","go","0"
"pit-trial","210","1060844","0.0-170.0","battery-v0.2","","","735.5","g","elianto","#3366ff99","32","32","1","+10","1586.3999999761581","1","3","","","","","","","6166587899ecb8510945b094&order=1&STUDY_ID=61caf85b4892b889f6411591","165","3","1","win","go","0"
"pit-trial","211","1065701","0.0-171.0","battery-v0.2","","","-1","a","elianto","#f73b6a7A","-1","-1","1","0","","0","3","","","","","","","6166587899ecb8510945b094&order=1&STUDY_ID=61caf85b4892b889f6411591","166","2","4","lose","no-go","0"
"pit-trial","212","1070556","0.0-172.0","battery-v0.2","","","-1","l","elianto","#f73b6a7A","32","-1","0","-10","","0","3","","","","","","","6166587899ecb8510945b094&order=1&STUDY_ID=61caf85b4892b889f6411591","167","1","3","lose","go","0"
"pit-trial","213","1075412","0.0-173.0","battery-v0.2","","","-1","u","elianto","#3366ff99","-1","-1","1","0","","0","3","","","","","","","6166587899ecb8510945b094&order=1&STUDY_ID=61caf85b4892b889f6411591","168","0","2","win","no-go","1"
"pit-trial","214","1079454","0.0-174.0","battery-v0.2","","","1188.5999999940395","u","elianto","#3366ff99","-1","32","0","0","2039","1","3","","","","","","","6166587899ecb8510945b094&order=1&STUDY_ID=61caf85b4892b889f6411591","169","0","2","win","no-go","0"
"pit-trial","215","1083102","0.0-175.0","battery-v0.2","","","793.5999999940395","g","elianto","#3366ff99","32","32","1","+10","1643.8999999761581","1","3","","","","","","","6166587899ecb8510945b094&order=1&STUDY_ID=61caf85b4892b889f6411591","170","3","1","win","go","0"
"pit-trial","216","1087957","0.0-176.0","battery-v0.2","","","-1","l","elianto","#f73b6a7A","32","-1","0","0","","0","3","","","","","","","6166587899ecb8510945b094&order=1&STUDY_ID=61caf85b4892b889f6411591","171","1","3","lose","go","1"
"pit-trial","217","1092820","0.0-177.0","battery-v0.2","","","-1","a","elianto","#f73b6a7A","-1","-1","1","0","","0","3","","","","","","","6166587899ecb8510945b094&order=1&STUDY_ID=61caf85b4892b889f6411591","172","2","4","lose","no-go","0"
"pit-trial","218","1097690","0.0-178.0","battery-v0.2","","","-1","a","elianto","#f73b6a7A","-1","-1","1","0","","0","3","","","","","","","6166587899ecb8510945b094&order=1&STUDY_ID=61caf85b4892b889f6411591","173","2","4","lose","no-go","0"
"pit-trial","219","1102193","0.0-179.0","battery-v0.2","","","1646.699999988079","s","elianto","#f73b6a7A","-1","32","0","-10","2497.2000000178814","1","3","","","","","","","6166587899ecb8510945b094&order=1&STUDY_ID=61caf85b4892b889f6411591","174","5","4","lose","no-go","0"
"pit-trial","220","1107049","0.0-180.0","battery-v0.2","","","-1","l","elianto","#f73b6a7A","32","-1","0","0","","0","3","","","","","","","6166587899ecb8510945b094&order=1&STUDY_ID=61caf85b4892b889f6411591","175","1","3","lose","go","1"
"pit-trial","221","1111905","0.0-181.0","battery-v0.2","","","-1","p","elianto","#f73b6a7A","32","-1","0","-10","","0","3","","","","","","","6166587899ecb8510945b094&order=1&STUDY_ID=61caf85b4892b889f6411591","176","4","3","lose","go","0"
"pit-trial","222","1116762","0.0-182.0","battery-v0.2","","","-1","s","elianto","#f73b6a7A","-1","-1","1","0","","0","3","","","","","","","6166587899ecb8510945b094&order=1&STUDY_ID=61caf85b4892b889f6411591","177","5","4","lose","no-go","0"
"pit-trial","223","1121619","0.0-183.0","battery-v0.2","","","-1","l","elianto","#f73b6a7A","32","-1","0","-10","","0","3","","","","","","","6166587899ecb8510945b094&order=1&STUDY_ID=61caf85b4892b889f6411591","178","1","3","lose","go","0"
"pit-trial","224","1126039","0.0-184.0","battery-v0.2","","","1565.5","p","elianto","#f73b6a7A","32","32","1","0","2415.699999988079","1","3","","","","","","","6166587899ecb8510945b094&order=1&STUDY_ID=61caf85b4892b889f6411591","179","4","3","lose","go","0"
"pit-trial","225","1130894","0.0-185.0","battery-v0.2","","","-1","a","elianto","#f73b6a7A","-1","-1","1","0","","0","3","","","","","","","6166587899ecb8510945b094&order=1&STUDY_ID=61caf85b4892b889f6411591","180","2","4","lose","no-go","0"
"pit-trial","226","1135750","0.0-186.0","battery-v0.2","","","-1","s","elianto","#f73b6a7A","-1","-1","1","0","","0","3","","","","","","","6166587899ecb8510945b094&order=1&STUDY_ID=61caf85b4892b889f6411591","181","5","4","lose","no-go","0"
"pit-trial","227","1140007","0.0-187.0","battery-v0.2","","","1399","w","elianto","#3366ff99","-1","32","0","0","2251.600000023842","1","3","","","","","","","6166587899ecb8510945b094&order=1&STUDY_ID=61caf85b4892b889f6411591","182","6","2","win","no-go","0"
"pit-trial","228","1144113","0.0-188.0","battery-v0.2","","","1247.199999988079","p","elianto","#f73b6a7A","32","32","1","0","2098.9000000059605","1","3","","","","","","","6166587899ecb8510945b094&order=1&STUDY_ID=61caf85b4892b889f6411591","183","4","3","lose","go","0"
"pit-trial","229","1148969","0.0-189.0","battery-v0.2","","","-1","a","elianto","#f73b6a7A","-1","-1","1","-10","","0","3","","","","","","","6166587899ecb8510945b094&order=1&STUDY_ID=61caf85b4892b889f6411591","184","2","4","lose","no-go","1"
"pit-trial","230","1153825","0.0-190.0","battery-v0.2","","","-1","a","elianto","#f73b6a7A","-1","-1","1","0","","0","3","","","","","","","6166587899ecb8510945b094&order=1&STUDY_ID=61caf85b4892b889f6411591","185","2","4","lose","no-go","0"
"pit-trial","231","1158680","0.0-191.0","battery-v0.2","","","-1","w","elianto","#3366ff99","-1","-1","1","0","","0","3","","","","","","","6166587899ecb8510945b094&order=1&STUDY_ID=61caf85b4892b889f6411591","186","6","2","win","no-go","1"
"pit-trial","232","1162593","0.0-192.0","battery-v0.2","","","1058.300000011921","p","elianto","#f73b6a7A","32","32","1","-10","1909.9000000059605","1","3","","","","","","","6166587899ecb8510945b094&order=1&STUDY_ID=61caf85b4892b889f6411591","187","4","3","lose","go","1"
"pit-trial","233","1167450","0.0-193.0","battery-v0.2","","","-1","s","elianto","#f73b6a7A","-1","-1","1","0","","0","3","","","","","","","6166587899ecb8510945b094&order=1&STUDY_ID=61caf85b4892b889f6411591","188","5","4","lose","no-go","0"
"pit-trial","234","1172305","0.0-194.0","battery-v0.2","","","-1","s","elianto","#f73b6a7A","-1","-1","1","0","","0","3","","","","","","","6166587899ecb8510945b094&order=1&STUDY_ID=61caf85b4892b889f6411591","189","5","4","lose","no-go","0"
"pit-trial","235","1175918","0.0-195.0","battery-v0.2","","","757.3000000119209","w","elianto","#3366ff99","-1","32","0","0","1608","1","3","","","","","","","6166587899ecb8510945b094&order=1&STUDY_ID=61caf85b4892b889f6411591","190","6","2","win","no-go","0"
"pit-trial","236","1179958","0.0-196.0","battery-v0.2","","","1185.5999999940395","p","elianto","#f73b6a7A","32","32","1","0","2036.2999999821186","1","3","","","","","","","6166587899ecb8510945b094&order=1&STUDY_ID=61caf85b4892b889f6411591","191","4","3","lose","go","0"
"pit-trial","237","1184080","0.0-197.0","battery-v0.2","","","1267.5999999940395","e","elianto","#3366ff99","32","32","1","+10","2118.699999988079","1","3","","","","","","","6166587899ecb8510945b094&order=1&STUDY_ID=61caf85b4892b889f6411591","192","7","1","win","go","0"
"pit-trial","238","1187912","0.0-198.0","battery-v0.2","","","976.7999999821186","e","elianto","#3366ff99","32","32","1","0","1827.0999999940395","1","3","","","","","","","6166587899ecb8510945b094&order=1&STUDY_ID=61caf85b4892b889f6411591","193","7","1","win","go","1"
"pit-trial","239","1192765","0.0-199.0","battery-v0.2","","","-1","s","elianto","#f73b6a7A","-1","-1","1","0","","0","3","","","","","","","6166587899ecb8510945b094&order=1&STUDY_ID=61caf85b4892b889f6411591","194","5","4","lose","no-go","0"
"pit-trial","240","1197620","0.0-200.0","battery-v0.2","","","-1","w","elianto","#3366ff99","-1","-1","1","+10","","0","3","","","","","","","6166587899ecb8510945b094&order=1&STUDY_ID=61caf85b4892b889f6411591","195","6","2","win","no-go","0"
"pit-trial","241","1201952","0.0-201.0","battery-v0.2","","","1475","p","elianto","#f73b6a7A","32","32","1","-10","2325.5999999940395","1","3","","","","","","","6166587899ecb8510945b094&order=1&STUDY_ID=61caf85b4892b889f6411591","196","4","3","lose","go","1"
"pit-trial","242","1206806","0.0-202.0","battery-v0.2","","","-1","s","elianto","#f73b6a7A","-1","-1","1","0","","0","3","","","","","","","6166587899ecb8510945b094&order=1&STUDY_ID=61caf85b4892b889f6411591","197","5","4","lose","no-go","0"
"pit-trial","243","1210549","0.0-203.0","battery-v0.2","","","889.4000000059605","e","elianto","#3366ff99","32","32","1","+10","1739.5","1","3","","","","","","","6166587899ecb8510945b094&order=1&STUDY_ID=61caf85b4892b889f6411591","198","7","1","win","go","0"
"pit-trial","244","1214784","0.0-204.0","battery-v0.2","","","1379.5999999940395","p","elianto","#f73b6a7A","32","32","1","0","2232","1","3","","","","","","","6166587899ecb8510945b094&order=1&STUDY_ID=61caf85b4892b889f6411591","199","4","3","lose","go","0"
"pit-trial","245","1219640","0.0-205.0","battery-v0.2","","","-1","w","elianto","#3366ff99","-1","-1","1","+10","","0","3","","","","","","","6166587899ecb8510945b094&order=1&STUDY_ID=61caf85b4892b889f6411591","200","6","2","win","no-go","0"
"pit-trial","246","1223207","0.0-206.0","battery-v0.2","","","713.6000000238419","e","elianto","#3366ff99","32","32","1","+10","1564.0999999940395","1","3","","","","","","","6166587899ecb8510945b094&order=1&STUDY_ID=61caf85b4892b889f6411591","201","7","1","win","go","0"
"pit-trial","247","1228063","0.0-207.0","battery-v0.2","","","-1","s","elianto","#f73b6a7A","-1","-1","1","-10","","0","3","","","","","","","6166587899ecb8510945b094&order=1&STUDY_ID=61caf85b4892b889f6411591","202","5","4","lose","no-go","1"
"pit-trial","248","1232918","0.0-208.0","battery-v0.2","","","-1","w","elianto","#3366ff99","-1","-1","1","+10","","0","3","","","","","","","6166587899ecb8510945b094&order=1&STUDY_ID=61caf85b4892b889f6411591","203","6","2","win","no-go","0"
"pit-trial","249","1236817","0.0-209.0","battery-v0.2","","","1040.5","p","elianto","#f73b6a7A","32","32","1","0","1891","1","3","","","","","","","6166587899ecb8510945b094&order=1&STUDY_ID=61caf85b4892b889f6411591","204","4","3","lose","go","0"
"pit-trial","250","1240482","0.0-210.0","battery-v0.2","","","811.9000000059605","e","elianto","#3366ff99","32","32","1","0","1662.300000011921","1","3","","","","","","","6166587899ecb8510945b094&order=1&STUDY_ID=61caf85b4892b889f6411591","205","7","1","win","go","1"
"pit-trial","251","1245338","0.0-211.0","battery-v0.2","","","-1","s","elianto","#f73b6a7A","-1","-1","1","0","","0","3","","","","","","","6166587899ecb8510945b094&order=1&STUDY_ID=61caf85b4892b889f6411591","206","5","4","lose","no-go","0"
"pit-trial","252","1250193","0.0-212.0","battery-v0.2","","","-1","w","elianto","#3366ff99","-1","-1","1","+10","","0","3","","","","","","","6166587899ecb8510945b094&order=1&STUDY_ID=61caf85b4892b889f6411591","207","6","2","win","no-go","0"
"pit-trial","253","1254019","0.0-213.0","battery-v0.2","","","972.2999999821186","p","elianto","#f73b6a7A","32","32","1","0","1822.7999999821186","1","3","","","","","","","6166587899ecb8510945b094&order=1&STUDY_ID=61caf85b4892b889f6411591","208","4","3","lose","go","0"
"pit-trial","254","1257849","0.0-214.0","battery-v0.2","","","974.6999999880791","e","elianto","#3366ff99","32","32","1","+10","1825.0999999940395","1","3","","","","","","","6166587899ecb8510945b094&order=1&STUDY_ID=61caf85b4892b889f6411591","209","7","1","win","go","0"
"pit-trial","255","1261901","0.0-215.0","battery-v0.2","","","1196.699999988079","p","elianto","#f73b6a7A","32","32","1","-10","2046.9000000059605","1","3","","","","","","","6166587899ecb8510945b094&order=1&STUDY_ID=61caf85b4892b889f6411591","210","4","3","lose","go","1"
"pit-trial","256","1266757","0.0-216.0","battery-v0.2","","","-1","w","elianto","#3366ff99","-1","-1","1","0","","0","3","","","","","","","6166587899ecb8510945b094&order=1&STUDY_ID=61caf85b4892b889f6411591","211","6","2","win","no-go","1"
"pit-trial","257","1271619","0.0-217.0","battery-v0.2","","","-1","s","elianto","#f73b6a7A","-1","-1","1","0","","0","3","","","","","","","6166587899ecb8510945b094&order=1&STUDY_ID=61caf85b4892b889f6411591","212","5","4","lose","no-go","0"
"pit-trial","258","1275517","0.0-218.0","battery-v0.2","","","1043.7000000178814","p","elianto","#f73b6a7A","32","32","1","0","1894.2000000178814","1","3","","","","","","","6166587899ecb8510945b094&order=1&STUDY_ID=61caf85b4892b889f6411591","213","4","3","lose","go","0"
"pit-trial","259","1279366","0.0-219.0","battery-v0.2","","","997.4000000059605","k","elianto","#3366ff99","32","32","1","0","1847.800000011921","1","3","","","","","","","6166587899ecb8510945b094&order=1&STUDY_ID=61caf85b4892b889f6411591","214","8","1","win","go","1"
"pit-trial","260","1283209","0.0-220.0","battery-v0.2","","","988.4000000059605","e","elianto","#3366ff99","32","32","1","0","1839","1","3","","","","","","","6166587899ecb8510945b094&order=1&STUDY_ID=61caf85b4892b889f6411591","215","7","1","win","go","1"
"pit-trial","261","1288065","0.0-221.0","battery-v0.2","","","-1","w","elianto","#3366ff99","-1","-1","1","+10","","0","3","","","","","","","6166587899ecb8510945b094&order=1&STUDY_ID=61caf85b4892b889f6411591","216","6","2","win","no-go","0"
"pit-trial","262","1292920","0.0-222.0","battery-v0.2","","","-1","w","elianto","#3366ff99","-1","-1","1","+10","","0","3","","","","","","","6166587899ecb8510945b094&order=1&STUDY_ID=61caf85b4892b889f6411591","217","6","2","win","no-go","0"
"pit-trial","263","1297776","0.0-223.0","battery-v0.2","","","-1","k","elianto","#3366ff99","32","-1","0","0","","0","3","","","","","","","6166587899ecb8510945b094&order=1&STUDY_ID=61caf85b4892b889f6411591","218","8","1","win","go","0"
"pit-trial","264","1301704","0.0-224.0","battery-v0.2","","","1074.7000000178814","p","elianto","#f73b6a7A","32","32","1","0","1925.0999999940395","1","3","","","","","","","6166587899ecb8510945b094&order=1&STUDY_ID=61caf85b4892b889f6411591","219","4","3","lose","go","0"
"pit-trial","265","1305603","0.0-225.0","battery-v0.2","","","1046.0999999940395","e","elianto","#3366ff99","32","32","1","+10","1897.7999999821186","1","3","","","","","","","6166587899ecb8510945b094&order=1&STUDY_ID=61caf85b4892b889f6411591","220","7","1","win","go","0"
"pit-trial","266","1310458","0.0-226.0","battery-v0.2","","","-1","k","elianto","#3366ff99","32","-1","0","0","","0","3","","","","","","","6166587899ecb8510945b094&order=1&STUDY_ID=61caf85b4892b889f6411591","221","8","1","win","go","0"
"pit-trial","267","1314142","0.0-227.0","battery-v0.2","","","830.2999999821186","e","elianto","#3366ff99","32","32","1","+10","1680.7999999821186","1","3","","","","","","","6166587899ecb8510945b094&order=1&STUDY_ID=61caf85b4892b889f6411591","222","7","1","win","go","0"
"pit-trial","268","1318996","0.0-228.0","battery-v0.2","","","-1","d","elianto","#3366ff99","-1","-1","1","+10","","0","3","","","","","","","6166587899ecb8510945b094&order=1&STUDY_ID=61caf85b4892b889f6411591","223","9","2","win","no-go","0"
"pit-trial","269","1323853","0.0-229.0","battery-v0.2","","","-1","w","elianto","#3366ff99","-1","-1","1","+10","","0","3","","","","","","","6166587899ecb8510945b094&order=1&STUDY_ID=61caf85b4892b889f6411591","224","6","2","win","no-go","0"
"pit-trial","270","1328721","0.0-230.0","battery-v0.2","","","-1","k","elianto","#3366ff99","32","-1","0","+10","","0","3","","","","","","","6166587899ecb8510945b094&order=1&STUDY_ID=61caf85b4892b889f6411591","225","8","1","win","go","1"
"pit-trial","271","1332432","0.0-231.0","battery-v0.2","","","857.1999999880791","e","elianto","#3366ff99","32","32","1","+10","1707.800000011921","1","3","","","","","","","6166587899ecb8510945b094&order=1&STUDY_ID=61caf85b4892b889f6411591","226","7","1","win","go","0"
"pit-trial","272","1337287","0.0-232.0","battery-v0.2","","","-1","w","elianto","#3366ff99","-1","-1","1","0","","0","3","","","","","","","6166587899ecb8510945b094&order=1&STUDY_ID=61caf85b4892b889f6411591","227","6","2","win","no-go","1"
"pit-trial","273","1342143","0.0-233.0","battery-v0.2","","","-1","d","elianto","#3366ff99","-1","-1","1","0","","0","3","","","","","","","6166587899ecb8510945b094&order=1&STUDY_ID=61caf85b4892b889f6411591","228","9","2","win","no-go","1"
"pit-trial","274","1346711","0.0-234.0","battery-v0.2","","","1713.3999999761581","v","elianto","#f73b6a7A","-1","32","0","-10","2564.699999988079","1","3","","","","","","","6166587899ecb8510945b094&order=1&STUDY_ID=61caf85b4892b889f6411591","229","11","4","lose","no-go","0"
"pit-trial","275","1351567","0.0-235.0","battery-v0.2","","","-1","d","elianto","#3366ff99","-1","-1","1","+10","","0","3","","","","","","","6166587899ecb8510945b094&order=1&STUDY_ID=61caf85b4892b889f6411591","230","9","2","win","no-go","0"
"pit-trial","276","1356421","0.0-236.0","battery-v0.2","","","-1","j","elianto","#f73b6a7A","32","-1","0","0","","0","3","","","","","","","6166587899ecb8510945b094&order=1&STUDY_ID=61caf85b4892b889f6411591","231","10","3","lose","go","1"
"pit-trial","277","1361276","0.0-237.0","battery-v0.2","","","-1","k","elianto","#3366ff99","32","-1","0","+10","","0","3","","","","","","","6166587899ecb8510945b094&order=1&STUDY_ID=61caf85b4892b889f6411591","232","8","1","win","go","1"
"pit-trial","278","1366131","0.0-238.0","battery-v0.2","","","-1","v","elianto","#f73b6a7A","-1","-1","1","0","","0","3","","","","","","","6166587899ecb8510945b094&order=1&STUDY_ID=61caf85b4892b889f6411591","233","11","4","lose","no-go","0"
"pit-trial","279","1370985","0.0-239.0","battery-v0.2","","","-1","k","elianto","#3366ff99","32","-1","0","0","","0","3","","","","","","","6166587899ecb8510945b094&order=1&STUDY_ID=61caf85b4892b889f6411591","234","8","1","win","go","0"
"pit-trial","280","1375842","0.0-240.0","battery-v0.2","","","-1","j","elianto","#f73b6a7A","32","-1","0","0","","0","3","","","","","","","6166587899ecb8510945b094&order=1&STUDY_ID=61caf85b4892b889f6411591","235","10","3","lose","go","1"
"pit-trial","281","1380705","0.0-241.0","battery-v0.2","","","-1","d","elianto","#3366ff99","-1","-1","1","+10","","0","3","","","","","","","6166587899ecb8510945b094&order=1&STUDY_ID=61caf85b4892b889f6411591","236","9","2","win","no-go","0"
"pit-trial","282","1385562","0.0-242.0","battery-v0.2","","","-1","j","elianto","#f73b6a7A","32","-1","0","-10","","0","3","","","","","","","6166587899ecb8510945b094&order=1&STUDY_ID=61caf85b4892b889f6411591","237","10","3","lose","go","0"
"pit-trial","283","1390417","0.0-243.0","battery-v0.2","","","-1","d","elianto","#3366ff99","-1","-1","1","+10","","0","3","","","","","","","6166587899ecb8510945b094&order=1&STUDY_ID=61caf85b4892b889f6411591","238","9","2","win","no-go","0"
"pit-trial","284","1395270","0.0-244.0","battery-v0.2","","","-1","v","elianto","#f73b6a7A","-1","-1","1","0","","0","3","","","","","","","6166587899ecb8510945b094&order=1&STUDY_ID=61caf85b4892b889f6411591","239","11","4","lose","no-go","0"
"pit-trial","285","1400124","0.0-245.0","battery-v0.2","","","-1","k","elianto","#3366ff99","32","-1","0","0","","0","3","","","","","","","6166587899ecb8510945b094&order=1&STUDY_ID=61caf85b4892b889f6411591","240","8","1","win","go","0"
"pit-trial","286","1404978","0.0-246.0","battery-v0.2","","","-1","v","elianto","#f73b6a7A","-1","-1","1","0","","0","3","","","","","","","6166587899ecb8510945b094&order=1&STUDY_ID=61caf85b4892b889f6411591","241","11","4","lose","no-go","0"
"pit-trial","287","1409841","0.0-247.0","battery-v0.2","","","-1","j","elianto","#f73b6a7A","32","-1","0","-10","","0","3","","","","","","","6166587899ecb8510945b094&order=1&STUDY_ID=61caf85b4892b889f6411591","242","10","3","lose","go","0"
"pit-trial","288","1414695","0.0-248.0","battery-v0.2","","","-1","k","elianto","#3366ff99","32","-1","0","0","","0","3","","","","","","","6166587899ecb8510945b094&order=1&STUDY_ID=61caf85b4892b889f6411591","243","8","1","win","go","0"
"pit-trial","289","1419548","0.0-249.0","battery-v0.2","","","-1","d","elianto","#3366ff99","-1","-1","1","0","","0","3","","","","","","","6166587899ecb8510945b094&order=1&STUDY_ID=61caf85b4892b889f6411591","244","9","2","win","no-go","1"
"pit-trial","290","1423477","0.0-250.0","battery-v0.2","","","1073.4000000059605","d","elianto","#3366ff99","-1","32","0","0","1924.0999999940395","1","3","","","","","","","6166587899ecb8510945b094&order=1&STUDY_ID=61caf85b4892b889f6411591","245","9","2","win","no-go","0"
"pit-trial","291","1427447","0.0-251.0","battery-v0.2","","","1114.0999999940395","j","elianto","#f73b6a7A","32","32","1","0","1965.300000011921","1","3","","","","","","","6166587899ecb8510945b094&order=1&STUDY_ID=61caf85b4892b889f6411591","246","10","3","lose","go","0"
"pit-trial","292","1431327","0.0-252.0","battery-v0.2","","","1025.199999988079","k","elianto","#3366ff99","32","32","1","0","1875.4000000059605","1","3","","","","","","","6166587899ecb8510945b094&order=1&STUDY_ID=61caf85b4892b889f6411591","247","8","1","win","go","1"
"pit-trial","293","1436180","0.0-253.0","battery-v0.2","","","-1","v","elianto","#f73b6a7A","-1","-1","1","0","","0","3","","","","","","","6166587899ecb8510945b094&order=1&STUDY_ID=61caf85b4892b889f6411591","248","11","4","lose","no-go","0"
"pit-trial","294","1441046","0.0-254.0","battery-v0.2","","","-1","k","elianto","#3366ff99","32","-1","0","+10","","0","3","","","","","","","6166587899ecb8510945b094&order=1&STUDY_ID=61caf85b4892b889f6411591","249","8","1","win","go","1"
"pit-trial","295","1445118","0.0-255.0","battery-v0.2","","","1219.300000011921","j","elianto","#f73b6a7A","32","32","1","-10","2069.4000000059605","1","3","","","","","","","6166587899ecb8510945b094&order=1&STUDY_ID=61caf85b4892b889f6411591","250","10","3","lose","go","1"
"pit-trial","296","1449972","0.0-256.0","battery-v0.2","","","-1","v","elianto","#f73b6a7A","-1","-1","1","0","","0","3","","","","","","","6166587899ecb8510945b094&order=1&STUDY_ID=61caf85b4892b889f6411591","251","11","4","lose","no-go","0"
"pit-trial","297","1454836","0.0-257.0","battery-v0.2","","","-1","d","elianto","#3366ff99","-1","-1","1","+10","","0","3","","","","","","","6166587899ecb8510945b094&order=1&STUDY_ID=61caf85b4892b889f6411591","252","9","2","win","no-go","0"
"pit-trial","298","1459692","0.0-258.0","battery-v0.2","","","-1","k","elianto","#3366ff99","32","-1","0","+10","","0","3","","","","","","","6166587899ecb8510945b094&order=1&STUDY_ID=61caf85b4892b889f6411591","253","8","1","win","go","1"
"pit-trial","299","1464547","0.0-259.0","battery-v0.2","","","-1","d","elianto","#3366ff99","-1","-1","1","+10","","0","3","","","","","","","6166587899ecb8510945b094&order=1&STUDY_ID=61caf85b4892b889f6411591","254","9","2","win","no-go","0"
"pit-trial","300","1469402","0.0-260.0","battery-v0.2","","","-1","v","elianto","#f73b6a7A","-1","-1","1","0","","0","3","","","","","","","6166587899ecb8510945b094&order=1&STUDY_ID=61caf85b4892b889f6411591","255","11","4","lose","no-go","0"
"pit-trial","301","1474259","0.0-261.0","battery-v0.2","","","-1","j","elianto","#f73b6a7A","32","-1","0","0","","0","3","","","","","","","6166587899ecb8510945b094&order=1&STUDY_ID=61caf85b4892b889f6411591","256","10","3","lose","go","1"
"pit-trial","302","1479115","0.0-262.0","battery-v0.2","","","-1","j","elianto","#f73b6a7A","32","-1","0","0","","0","3","","","","","","","6166587899ecb8510945b094&order=1&STUDY_ID=61caf85b4892b889f6411591","257","10","3","lose","go","1"
"pit-trial","303","1483969","0.0-263.0","battery-v0.2","","","-1","d","elianto","#3366ff99","-1","-1","1","0","","0","3","","","","","","","6166587899ecb8510945b094&order=1&STUDY_ID=61caf85b4892b889f6411591","258","9","2","win","no-go","1"
"pit-trial","304","1488836","0.0-264.0","battery-v0.2","","","-1","k","elianto","#3366ff99","32","-1","0","0","","0","3","","","","","","","6166587899ecb8510945b094&order=1&STUDY_ID=61caf85b4892b889f6411591","259","8","1","win","go","0"
"pit-trial","305","1493690","0.0-265.0","battery-v0.2","","","-1","v","elianto","#f73b6a7A","-1","-1","1","0","","0","3","","","","","","","6166587899ecb8510945b094&order=1&STUDY_ID=61caf85b4892b889f6411591","260","11","4","lose","no-go","0"
