"trial_type","trial_index","time_elapsed","internal_node_id","task_version","success","view_history","rt","responses","num_errors","age","subject","participantId","rune","rune_set","hex","correct","choice","accuracy","outcome","keys","total_keys","block","practice","value","sub","trial","stimulus","robot","valence","action","sham","browser_interactions"
"pavlovia","0","6","0.0-0.0","battery-v0.2","","","","","","","","","","","","","","","","","","","","","","","","","","","",""
"fullscreen","1","62252","0.0-1.0","battery-v0.2","true","","","","","","","","","","","","","","","","","","","","","","","","","","",""
"pit-instructions","2","66036","0.0-2.0-0.0","battery-v0.2","","[{""page_index"":0,""viewing_time"":3781}]","3781","","","","","","","","","","","","","","","","","","","","","","","","",""
"pit-comprehension","3","68024","0.0-2.0-1.0-0.0","battery-v0.2","","","1987","[""shark""]","0","19","896","286","","","","","","","","","","","","","","","","","","","",""
"pit-instructions","4","69270","0.0-2.0-1.0-1.0","battery-v0.2","","[{""page_index"":0,""viewing_time"":1244}]","1244","","","","","","","","","","","","","","","","","","","","","","","","",""
"pit-comprehension","5","70829","0.0-2.0-2.0-0.0","battery-v0.2","","","1557","[""tiger""]","0","19","896","286","","","","","","","","","","","","","","","","","","","",""
"pit-instructions","6","71448","0.0-2.0-2.0-1.0","battery-v0.2","","[{""page_index"":0,""viewing_time"":617}]","617","","","","","","","","","","","","","","","","","","","","","","","","",""
"pit-instructions","7","169133","0.0-2.0-3.0","battery-v0.2","","[{""page_index"":0,""viewing_time"":9240},{""page_index"":1,""viewing_time"":5958},{""page_index"":2,""viewing_time"":6736},{""page_index"":3,""viewing_time"":5667},{""page_index"":4,""viewing_time"":6205},{""page_index"":5,""viewing_time"":5694},{""page_index"":6,""viewing_time"":6978},{""page_index"":7,""viewing_time"":9042},{""page_index"":8,""viewing_time"":6389},{""page_index"":9,""viewing_time"":8539},{""page_index"":10,""viewing_time"":7563},{""page_index"":11,""viewing_time"":8335},{""page_index"":12,""viewing_time"":6247},{""page_index"":13,""viewing_time"":5089}]","97682","","","","","","","","","","","","","","","","","","","","","","","","",""
"pit-trial","8","172525","0.0-2.0-4.0-0.0","battery-v0.2","","","520","","","19","896","286","&#9784;","elianto","#FFFFF080"," "," ","1","&#10004","[1384]","1","0","0","","","","","","","","",""
"pit-trial","9","175927","0.0-2.0-4.1-0.1","battery-v0.2","","","534","","","19","896","286","&#9784;","elianto","#FFFFF080"," "," ","1","&#10004","[1400]","1","0","0","","","","","","","","",""
"pit-trial","10","179204","0.0-2.0-4.2-0.2","battery-v0.2","","","415","","","19","896","286","&#9784;","elianto","#FFFFF080"," "," ","1","&#10004","[1271]","1","0","0","","","","","","","","",""
"pit-trial","11","182510","0.0-2.0-4.3-0.3","battery-v0.2","","","439","","","19","896","286","&#9784;","elianto","#FFFFF080"," "," ","1","&#10004","[1300]","1","0","0","","","","","","","","",""
"pit-trial","12","185835","0.0-2.0-4.4-0.4","battery-v0.2","","","462","","","19","896","286","&#9784;","elianto","#FFFFF080"," "," ","1","&#10004","[1317]","1","0","0","","","","","","","","",""
"pit-instructions","13","206798","0.0-2.0-5.0","battery-v0.2","","[{""page_index"":0,""viewing_time"":4904},{""page_index"":1,""viewing_time"":5187},{""page_index"":2,""viewing_time"":4604},{""page_index"":3,""viewing_time"":6267}]","20962","","","","","","","","","","","","","","","","","","","","","","","","",""
"pit-trial","14","211664","0.0-2.0-6.0-0.0","battery-v0.2","","","-1","","","19","896","286","&#9854;","elianto","#FFFFF080","-1","-1","1","&#10004","[]","0","0","1","","","","","","","","",""
"pit-trial","15","216529","0.0-2.0-6.1-0.1","battery-v0.2","","","-1","","","19","896","286","&#9854;","elianto","#FFFFF080","-1","-1","1","&#10004","[]","0","0","1","","","","","","","","",""
"pit-trial","16","221409","0.0-2.0-6.2-0.2","battery-v0.2","","","-1","","","19","896","286","&#9854;","elianto","#FFFFF080","-1","-1","1","&#10004","[]","0","0","1","","","","","","","","",""
"pit-trial","17","226275","0.0-2.0-6.3-0.3","battery-v0.2","","","-1","","","19","896","286","&#9854;","elianto","#FFFFF080","-1","-1","1","&#10004","[]","0","0","1","","","","","","","","",""
"pit-trial","18","231141","0.0-2.0-6.4-0.4","battery-v0.2","","","-1","","","19","896","286","&#9854;","elianto","#FFFFF080","-1","-1","1","&#10004","[]","0","0","1","","","","","","","","",""
"pit-instructions","19","352824","0.0-2.0-7.0","battery-v0.2","","[{""page_index"":0,""viewing_time"":9342},{""page_index"":1,""viewing_time"":7620},{""page_index"":2,""viewing_time"":6039},{""page_index"":3,""viewing_time"":6795},{""page_index"":4,""viewing_time"":5340},{""page_index"":5,""viewing_time"":5692},{""page_index"":6,""viewing_time"":4539},{""page_index"":7,""viewing_time"":8984},{""page_index"":8,""viewing_time"":7358},{""page_index"":9,""viewing_time"":5778},{""page_index"":10,""viewing_time"":6958},{""page_index"":11,""viewing_time"":6841},{""page_index"":12,""viewing_time"":7009},{""page_index"":13,""viewing_time"":6588},{""page_index"":14,""viewing_time"":7230},{""page_index"":15,""viewing_time"":6316},{""page_index"":16,""viewing_time"":6172},{""page_index"":17,""viewing_time"":7080}]","121682","","","","","","","","","","","","","","","","","","","","","","","","",""
"pit-trial","20","356163","0.0-2.0-8.0-0.0","battery-v0.2","","","470","","","19","896","286","&#9776;","elianto","#3366ff99"," "," ","1","+10","[1333]","1","0","1","","","","","","","","",""
"pit-trial","21","359419","0.0-2.0-8.0-1.0","battery-v0.2","","","377","","","19","896","286","&#9776;","elianto","#3366ff99"," "," ","1","+10","[1243]","1","0","1","","","","","","","","",""
"pit-trial","22","362658","0.0-2.0-8.0-2.0","battery-v0.2","","","369","","","19","896","286","&#9776;","elianto","#3366ff99"," "," ","1","+10","[1224]","1","0","1","","","","","","","","",""
"pit-trial","23","365892","0.0-2.0-8.0-3.0","battery-v0.2","","","367","","","19","896","286","&#9776;","elianto","#3366ff99"," "," ","1","0","[1226]","1","0","1","","","","","","","","",""
"pit-trial","24","369129","0.0-2.0-8.0-4.0","battery-v0.2","","","365","","","19","896","286","&#9776;","elianto","#3366ff99"," "," ","1","+10","[1223]","1","0","1","","","","","","","","",""
"call-function","25","369130","0.0-2.0-9.0","battery-v0.2","","","","","","","","","","","","","","","","","","","","","","","","","","","",""
"pit-instructions","26","406013","0.0-2.0-10.0","battery-v0.2","","[{""page_index"":0,""viewing_time"":5481},{""page_index"":1,""viewing_time"":6639},{""page_index"":2,""viewing_time"":9533},{""page_index"":3,""viewing_time"":8083},{""page_index"":4,""viewing_time"":7147}]","36883","","","","","","","","","","","","","","","","","","","","","","","","",""
"pit-trial","27","410883","0.0-2.0-11.0-0.0","battery-v0.2","","","-1","","","19","896","286","&#9761;","elianto","#3366ff99","-1","-1","1","+10","[]","0","0","2","","","","","","","","",""
"pit-trial","28","415760","0.0-2.0-11.0-1.0","battery-v0.2","","","-1","","","19","896","286","&#9761;","elianto","#3366ff99","-1","-1","1","+10","[]","0","0","2","","","","","","","","",""
"pit-trial","29","420625","0.0-2.0-11.0-2.0","battery-v0.2","","","-1","","","19","896","286","&#9761;","elianto","#3366ff99","-1","-1","1","+10","[]","0","0","2","","","","","","","","",""
"pit-trial","30","425494","0.0-2.0-11.0-3.0","battery-v0.2","","","-1","","","19","896","286","&#9761;","elianto","#3366ff99","-1","-1","1","0","[]","0","0","2","","","","","","","","",""
"pit-trial","31","430365","0.0-2.0-11.0-4.0","battery-v0.2","","","-1","","","19","896","286","&#9761;","elianto","#3366ff99","-1","-1","1","+10","[]","0","0","2","","","","","","","","",""
"call-function","32","430365","0.0-2.0-12.0","battery-v0.2","","","","","","","","","","","","","","","","","","","","","","","","","","","",""
"pit-instructions","33","471935","0.0-2.0-13.0","battery-v0.2","","[{""page_index"":0,""viewing_time"":4603},{""page_index"":1,""viewing_time"":7045},{""page_index"":2,""viewing_time"":3257},{""page_index"":3,""viewing_time"":21995},{""page_index"":4,""viewing_time"":4668}]","41568","","","","","","","","","","","","","","","","","","","","","","","","",""
"pit-trial","34","475657","0.0-2.0-14.0-0.0","battery-v0.2","","","868","","","19","896","286","&#9826;","elianto","#f73b6a7A","-1"," ","0","-10","[1720]","1","0","3","","","","","","","","",""
"pit-trial","35","480521","0.0-2.0-14.0-1.0","battery-v0.2","","","-1","","","19","896","286","&#9826;","elianto","#f73b6a7A","-1","-1","1","0","[]","0","0","3","","","","","","","","",""
"pit-trial","36","485397","0.0-2.0-14.0-2.0","battery-v0.2","","","-1","","","19","896","286","&#9826;","elianto","#f73b6a7A","-1","-1","1","0","[]","0","0","3","","","","","","","","",""
"pit-trial","37","490255","0.0-2.0-14.0-3.0","battery-v0.2","","","-1","","","19","896","286","&#9826;","elianto","#f73b6a7A","-1","-1","1","-10","[]","0","0","3","","","","","","","","",""
"pit-trial","38","495127","0.0-2.0-14.0-4.0","battery-v0.2","","","-1","","","19","896","286","&#9826;","elianto","#f73b6a7A","-1","-1","1","0","[]","0","0","3","","","","","","","","",""
"call-function","39","495127","0.0-2.0-15.0","battery-v0.2","","","","","","","","","","","","","","","","","","","","","","","","","","","",""
"pit-instructions","40","520245","0.0-2.0-16.0","battery-v0.2","","[{""page_index"":0,""viewing_time"":6763},{""page_index"":1,""viewing_time"":8904},{""page_index"":2,""viewing_time"":4381},{""page_index"":3,""viewing_time"":5071}]","25119","","","","","","","","","","","","","","","","","","","","","","","","",""
"pit-trial","41","523570","0.0-2.0-17.0-0.0","battery-v0.2","","","459","","","19","896","286","&#9789;","elianto","#f73b6a7A"," "," ","1","0","[1312]","1","0","4","","","","","","","","",""
"pit-trial","42","526765","0.0-2.0-17.0-1.0","battery-v0.2","","","320","","","19","896","286","&#9789;","elianto","#f73b6a7A"," "," ","1","0","[1183]","1","0","4","","","","","","","","",""
"pit-trial","43","530178","0.0-2.0-17.0-2.0","battery-v0.2","","","546","","","19","896","286","&#9789;","elianto","#f73b6a7A"," "," ","1","0","[1405]","1","0","4","","","","","","","","",""
"pit-trial","44","533571","0.0-2.0-17.0-3.0","battery-v0.2","","","527","","","19","896","286","&#9789;","elianto","#f73b6a7A"," "," ","1","-10","[1386]","1","0","4","","","","","","","","",""
"pit-trial","45","536801","0.0-2.0-17.0-4.0","battery-v0.2","","","374","","","19","896","286","&#9789;","elianto","#f73b6a7A"," "," ","1","0","[1229]","1","0","4","","","","","","","","",""
"call-function","46","536802","0.0-2.0-18.0","battery-v0.2","","","","","","","","","","","","","","","","","","","","","","","","","","","",""
"pit-instructions","47","610619","0.0-2.0-19.0","battery-v0.2","","[{""page_index"":0,""viewing_time"":6382},{""page_index"":1,""viewing_time"":8459},{""page_index"":2,""viewing_time"":14448},{""page_index"":3,""viewing_time"":7449},{""page_index"":4,""viewing_time"":8694},{""page_index"":5,""viewing_time"":8563},{""page_index"":6,""viewing_time"":8414},{""page_index"":7,""viewing_time"":7248},{""page_index"":8,""viewing_time"":4160}]","73817","","","","","","","","","","","","","","","","","","","","","","","","",""
"pit-comprehension","48","615129","0.0-2.0-20.0-0.0","battery-v0.2","","","4509","[""SPACE""]","0","19","896","286","","","","","","","","","","","","","","","","","","","",""
"pit-instructions","49","618872","0.0-2.0-20.0-1.0","battery-v0.2","","[{""page_index"":0,""viewing_time"":3736}]","3736","","","","","","","","","","","","","","","","","","","","","","","","",""
"pit-comprehension","50","623545","0.0-2.0-21.0-0.0","battery-v0.2","","","4671","[""10""]","0","19","896","286","","","","","","","","","","","","","","","","","","","",""
"pit-instructions","51","629686","0.0-2.0-21.0-1.0","battery-v0.2","","[{""page_index"":0,""viewing_time"":6134}]","6134","","","","","","","","","","","","","","","","","","","","","","","","",""
"pit-comprehension","52","636100","0.0-2.0-22.0-0.0","battery-v0.2","","","6412","[""0""]","0","19","896","286","","","","","","","","","","","","","","","","","","","",""
"pit-instructions","53","637213","0.0-2.0-22.0-1.0","battery-v0.2","","[{""page_index"":0,""viewing_time"":1108}]","1108","","","","","","","","","","","","","","","","","","","","","","","","",""
"pit-comprehension","54","645377","0.0-2.0-23.0-0.0","battery-v0.2","","","8162","[""True""]","0","19","896","286","","","","","","","","","","","","","","","","","","","",""
"pit-instructions","55","647011","0.0-2.0-23.0-1.0","battery-v0.2","","[{""page_index"":0,""viewing_time"":1633}]","1633","","","","","","","","","","","","","","","","","","","","","","","","",""
"pit-comprehension","56","654525","0.0-2.0-24.0-0.0","battery-v0.2","","","7513","[""True""]","0","19","896","286","","","","","","","","","","","","","","","","","","","",""
"pit-instructions","57","657528","0.0-2.0-24.0-1.0","battery-v0.2","","[{""page_index"":0,""viewing_time"":2998}]","2998","","","","","","","","","","","","","","","","","","","","","","","","",""
"pit-comprehension","58","663891","0.0-2.0-25.0-0.0","battery-v0.2","","","6361","[""True""]","0","19","896","286","","","","","","","","","","","","","","","","","","","",""
"pit-instructions","59","666693","0.0-2.0-25.0-1.0","battery-v0.2","","[{""page_index"":0,""viewing_time"":2795}]","2795","","","","","","","","","","","","","","","","","","","","","","","","",""
"pit-comprehension","60","671118","0.0-2.0-26.0-0.0","battery-v0.2","","","4423","[""False""]","0","19","896","286","","","","","","","","","","","","","","","","","","","",""
"pit-instructions","61","674137","0.0-2.0-26.0-1.0","battery-v0.2","","[{""page_index"":0,""viewing_time"":3013}]","3013","","","","","","","","","","","","","","","","","","","","","","","","",""
"pit-instructions","62","691385","0.0-3.0","battery-v0.2","","[{""page_index"":0,""viewing_time"":4427},{""page_index"":1,""viewing_time"":5153},{""page_index"":2,""viewing_time"":7666}]","17246","","","","","","","","","","","","","","","","","","","","","","","","",""
"pit-trial","63","694827","0.0-4.0","battery-v0.2","","","581","","","19","896","286","&#9730;","elianto","#3366ff99"," "," ","1","0","[1437]","1","1","","","896","1","1","1","win","go","1","[]"
"pit-trial","64","698333","0.0-5.0","battery-v0.2","","","646","","","19","896","286","&#9733;","elianto","#3366ff99","-1"," ","0","0","[1497]","1","1","","","896","2","2","2","win","no-go","0","0"
"pit-trial","65","701956","0.0-6.0","battery-v0.2","","","751","","","19","896","286","&#9728;","elianto","#f73b6a7A","-1"," ","0","0","[1609]","1","1","","","896","3","0","4","lose","no-go","1","0"
"pit-trial","66","705235","0.0-7.0","battery-v0.2","","","410","","","19","896","286","&#9752;","elianto","#f73b6a7A"," "," ","1","0","[1269]","1","1","","","896","4","3","3","lose","go","0","0"
"pit-trial","67","708950","0.0-8.0","battery-v0.2","","","836","","","19","896","286","&#9730;","elianto","#3366ff99"," "," ","1","+10","[1701]","1","1","","","896","5","1","1","win","go","0","0"
"pit-trial","68","712601","0.0-9.0","battery-v0.2","","","794","","","19","896","286","&#9728;","elianto","#f73b6a7A","-1"," ","0","-10","[1648]","1","1","","","896","6","0","4","lose","no-go","0","0"
"pit-trial","69","715945","0.0-10.0","battery-v0.2","","","486","","","19","896","286","&#9733;","elianto","#3366ff99","-1"," ","0","+10","[1341]","1","1","","","896","7","2","2","win","no-go","1","0"
"pit-trial","70","719579","0.0-11.0","battery-v0.2","","","769","","","19","896","286","&#9752;","elianto","#f73b6a7A"," "," ","1","0","[1625]","1","1","","","896","8","3","3","lose","go","0","0"
"pit-trial","71","722913","0.0-12.0","battery-v0.2","","","481","","","19","896","286","&#9730;","elianto","#3366ff99"," "," ","1","+10","[1331]","1","1","","","896","9","1","1","win","go","0","0"
"pit-trial","72","727787","0.0-13.0","battery-v0.2","","","-1","","","19","896","286","&#9728;","elianto","#f73b6a7A","-1","-1","1","0","[]","0","1","","","896","10","0","4","lose","no-go","0","0"
"pit-trial","73","731693","0.0-14.0","battery-v0.2","","","1030","","","19","896","286","&#9752;","elianto","#f73b6a7A"," "," ","1","0","[1889]","1","1","","","896","11","3","3","lose","go","0","0"
"pit-trial","74","735249","0.0-15.0","battery-v0.2","","","690","","","19","896","286","&#9733;","elianto","#3366ff99","-1"," ","0","0","[1554]","1","1","","","896","12","2","2","win","no-go","0","0"
"pit-trial","75","738599","0.0-16.0","battery-v0.2","","","496","","","19","896","286","&#9730;","elianto","#3366ff99"," "," ","1","+10","[1348]","1","1","","","896","13","1","1","win","go","0","0"
"pit-trial","76","743471","0.0-17.0","battery-v0.2","","","-1","","","19","896","286","&#9733;","elianto","#3366ff99","-1","-1","1","+10","[]","0","1","","","896","14","2","2","win","no-go","0","0"
"pit-trial","77","748335","0.0-18.0","battery-v0.2","","","-1","","","19","896","286","&#9728;","elianto","#f73b6a7A","-1","-1","1","0","[]","0","1","","","896","15","0","4","lose","no-go","0","0"
"pit-trial","78","751796","0.0-19.0","battery-v0.2","","","597","","","19","896","286","&#9752;","elianto","#f73b6a7A"," "," ","1","0","[1453]","1","1","","","896","16","3","3","lose","go","0","0"
"pit-trial","79","755862","0.0-20.0","battery-v0.2","","","1189","","","19","896","286","&#9752;","elianto","#f73b6a7A"," "," ","1","-10","[2052]","1","1","","","896","17","3","3","lose","go","1","0"
"pit-trial","80","760728","0.0-21.0","battery-v0.2","","","-1","","","19","896","286","&#9728;","elianto","#f73b6a7A","-1","-1","1","0","[]","0","1","","","896","18","0","4","lose","no-go","0","0"
"pit-trial","81","765586","0.0-22.0","battery-v0.2","","","-1","","","19","896","286","&#9733;","elianto","#3366ff99","-1","-1","1","+10","[]","0","1","","","896","19","2","2","win","no-go","0","0"
"pit-trial","82","769032","0.0-23.0","battery-v0.2","","","591","","","19","896","286","&#9730;","elianto","#3366ff99"," "," ","1","+10","[1443]","1","1","","","896","20","1","1","win","go","0","0"
"pit-instructions","83","782014","0.0-24.0","battery-v0.2","","[{""page_index"":0,""viewing_time"":5871},{""page_index"":1,""viewing_time"":7110}]","12981","","","","","","","","","","","","","","","","","","","","","","","","",""
"pit-trial","84","785379","0.0-25.0","battery-v0.2","","","503","","","19","896","286","d","elianto","#3366ff99"," "," ","1","+10","[1355]","1","2","","","896","21","2","1","win","go","0","0"
"pit-trial","85","788771","0.0-26.0","battery-v0.2","","","522","","","19","896","286","v","elianto","#3366ff99","-1"," ","0","0","[1383]","1","2","","","896","22","0","2","win","no-go","0","0"
"pit-trial","86","792170","0.0-27.0","battery-v0.2","","","531","","","19","896","286","k","elianto","#f73b6a7A"," "," ","1","-10","[1387]","1","2","","","896","23","3","3","lose","go","1","0"
"pit-trial","87","795603","0.0-28.0","battery-v0.2","","","561","","","19","896","286","j","elianto","#3366ff99","-1"," ","0","0","[1423]","1","2","","","896","24","1","2","win","no-go","0","0"
"pit-trial","88","800477","0.0-29.0","battery-v0.2","","","-1","","","19","896","286","j","elianto","#3366ff99","-1","-1","1","+10","[]","0","2","","","896","25","1","2","win","no-go","0","0"
"pit-trial","89","803899","0.0-30.0","battery-v0.2","","","563","","","19","896","286","d","elianto","#3366ff99"," "," ","1","+10","[1421]","1","2","","","896","26","2","1","win","go","0","0"
"pit-trial","90","807784","0.0-31.0","battery-v0.2","","","1034","","","19","896","286","v","elianto","#3366ff99","-1"," ","0","0","[1885]","1","2","","","896","27","0","2","win","no-go","0","0"
"pit-trial","91","812650","0.0-32.0","battery-v0.2","","","-1","","","19","896","286","k","elianto","#f73b6a7A"," ","-1","0","0","[]","0","2","","","896","28","3","3","lose","go","1","0"
"pit-trial","92","817504","0.0-33.0","battery-v0.2","","","-1","","","19","896","286","k","elianto","#f73b6a7A"," ","-1","0","-10","[]","0","2","","","896","29","3","3","lose","go","0","0"
"pit-trial","93","822366","0.0-34.0","battery-v0.2","","","-1","","","19","896","286","j","elianto","#3366ff99","-1","-1","1","0","[]","0","2","","","896","30","1","2","win","no-go","1","0"
"pit-trial","94","827225","0.0-35.0","battery-v0.2","","","-1","","","19","896","286","v","elianto","#3366ff99","-1","-1","1","+10","[]","0","2","","","896","31","0","2","win","no-go","0","0"
"pit-trial","95","830619","0.0-36.0","battery-v0.2","","","518","","","19","896","286","d","elianto","#3366ff99"," "," ","1","0","[1379]","1","2","","","896","32","2","1","win","go","1","0"
"pit-trial","96","833919","0.0-37.0","battery-v0.2","","","442","","","19","896","286","j","elianto","#3366ff99","-1"," ","0","+10","[1298]","1","2","","","896","33","1","2","win","no-go","1","0"
"pit-trial","97","838776","0.0-38.0","battery-v0.2","","","-1","","","19","896","286","v","elianto","#3366ff99","-1","-1","1","+10","[]","0","2","","","896","34","0","2","win","no-go","0","0"
"pit-trial","98","843633","0.0-39.0","battery-v0.2","","","-1","","","19","896","286","k","elianto","#f73b6a7A"," ","-1","0","-10","[]","0","2","","","896","35","3","3","lose","go","0","0"
"pit-trial","99","847017","0.0-40.0","battery-v0.2","","","510","","","19","896","286","d","elianto","#3366ff99"," "," ","1","+10","[1373]","1","2","","","896","36","2","1","win","go","0","0"
"pit-trial","100","850365","0.0-41.0","battery-v0.2","","","474","","","19","896","286","j","elianto","#3366ff99","-1"," ","0","+10","[1335]","1","2","","","896","37","1","2","win","no-go","1","0"
"pit-trial","101","853683","0.0-42.0","battery-v0.2","","","451","","","19","896","286","k","elianto","#f73b6a7A"," "," ","1","-10","[1312]","1","2","","","896","38","3","3","lose","go","1","0"
"pit-trial","102","858537","0.0-43.0","battery-v0.2","","","-1","","","19","896","286","v","elianto","#3366ff99","-1","-1","1","0","[]","0","2","","","896","39","0","2","win","no-go","1","0"
"pit-trial","103","861837","0.0-44.0","battery-v0.2","","","424","","","19","896","286","d","elianto","#3366ff99"," "," ","1","+10","[1286]","1","2","","","896","40","2","1","win","go","0","0"
"pit-trial","104","865346","0.0-45.0","battery-v0.2","","","650","","","19","896","286","d","elianto","#3366ff99"," "," ","1","+10","[1504]","1","2","","","896","41","2","1","win","go","0","0"
"pit-trial","105","870224","0.0-46.0","battery-v0.2","","","-1","","","19","896","286","v","elianto","#3366ff99","-1","-1","1","+10","[]","0","2","","","896","42","0","2","win","no-go","0","0"
"pit-trial","106","875098","0.0-47.0","battery-v0.2","","","-1","","","19","896","286","k","elianto","#f73b6a7A"," ","-1","0","0","[]","0","2","","","896","43","3","3","lose","go","1","0"
"pit-trial","107","878445","0.0-48.0","battery-v0.2","","","469","","","19","896","286","j","elianto","#3366ff99","-1"," ","0","+10","[1332]","1","2","","","896","44","1","2","win","no-go","1","0"
"pit-trial","108","883313","0.0-49.0","battery-v0.2","","","-1","","","19","896","286","v","elianto","#3366ff99","-1","-1","1","+10","[]","0","2","","","896","45","0","2","win","no-go","0","0"
"pit-trial","109","886672","0.0-50.0","battery-v0.2","","","488","","","19","896","286","d","elianto","#3366ff99"," "," ","1","+10","[1352]","1","2","","","896","46","2","1","win","go","0","0"
"pit-trial","110","890054","0.0-51.0","battery-v0.2","","","516","","","19","896","286","j","elianto","#3366ff99","-1"," ","0","0","[1380]","1","2","","","896","47","1","2","win","no-go","0","0"
"pit-trial","111","894926","0.0-52.0","battery-v0.2","","","-1","","","19","896","286","k","elianto","#f73b6a7A"," ","-1","0","-10","[]","0","2","","","896","48","3","3","lose","go","0","0"
"pit-trial","112","899789","0.0-53.0","battery-v0.2","","","-1","","","19","896","286","k","elianto","#f73b6a7A"," ","-1","0","-10","[]","0","2","","","896","49","3","3","lose","go","0","0"
"pit-trial","113","903335","0.0-54.0","battery-v0.2","","","673","","","19","896","286","j","elianto","#3366ff99","-1"," ","0","0","[1533]","1","2","","","896","50","1","2","win","no-go","0","0"
"pit-trial","114","908195","0.0-55.0","battery-v0.2","","","-1","","","19","896","286","v","elianto","#3366ff99","-1","-1","1","+10","[]","0","2","","","896","51","0","2","win","no-go","0","0"
"pit-trial","115","911600","0.0-56.0","battery-v0.2","","","547","","","19","896","286","d","elianto","#3366ff99"," "," ","1","+10","[1400]","1","2","","","896","52","2","1","win","go","0","0"
"pit-trial","116","916472","0.0-57.0","battery-v0.2","","","-1","","","19","896","286","w","elianto","#f73b6a7A"," ","-1","0","-10","[]","0","2","","","896","53","5","3","lose","go","0","0"
"pit-trial","117","921334","0.0-58.0","battery-v0.2","","","-1","","","19","896","286","v","elianto","#3366ff99","-1","-1","1","+10","[]","0","2","","","896","54","0","2","win","no-go","0","0"
"pit-trial","118","925026","0.0-59.0","battery-v0.2","","","822","","","19","896","286","d","elianto","#3366ff99"," "," ","1","0","[1684]","1","2","","","896","55","2","1","win","go","1","0"
"pit-trial","119","929903","0.0-60.0","battery-v0.2","","","-1","","","19","896","286","e","elianto","#f73b6a7A","-1","-1","1","-10","[]","0","2","","","896","56","4","4","lose","no-go","1","0"
"pit-trial","120","934774","0.0-61.0","battery-v0.2","","","-1","","","19","896","286","v","elianto","#3366ff99","-1","-1","1","+10","[]","0","2","","","896","57","0","2","win","no-go","0","0"
"pit-trial","121","939294","0.0-62.0","battery-v0.2","","","1657","","","19","896","286","w","elianto","#f73b6a7A"," "," ","1","0","[2512]","1","2","","","896","58","5","3","lose","go","0","0"
"pit-trial","122","942758","0.0-63.0","battery-v0.2","","","598","","","19","896","286","d","elianto","#3366ff99"," "," ","1","+10","[1457]","1","2","","","896","59","2","1","win","go","0","0"
"pit-trial","123","947634","0.0-64.0","battery-v0.2","","","-1","","","19","896","286","e","elianto","#f73b6a7A","-1","-1","1","0","[3247]","1","2","","","896","60","4","4","lose","no-go","0","0"
"pit-trial","124","951051","0.0-65.0","battery-v0.2","","","554","","","19","896","286","d","elianto","#3366ff99"," "," ","1","+10","[1410]","1","2","","","896","61","2","1","win","go","0","0"
"pit-trial","125","954587","0.0-66.0","battery-v0.2","","","666","","","19","896","286","e","elianto","#f73b6a7A","-1"," ","0","-10","[1524]","1","2","","","896","62","4","4","lose","no-go","0","0"
"pit-trial","126","958636","0.0-67.0","battery-v0.2","","","1176","","","19","896","286","w","elianto","#f73b6a7A"," "," ","1","0","[2037]","1","2","","","896","63","5","3","lose","go","0","0"
"pit-trial","127","962427","0.0-68.0","battery-v0.2","","","920","","","19","896","286","s","elianto","#3366ff99","-1"," ","0","0","[1782]","1","2","","","896","64","6","2","win","no-go","0","0"
"pit-trial","128","966426","0.0-69.0","battery-v0.2","","","1120","","","19","896","286","w","elianto","#f73b6a7A"," "," ","1","0","[1983]","1","2","","","896","65","5","3","lose","go","0","0"
"pit-trial","129","971293","0.0-70.0","battery-v0.2","","","-1","","","19","896","286","e","elianto","#f73b6a7A","-1","-1","1","-10","[]","0","2","","","896","66","4","4","lose","no-go","1","0"
"pit-trial","130","974799","0.0-71.0","battery-v0.2","","","643","","","19","896","286","d","elianto","#3366ff99"," "," ","1","+10","[1496]","1","2","","","896","67","2","1","win","go","0","0"
"pit-trial","131","979676","0.0-72.0","battery-v0.2","","","-1","","","19","896","286","s","elianto","#3366ff99","-1","-1","1","+10","[]","0","2","","","896","68","6","2","win","no-go","0","0"
"pit-trial","132","984538","0.0-73.0","battery-v0.2","","","-1","","","19","896","286","e","elianto","#f73b6a7A","-1","-1","1","0","[]","0","2","","","896","69","4","4","lose","no-go","0","0"
"pit-trial","133","988162","0.0-74.0","battery-v0.2","","","764","","","19","896","286","w","elianto","#f73b6a7A"," "," ","1","0","[1615]","1","2","","","896","70","5","3","lose","go","0","0"
"pit-trial","134","993022","0.0-75.0","battery-v0.2","","","-1","","","19","896","286","p","elianto","#f73b6a7A","-1","-1","1","0","[]","0","2","","","896","71","7","4","lose","no-go","0","0"
"pit-trial","135","997893","0.0-76.0","battery-v0.2","","","-1","","","19","896","286","s","elianto","#3366ff99","-1","-1","1","0","[]","0","2","","","896","72","6","2","win","no-go","1","0"
"pit-trial","136","1002761","0.0-77.0","battery-v0.2","","","-1","","","19","896","286","p","elianto","#f73b6a7A","-1","-1","1","0","[]","0","2","","","896","73","7","4","lose","no-go","0","0"
"pit-trial","137","1006503","0.0-78.0","battery-v0.2","","","872","","","19","896","286","w","elianto","#f73b6a7A"," "," ","1","0","[1736]","1","2","","","896","74","5","3","lose","go","0","0"
"pit-trial","138","1011366","0.0-79.0","battery-v0.2","","","-1","","","19","896","286","s","elianto","#3366ff99","-1","-1","1","+10","[]","0","2","","","896","75","6","2","win","no-go","0","0"
"pit-trial","139","1016226","0.0-80.0","battery-v0.2","","","-1","","","19","896","286","e","elianto","#f73b6a7A","-1","-1","1","0","[]","0","2","","","896","76","4","4","lose","no-go","0","0"
"pit-trial","140","1020014","0.0-81.0","battery-v0.2","","","913","","","19","896","286","w","elianto","#f73b6a7A"," "," ","1","0","[1772]","1","2","","","896","77","5","3","lose","go","0","0"
"pit-trial","141","1024881","0.0-82.0","battery-v0.2","","","-1","","","19","896","286","s","elianto","#3366ff99","-1","-1","1","0","[]","0","2","","","896","78","6","2","win","no-go","1","0"
"pit-trial","142","1029734","0.0-83.0","battery-v0.2","","","-1","","","19","896","286","e","elianto","#f73b6a7A","-1","-1","1","0","[]","0","2","","","896","79","4","4","lose","no-go","0","0"
"pit-trial","143","1034604","0.0-84.0","battery-v0.2","","","-1","","","19","896","286","p","elianto","#f73b6a7A","-1","-1","1","-10","[]","0","2","","","896","80","7","4","lose","no-go","1","0"
"pit-trial","144","1038905","0.0-85.0","battery-v0.2","","","1435","","","19","896","286","p","elianto","#f73b6a7A","-1"," ","0","-10","[2290]","1","2","","","896","81","7","4","lose","no-go","0","0"
"pit-trial","145","1043777","0.0-86.0","battery-v0.2","","","-1","","","19","896","286","e","elianto","#f73b6a7A","-1","-1","1","0","[]","0","2","","","896","82","4","4","lose","no-go","0","0"
"pit-trial","146","1048034","0.0-87.0","battery-v0.2","","","1398","","","19","896","286","s","elianto","#3366ff99","-1"," ","0","0","[2247]","1","2","","","896","83","6","2","win","no-go","0","0"
"pit-trial","147","1051716","0.0-88.0","battery-v0.2","","","805","","","19","896","286","w","elianto","#f73b6a7A"," "," ","1","0","[1665]","1","2","","","896","84","5","3","lose","go","0","0"
"pit-trial","148","1056570","0.0-89.0","battery-v0.2","","","-1","","","19","896","286","s","elianto","#3366ff99","-1","-1","1","0","[]","0","2","","","896","85","6","2","win","no-go","1","0"
"pit-trial","149","1061431","0.0-90.0","battery-v0.2","","","-1","","","19","896","286","e","elianto","#f73b6a7A","-1","-1","1","0","[]","0","2","","","896","86","4","4","lose","no-go","0","0"
"pit-trial","150","1066303","0.0-91.0","battery-v0.2","","","-1","","","19","896","286","p","elianto","#f73b6a7A","-1","-1","1","0","[]","0","2","","","896","87","7","4","lose","no-go","0","0"
"pit-trial","151","1070152","0.0-92.0","battery-v0.2","","","984","","","19","896","286","w","elianto","#f73b6a7A"," "," ","1","-10","[1841]","1","2","","","896","88","5","3","lose","go","1","0"
"pit-trial","152","1075022","0.0-93.0","battery-v0.2","","","-1","","","19","896","286","p","elianto","#f73b6a7A","-1","-1","1","0","[]","0","2","","","896","89","7","4","lose","no-go","0","0"
"pit-trial","153","1079368","0.0-94.0","battery-v0.2","","","1467","","","19","896","286","w","elianto","#f73b6a7A"," "," ","1","0","[2332]","1","2","","","896","90","5","3","lose","go","0","0"
"pit-trial","154","1084241","0.0-95.0","battery-v0.2","","","-1","","","19","896","286","e","elianto","#f73b6a7A","-1","-1","1","-10","[]","0","2","","","896","91","4","4","lose","no-go","1","0"
"pit-trial","155","1089102","0.0-96.0","battery-v0.2","","","-1","","","19","896","286","s","elianto","#3366ff99","-1","-1","1","+10","[]","0","2","","","896","92","6","2","win","no-go","0","0"
"pit-trial","156","1093972","0.0-97.0","battery-v0.2","","","-1","","","19","896","286","s","elianto","#3366ff99","-1","-1","1","+10","[]","0","2","","","896","93","6","2","win","no-go","0","0"
"pit-trial","157","1098851","0.0-98.0","battery-v0.2","","","-1","","","19","896","286","p","elianto","#f73b6a7A","-1","-1","1","0","[]","0","2","","","896","94","7","4","lose","no-go","0","0"
"pit-trial","158","1103709","0.0-99.0","battery-v0.2","","","-1","","","19","896","286","g","elianto","#f73b6a7A","-1","-1","1","0","[]","0","2","","","896","95","8","4","lose","no-go","0","0"
"pit-trial","159","1107475","0.0-100.0","battery-v0.2","","","898","","","19","896","286","w","elianto","#f73b6a7A"," "," ","1","0","[1757]","1","2","","","896","96","5","3","lose","go","0","0"
"pit-trial","160","1111458","0.0-101.0","battery-v0.2","","","1114","","","19","896","286","w","elianto","#f73b6a7A"," "," ","1","0","[1974]","1","2","","","896","97","5","3","lose","go","0","0"
"pit-trial","161","1116319","0.0-102.0","battery-v0.2","","","-1","","","19","896","286","p","elianto","#f73b6a7A","-1","-1","1","0","[]","0","2","","","896","98","7","4","lose","no-go","0","0"
"pit-trial","162","1121183","0.0-103.0","battery-v0.2","","","-1","","","19","896","286","s","elianto","#3366ff99","-1","-1","1","+10","[]","0","2","","","896","99","6","2","win","no-go","0","0"
"pit-trial","163","1126050","0.0-104.0","battery-v0.2","","","-1","","","19","896","286","g","elianto","#f73b6a7A","-1","-1","1","-10","[]","0","2","","","896","100","8","4","lose","no-go","1","0"
"pit-trial","164","1130910","0.0-105.0","battery-v0.2","","","-1","","","19","896","286","s","elianto","#3366ff99","-1","-1","1","+10","[]","0","2","","","896","101","6","2","win","no-go","0","0"
"pit-trial","165","1135780","0.0-106.0","battery-v0.2","","","-1","","","19","896","286","l","elianto","#f73b6a7A"," ","-1","0","-10","[]","0","2","","","896","102","10","3","lose","go","0","0"
"pit-trial","166","1140282","0.0-107.0","battery-v0.2","","","1635","","","19","896","286","a","elianto","#3366ff99"," "," ","1","0","[2499]","1","2","","","896","103","9","1","win","go","1","0"
"pit-trial","167","1145147","0.0-108.0","battery-v0.2","","","-1","","","19","896","286","g","elianto","#f73b6a7A","-1","-1","1","0","[]","0","2","","","896","104","8","4","lose","no-go","0","0"
"pit-trial","168","1148722","0.0-109.0","battery-v0.2","","","715","","","19","896","286","l","elianto","#f73b6a7A"," "," ","1","-10","[1571]","1","2","","","896","105","10","3","lose","go","1","0"
"pit-trial","169","1153585","0.0-110.0","battery-v0.2","","","-1","","","19","896","286","g","elianto","#f73b6a7A","-1","-1","1","0","[]","0","2","","","896","106","8","4","lose","no-go","0","0"
"pit-trial","170","1157439","0.0-111.0","battery-v0.2","","","987","","","19","896","286","a","elianto","#3366ff99"," "," ","1","+10","[1841]","1","2","","","896","107","9","1","win","go","0","0"
"pit-trial","171","1162302","0.0-112.0","battery-v0.2","","","-1","","","19","896","286","s","elianto","#3366ff99","-1","-1","1","+10","[]","0","2","","","896","108","6","2","win","no-go","0","0"
"pit-trial","172","1165667","0.0-113.0","battery-v0.2","","","493","","","19","896","286","l","elianto","#f73b6a7A"," "," ","1","0","[1355]","1","2","","","896","109","10","3","lose","go","0","0"
"pit-trial","173","1169656","0.0-114.0","battery-v0.2","","","1135","","","19","896","286","a","elianto","#3366ff99"," "," ","1","+10","[1985]","1","2","","","896","110","9","1","win","go","0","0"
"pit-trial","174","1174527","0.0-115.0","battery-v0.2","","","-1","","","19","896","286","g","elianto","#f73b6a7A","-1","-1","1","0","[]","0","2","","","896","111","8","4","lose","no-go","0","0"
"pit-trial","175","1179398","0.0-116.0","battery-v0.2","","","-1","","","19","896","286","u","elianto","#3366ff99"," ","-1","0","0","[]","0","2","","","896","112","11","1","win","go","0","0"
"pit-trial","176","1184265","0.0-117.0","battery-v0.2","","","-1","","","19","896","286","g","elianto","#f73b6a7A","-1","-1","1","-10","[]","0","2","","","896","113","8","4","lose","no-go","1","0"
"pit-trial","177","1187788","0.0-118.0","battery-v0.2","","","655","","","19","896","286","a","elianto","#3366ff99"," "," ","1","+10","[1520]","1","2","","","896","114","9","1","win","go","0","0"
"pit-trial","178","1191653","0.0-119.0","battery-v0.2","","","991","","","19","896","286","u","elianto","#3366ff99"," "," ","1","+10","[1849]","1","2","","","896","115","11","1","win","go","0","0"
"pit-trial","179","1195411","0.0-120.0","battery-v0.2","","","898","","","19","896","286","l","elianto","#f73b6a7A"," "," ","1","0","[1750]","1","2","","","896","116","10","3","lose","go","0","0"
"pit-trial","180","1198853","0.0-121.0","battery-v0.2","","","575","","","19","896","286","l","elianto","#f73b6a7A"," "," ","1","0","[1438]","1","2","","","896","117","10","3","lose","go","0","0"
"pit-trial","181","1202436","0.0-122.0","battery-v0.2","","","708","","","19","896","286","u","elianto","#3366ff99"," "," ","1","+10","[1573]","1","2","","","896","118","11","1","win","go","0","0"
"pit-trial","182","1207290","0.0-123.0","battery-v0.2","","","-1","","","19","896","286","g","elianto","#f73b6a7A","-1","-1","1","0","[]","0","2","","","896","119","8","4","lose","no-go","0","0"
"pit-trial","183","1210678","0.0-124.0","battery-v0.2","","","522","","","19","896","286","a","elianto","#3366ff99"," "," ","1","+10","[1377]","1","2","","","896","120","9","1","win","go","0","0"
"pit-trial","184","1214180","0.0-125.0","battery-v0.2","","","633","","","19","896","286","u","elianto","#3366ff99"," "," ","1","+10","[1489]","1","2","","","896","121","11","1","win","go","0","0"
"pit-trial","185","1219048","0.0-126.0","battery-v0.2","","","-1","","","19","896","286","g","elianto","#f73b6a7A","-1","-1","1","0","[]","0","2","","","896","122","8","4","lose","no-go","0","0"
"pit-trial","186","1222582","0.0-127.0","battery-v0.2","","","663","","","19","896","286","l","elianto","#f73b6a7A"," "," ","1","0","[1526]","1","2","","","896","123","10","3","lose","go","0","0"
"pit-trial","187","1225943","0.0-128.0","battery-v0.2","","","491","","","19","896","286","a","elianto","#3366ff99"," "," ","1","+10","[1355]","1","2","","","896","124","9","1","win","go","0","0"
"pit-trial","188","1229336","0.0-129.0","battery-v0.2","","","529","","","19","896","286","u","elianto","#3366ff99"," "," ","1","+10","[1385]","1","2","","","896","125","11","1","win","go","0","0"
"pit-trial","189","1232677","0.0-130.0","battery-v0.2","","","469","","","19","896","286","a","elianto","#3366ff99"," "," ","1","0","[1331]","1","2","","","896","126","9","1","win","go","1","0"
"pit-trial","190","1236088","0.0-131.0","battery-v0.2","","","551","","","19","896","286","l","elianto","#f73b6a7A"," "," ","1","-10","[1405]","1","2","","","896","127","10","3","lose","go","1","0"
"pit-trial","191","1240954","0.0-132.0","battery-v0.2","","","-1","","","19","896","286","g","elianto","#f73b6a7A","-1","-1","1","0","[]","0","2","","","896","128","8","4","lose","no-go","0","0"
"pit-trial","192","1244271","0.0-133.0","battery-v0.2","","","463","","","19","896","286","a","elianto","#3366ff99"," "," ","1","+10","[1313]","1","2","","","896","129","9","1","win","go","0","0"
"pit-trial","193","1249132","0.0-134.0","battery-v0.2","","","-1","","","19","896","286","g","elianto","#f73b6a7A","-1","-1","1","0","[]","0","2","","","896","130","8","4","lose","no-go","0","0"
"pit-trial","194","1252789","0.0-135.0","battery-v0.2","","","792","","","19","896","286","l","elianto","#f73b6a7A"," "," ","1","-10","[1646]","1","2","","","896","131","10","3","lose","go","1","0"
"pit-trial","195","1256279","0.0-136.0","battery-v0.2","","","613","","","19","896","286","u","elianto","#3366ff99"," "," ","1","+10","[1474]","1","2","","","896","132","11","1","win","go","0","0"
"pit-trial","196","1259728","0.0-137.0","battery-v0.2","","","590","","","19","896","286","u","elianto","#3366ff99"," "," ","1","+10","[1448]","1","2","","","896","133","11","1","win","go","0","0"
"pit-trial","197","1264603","0.0-138.0","battery-v0.2","","","-1","","","19","896","286","g","elianto","#f73b6a7A","-1","-1","1","0","[]","0","2","","","896","134","8","4","lose","no-go","0","0"
"pit-trial","198","1268261","0.0-139.0","battery-v0.2","","","790","","","19","896","286","l","elianto","#f73b6a7A"," "," ","1","-10","[1652]","1","2","","","896","135","10","3","lose","go","1","0"
"pit-trial","199","1271714","0.0-140.0","battery-v0.2","","","579","","","19","896","286","a","elianto","#3366ff99"," "," ","1","0","[1443]","1","2","","","896","136","9","1","win","go","1","0"
"pit-trial","200","1276587","0.0-141.0","battery-v0.2","","","-1","","","19","896","286","l","elianto","#f73b6a7A"," ","-1","0","-10","[]","0","2","","","896","137","10","3","lose","go","0","0"
"pit-trial","201","1280093","0.0-142.0","battery-v0.2","","","626","","","19","896","286","u","elianto","#3366ff99"," "," ","1","+10","[1490]","1","2","","","896","138","11","1","win","go","0","0"
"pit-trial","202","1283680","0.0-143.0","battery-v0.2","","","727","","","19","896","286","a","elianto","#3366ff99"," "," ","1","0","[1577]","1","2","","","896","139","9","1","win","go","1","0"
"pit-trial","203","1288538","0.0-144.0","battery-v0.2","","","-1","","","19","896","286","g","elianto","#f73b6a7A","-1","-1","1","0","[]","0","2","","","896","140","8","4","lose","no-go","0","0"
"pit-instructions","204","1341938","0.0-145.0","battery-v0.2","","[{""page_index"":0,""viewing_time"":45242},{""page_index"":1,""viewing_time"":8156}]","53399","","","","","","","","","","","","","","","","","","","","","","","","",""
"pit-trial","205","1345837","0.0-146.0","battery-v0.2","","","1026","","","19","896","286","q","elianto","#3366ff99","-1"," ","0","0","[1891]","1","3","","","896","141","0","2","win","no-go","0","0"
"pit-trial","206","1350690","0.0-147.0","battery-v0.2","","","-1","","","19","896","286","f","elianto","#f73b6a7A","-1","-1","1","0","[]","0","3","","","896","142","2","4","lose","no-go","0","0"
"pit-trial","207","1355559","0.0-148.0","battery-v0.2","","","-1","","","19","896","286","n","elianto","#f73b6a7A"," ","-1","0","-10","[]","0","3","","","896","143","1","3","lose","go","0","0"
"pit-trial","208","1360426","0.0-149.0","battery-v0.2","","","-1","","","19","896","286","x","elianto","#3366ff99"," ","-1","0","0","[]","0","3","","","896","144","3","1","win","go","0","0"
"pit-trial","209","1365293","0.0-150.0","battery-v0.2","","","-1","","","19","896","286","q","elianto","#3366ff99","-1","-1","1","+10","[]","0","3","","","896","145","0","2","win","no-go","0","0"
"pit-trial","210","1368692","0.0-151.0","battery-v0.2","","","525","","","19","896","286","n","elianto","#f73b6a7A"," "," ","1","0","[1383]","1","3","","","896","146","1","3","lose","go","0","0"
"pit-trial","211","1372030","0.0-152.0","battery-v0.2","","","480","","","19","896","286","x","elianto","#3366ff99"," "," ","1","+10","[1334]","1","3","","","896","147","3","1","win","go","0","0"
"pit-trial","212","1376903","0.0-153.0","battery-v0.2","","","-1","","","19","896","286","f","elianto","#f73b6a7A","-1","-1","1","-10","[]","0","3","","","896","148","2","4","lose","no-go","1","0"
"pit-trial","213","1380598","0.0-154.0","battery-v0.2","","","821","","","19","896","286","f","elianto","#f73b6a7A","-1"," ","0","-10","[1684]","1","3","","","896","149","2","4","lose","no-go","0","0"
"pit-trial","214","1384130","0.0-155.0","battery-v0.2","","","676","","","19","896","286","n","elianto","#f73b6a7A"," "," ","1","0","[1526]","1","3","","","896","150","1","3","lose","go","0","0"
"pit-trial","215","1387660","0.0-156.0","battery-v0.2","","","657","","","19","896","286","x","elianto","#3366ff99"," "," ","1","0","[1517]","1","3","","","896","151","3","1","win","go","1","0"
"pit-trial","216","1392531","0.0-157.0","battery-v0.2","","","-1","","","19","896","286","q","elianto","#3366ff99","-1","-1","1","0","[]","0","3","","","896","152","0","2","win","no-go","1","0"
"pit-trial","217","1397401","0.0-158.0","battery-v0.2","","","-1","","","19","896","286","n","elianto","#f73b6a7A"," ","-1","0","-10","[]","0","3","","","896","153","1","3","lose","go","0","0"
"pit-trial","218","1402273","0.0-159.0","battery-v0.2","","","-1","","","19","896","286","x","elianto","#3366ff99"," ","-1","0","+10","[]","0","3","","","896","154","3","1","win","go","1","0"
"pit-trial","219","1407147","0.0-160.0","battery-v0.2","","","-1","","","19","896","286","f","elianto","#f73b6a7A","-1","-1","1","0","[]","0","3","","","896","155","2","4","lose","no-go","0","0"
"pit-trial","220","1412000","0.0-161.0","battery-v0.2","","","-1","","","19","896","286","q","elianto","#3366ff99","-1","-1","1","+10","[]","0","3","","","896","156","0","2","win","no-go","0","0"
"pit-trial","221","1416873","0.0-162.0","battery-v0.2","","","-1","","","19","896","286","q","elianto","#3366ff99","-1","-1","1","0","[]","0","3","","","896","157","0","2","win","no-go","1","0"
"pit-trial","222","1420369","0.0-163.0","battery-v0.2","","","619","","","19","896","286","n","elianto","#f73b6a7A"," "," ","1","0","[1483]","1","3","","","896","158","1","3","lose","go","0","0"
"pit-trial","223","1425229","0.0-164.0","battery-v0.2","","","-1","","","19","896","286","x","elianto","#3366ff99"," ","-1","0","0","[]","0","3","","","896","159","3","1","win","go","0","0"
"pit-trial","224","1430096","0.0-165.0","battery-v0.2","","","-1","","","19","896","286","f","elianto","#f73b6a7A","-1","-1","1","0","[]","0","3","","","896","160","2","4","lose","no-go","0","0"
"pit-trial","225","1433648","0.0-166.0","battery-v0.2","","","685","","","19","896","286","n","elianto","#f73b6a7A"," "," ","1","0","[1549]","1","3","","","896","161","1","3","lose","go","0","0"
"pit-trial","226","1437053","0.0-167.0","battery-v0.2","","","532","","","19","896","286","x","elianto","#3366ff99"," "," ","1","+10","[1394]","1","3","","","896","162","3","1","win","go","0","0"
"pit-trial","227","1440489","0.0-168.0","battery-v0.2","","","579","","","19","896","286","q","elianto","#3366ff99","-1"," ","0","0","[1436]","1","3","","","896","163","0","2","win","no-go","0","0"
"pit-trial","228","1445358","0.0-169.0","battery-v0.2","","","-1","","","19","896","286","f","elianto","#f73b6a7A","-1","-1","1","0","[]","0","3","","","896","164","2","4","lose","no-go","0","0"
"pit-trial","229","1448804","0.0-170.0","battery-v0.2","","","581","","","19","896","286","n","elianto","#f73b6a7A"," "," ","1","0","[1436]","1","3","","","896","165","1","3","lose","go","0","0"
"pit-trial","230","1453660","0.0-171.0","battery-v0.2","","","-1","","","19","896","286","f","elianto","#f73b6a7A","-1","-1","1","0","[]","0","3","","","896","166","2","4","lose","no-go","0","0"
"pit-trial","231","1457223","0.0-172.0","battery-v0.2","","","700","","","19","896","286","x","elianto","#3366ff99"," "," ","1","0","[1556]","1","3","","","896","167","3","1","win","go","1","0"
"pit-trial","232","1462084","0.0-173.0","battery-v0.2","","","-1","","","19","896","286","q","elianto","#3366ff99","-1","-1","1","+10","[]","0","3","","","896","168","0","2","win","no-go","0","0"
"pit-trial","233","1465580","0.0-174.0","battery-v0.2","","","629","","","19","896","286","n","elianto","#f73b6a7A"," "," ","1","-10","[1483]","1","3","","","896","169","1","3","lose","go","1","0"
"pit-trial","234","1468947","0.0-175.0","battery-v0.2","","","496","","","19","896","286","x","elianto","#3366ff99"," "," ","1","+10","[1358]","1","3","","","896","170","3","1","win","go","0","0"
"pit-trial","235","1473806","0.0-176.0","battery-v0.2","","","-1","","","19","896","286","f","elianto","#f73b6a7A","-1","-1","1","0","[]","0","3","","","896","171","2","4","lose","no-go","0","0"
"pit-trial","236","1478663","0.0-177.0","battery-v0.2","","","-1","","","19","896","286","q","elianto","#3366ff99","-1","-1","1","+10","[]","0","3","","","896","172","0","2","win","no-go","0","0"
"pit-trial","237","1483524","0.0-178.0","battery-v0.2","","","-1","","","19","896","286","t","elianto","#f73b6a7A"," ","-1","0","0","[]","0","3","","","896","173","4","3","lose","go","1","0"
"pit-trial","238","1488382","0.0-179.0","battery-v0.2","","","-1","","","19","896","286","b","elianto","#f73b6a7A","-1","-1","1","0","[]","0","3","","","896","174","5","4","lose","no-go","0","0"
"pit-trial","239","1491944","0.0-180.0","battery-v0.2","","","688","","","19","896","286","n","elianto","#f73b6a7A"," "," ","1","0","[1547]","1","3","","","896","175","1","3","lose","go","0","0"
"pit-trial","240","1496810","0.0-181.0","battery-v0.2","","","-1","","","19","896","286","f","elianto","#f73b6a7A","-1","-1","1","0","[]","0","3","","","896","176","2","4","lose","no-go","0","0"
"pit-trial","241","1501664","0.0-182.0","battery-v0.2","","","-1","","","19","896","286","f","elianto","#f73b6a7A","-1","-1","1","0","[]","0","3","","","896","177","2","4","lose","no-go","0","0"
"pit-trial","242","1506527","0.0-183.0","battery-v0.2","","","-1","","","19","896","286","t","elianto","#f73b6a7A"," ","-1","0","-10","[]","0","3","","","896","178","4","3","lose","go","0","0"
"pit-trial","243","1510491","0.0-184.0","battery-v0.2","","","1095","","","19","896","286","n","elianto","#f73b6a7A"," "," ","1","0","[1953]","1","3","","","896","179","1","3","lose","go","0","0"
"pit-trial","244","1515352","0.0-185.0","battery-v0.2","","","-1","","","19","896","286","b","elianto","#f73b6a7A","-1","-1","1","0","[]","0","3","","","896","180","5","4","lose","no-go","0","0"
"pit-trial","245","1520231","0.0-186.0","battery-v0.2","","","-1","","","19","896","286","c","elianto","#3366ff99","-1","-1","1","0","[]","0","3","","","896","181","6","2","win","no-go","1","0"
"pit-trial","246","1525104","0.0-187.0","battery-v0.2","","","-1","","","19","896","286","f","elianto","#f73b6a7A","-1","-1","1","0","[]","0","3","","","896","182","2","4","lose","no-go","0","0"
"pit-trial","247","1529090","0.0-188.0","battery-v0.2","","","1130","","","19","896","286","t","elianto","#f73b6a7A"," "," ","1","0","[1985]","1","3","","","896","183","4","3","lose","go","0","0"
"pit-trial","248","1533958","0.0-189.0","battery-v0.2","","","-1","","","19","896","286","b","elianto","#f73b6a7A","-1","-1","1","0","[]","0","3","","","896","184","5","4","lose","no-go","0","0"
"pit-trial","249","1538827","0.0-190.0","battery-v0.2","","","-1","","","19","896","286","f","elianto","#f73b6a7A","-1","-1","1","0","[]","0","3","","","896","185","2","4","lose","no-go","0","0"
"pit-trial","250","1542726","0.0-191.0","battery-v0.2","","","1027","","","19","896","286","t","elianto","#f73b6a7A"," "," ","1","-10","[1889]","1","3","","","896","186","4","3","lose","go","1","0"
"pit-trial","251","1547593","0.0-192.0","battery-v0.2","","","-1","","","19","896","286","b","elianto","#f73b6a7A","-1","-1","1","0","[]","0","3","","","896","187","5","4","lose","no-go","0","0"
"pit-trial","252","1551372","0.0-193.0","battery-v0.2","","","911","","","19","896","286","c","elianto","#3366ff99","-1"," ","0","0","[1769]","1","3","","","896","188","6","2","win","no-go","0","0"
"pit-trial","253","1555396","0.0-194.0","battery-v0.2","","","1158","","","19","896","286","t","elianto","#f73b6a7A"," "," ","1","0","[2020]","1","3","","","896","189","4","3","lose","go","0","0"
"pit-trial","254","1559475","0.0-195.0","battery-v0.2","","","1206","","","19","896","286","z","elianto","#3366ff99"," "," ","1","+10","[2067]","1","3","","","896","190","7","1","win","go","0","0"
"pit-trial","255","1563599","0.0-196.0","battery-v0.2","","","1262","","","19","896","286","c","elianto","#3366ff99","-1"," ","0","0","[2122]","1","3","","","896","191","6","2","win","no-go","0","0"
"pit-trial","256","1568470","0.0-197.0","battery-v0.2","","","-1","","","19","896","286","b","elianto","#f73b6a7A","-1","-1","1","0","[]","0","3","","","896","192","5","4","lose","no-go","0","0"
"pit-trial","257","1571931","0.0-198.0","battery-v0.2","","","605","","","19","896","286","z","elianto","#3366ff99"," "," ","1","+10","[1457]","1","3","","","896","193","7","1","win","go","0","0"
"pit-trial","258","1575786","0.0-199.0","battery-v0.2","","","989","","","19","896","286","t","elianto","#f73b6a7A"," "," ","1","-10","[1846]","1","3","","","896","194","4","3","lose","go","1","0"
"pit-trial","259","1580645","0.0-200.0","battery-v0.2","","","-1","","","19","896","286","b","elianto","#f73b6a7A","-1","-1","1","0","[]","0","3","","","896","195","5","4","lose","no-go","0","0"
"pit-trial","260","1585523","0.0-201.0","battery-v0.2","","","-1","","","19","896","286","c","elianto","#3366ff99","-1","-1","1","+10","[]","0","3","","","896","196","6","2","win","no-go","0","0"
"pit-trial","261","1589557","0.0-202.0","battery-v0.2","","","1172","","","19","896","286","t","elianto","#f73b6a7A"," "," ","1","0","[2034]","1","3","","","896","197","4","3","lose","go","0","0"
"pit-trial","262","1592996","0.0-203.0","battery-v0.2","","","576","","","19","896","286","z","elianto","#3366ff99"," "," ","1","+10","[1436]","1","3","","","896","198","7","1","win","go","0","0"
"pit-trial","263","1597867","0.0-204.0","battery-v0.2","","","-1","","","19","896","286","b","elianto","#f73b6a7A","-1","-1","1","0","[]","0","3","","","896","199","5","4","lose","no-go","0","0"
"pit-trial","264","1601349","0.0-205.0","battery-v0.2","","","623","","","19","896","286","c","elianto","#3366ff99","-1"," ","0","0","[1479]","1","3","","","896","200","6","2","win","no-go","0","0"
"pit-trial","265","1606226","0.0-206.0","battery-v0.2","","","-1","","","19","896","286","b","elianto","#f73b6a7A","-1","-1","1","0","[]","0","3","","","896","201","5","4","lose","no-go","0","0"
"pit-trial","266","1609926","0.0-207.0","battery-v0.2","","","826","","","19","896","286","c","elianto","#3366ff99","-1"," ","0","0","[1688]","1","3","","","896","202","6","2","win","no-go","0","0"
"pit-trial","267","1613290","0.0-208.0","battery-v0.2","","","490","","","19","896","286","t","elianto","#f73b6a7A"," "," ","1","0","[1353]","1","3","","","896","203","4","3","lose","go","0","0"
"pit-trial","268","1616666","0.0-209.0","battery-v0.2","","","516","","","19","896","286","z","elianto","#3366ff99"," "," ","1","+10","[1374]","1","3","","","896","204","7","1","win","go","0","0"
"pit-trial","269","1620607","0.0-210.0","battery-v0.2","","","1071","","","19","896","286","t","elianto","#f73b6a7A"," "," ","1","0","[1927]","1","3","","","896","205","4","3","lose","go","0","0"
"pit-trial","270","1623946","0.0-211.0","battery-v0.2","","","484","","","19","896","286","z","elianto","#3366ff99"," "," ","1","+10","[1335]","1","3","","","896","206","7","1","win","go","0","0"
"pit-trial","271","1628806","0.0-212.0","battery-v0.2","","","-1","","","19","896","286","c","elianto","#3366ff99","-1","-1","1","+10","[]","0","3","","","896","207","6","2","win","no-go","0","0"
"pit-trial","272","1633667","0.0-213.0","battery-v0.2","","","-1","","","19","896","286","b","elianto","#f73b6a7A","-1","-1","1","-10","[]","0","3","","","896","208","5","4","lose","no-go","1","0"
"pit-trial","273","1638537","0.0-214.0","battery-v0.2","","","-1","","","19","896","286","c","elianto","#3366ff99","-1","-1","1","+10","[]","0","3","","","896","209","6","2","win","no-go","0","0"
"pit-trial","274","1641969","0.0-215.0","battery-v0.2","","","560","","","19","896","286","z","elianto","#3366ff99"," "," ","1","0","[1424]","1","3","","","896","210","7","1","win","go","1","0"
"pit-trial","275","1646835","0.0-216.0","battery-v0.2","","","-1","","","19","896","286","b","elianto","#f73b6a7A","-1","-1","1","-10","[]","0","3","","","896","211","5","4","lose","no-go","1","0"
"pit-trial","276","1650579","0.0-217.0","battery-v0.2","","","880","","","19","896","286","t","elianto","#f73b6a7A"," "," ","1","0","[1744]","1","3","","","896","212","4","3","lose","go","0","0"
"pit-trial","277","1654591","0.0-218.0","battery-v0.2","","","1144","","","19","896","286","h","elianto","#3366ff99"," "," ","1","0","[2003]","1","3","","","896","213","8","1","win","go","1","0"
"pit-trial","278","1658081","0.0-219.0","battery-v0.2","","","616","","","19","896","286","z","elianto","#3366ff99"," "," ","1","+10","[1479]","1","3","","","896","214","7","1","win","go","0","0"
"pit-trial","279","1662960","0.0-220.0","battery-v0.2","","","-1","","","19","896","286","c","elianto","#3366ff99","-1","-1","1","+10","[]","0","3","","","896","215","6","2","win","no-go","0","0"
"pit-trial","280","1666564","0.0-221.0","battery-v0.2","","","739","","","19","896","286","t","elianto","#f73b6a7A"," "," ","1","0","[1596]","1","3","","","896","216","4","3","lose","go","0","0"
"pit-trial","281","1671419","0.0-222.0","battery-v0.2","","","-1","","","19","896","286","c","elianto","#3366ff99","-1","-1","1","+10","[]","0","3","","","896","217","6","2","win","no-go","0","0"
"pit-trial","282","1674909","0.0-223.0","battery-v0.2","","","622","","","19","896","286","z","elianto","#3366ff99"," "," ","1","+10","[1476]","1","3","","","896","218","7","1","win","go","0","0"
"pit-trial","283","1679776","0.0-224.0","battery-v0.2","","","-1","","","19","896","286","h","elianto","#3366ff99"," ","-1","0","0","[]","0","3","","","896","219","8","1","win","go","0","0"
"pit-trial","284","1683275","0.0-225.0","battery-v0.2","","","637","","","19","896","286","t","elianto","#f73b6a7A"," "," ","1","0","[1491]","1","3","","","896","220","4","3","lose","go","0","0"
"pit-trial","285","1687006","0.0-226.0","battery-v0.2","","","866","","","19","896","286","h","elianto","#3366ff99"," "," ","1","+10","[1719]","1","3","","","896","221","8","1","win","go","0","0"
"pit-trial","286","1691867","0.0-227.0","battery-v0.2","","","-1","","","19","896","286","y","elianto","#3366ff99","-1","-1","1","+10","[]","0","3","","","896","222","9","2","win","no-go","0","0"
"pit-trial","287","1696725","0.0-228.0","battery-v0.2","","","-1","","","19","896","286","c","elianto","#3366ff99","-1","-1","1","+10","[]","0","3","","","896","223","6","2","win","no-go","0","0"
"pit-trial","288","1700410","0.0-229.0","battery-v0.2","","","824","","","19","896","286","z","elianto","#3366ff99"," "," ","1","+10","[1681]","1","3","","","896","224","7","1","win","go","0","0"
"pit-trial","289","1705281","0.0-230.0","battery-v0.2","","","-1","","","19","896","286","y","elianto","#3366ff99","-1","-1","1","+10","[]","0","3","","","896","225","9","2","win","no-go","0","0"
"pit-trial","290","1709049","0.0-231.0","battery-v0.2","","","896","","","19","896","286","h","elianto","#3366ff99"," "," ","1","0","[1759]","1","3","","","896","226","8","1","win","go","1","0"
"pit-trial","291","1713909","0.0-232.0","battery-v0.2","","","-1","","","19","896","286","c","elianto","#3366ff99","-1","-1","1","+10","[]","0","3","","","896","227","6","2","win","no-go","0","0"
"pit-trial","292","1717426","0.0-233.0","battery-v0.2","","","650","","","19","896","286","z","elianto","#3366ff99"," "," ","1","+10","[1508]","1","3","","","896","228","7","1","win","go","0","0"
"pit-trial","293","1722296","0.0-234.0","battery-v0.2","","","-1","","","19","896","286","y","elianto","#3366ff99","-1","-1","1","+10","[]","0","3","","","896","229","9","2","win","no-go","0","0"
"pit-trial","294","1726459","0.0-235.0","battery-v0.2","","","1307","","","19","896","286","h","elianto","#3366ff99"," "," ","1","+10","[2159]","1","3","","","896","230","8","1","win","go","0","0"
"pit-trial","295","1731330","0.0-236.0","battery-v0.2","","","-1","","","19","896","286","r","elianto","#f73b6a7A"," ","-1","0","0","[]","0","3","","","896","231","10","3","lose","go","1","0"
"pit-trial","296","1736195","0.0-237.0","battery-v0.2","","","-1","","","19","896","286","m","elianto","#f73b6a7A","-1","-1","1","0","[]","0","3","","","896","232","11","4","lose","no-go","0","0"
"pit-trial","297","1741069","0.0-238.0","battery-v0.2","","","-1","","","19","896","286","m","elianto","#f73b6a7A","-1","-1","1","0","[]","0","3","","","896","233","11","4","lose","no-go","0","0"
"pit-trial","298","1745923","0.0-239.0","battery-v0.2","","","-1","","","19","896","286","y","elianto","#3366ff99","-1","-1","1","+10","[]","0","3","","","896","234","9","2","win","no-go","0","0"
"pit-trial","299","1749637","0.0-240.0","battery-v0.2","","","836","","","19","896","286","h","elianto","#3366ff99"," "," ","1","+10","[1701]","1","3","","","896","235","8","1","win","go","0","0"
"pit-trial","300","1754494","0.0-241.0","battery-v0.2","","","-1","","","19","896","286","r","elianto","#f73b6a7A"," ","-1","0","-10","[]","0","3","","","896","236","10","3","lose","go","0","0"
"pit-trial","301","1759353","0.0-242.0","battery-v0.2","","","-1","","","19","896","286","r","elianto","#f73b6a7A"," ","-1","0","-10","[]","0","3","","","896","237","10","3","lose","go","0","0"
"pit-trial","302","1764222","0.0-243.0","battery-v0.2","","","-1","","","19","896","286","m","elianto","#f73b6a7A","-1","-1","1","0","[]","0","3","","","896","238","11","4","lose","no-go","0","0"
"pit-trial","303","1767767","0.0-244.0","battery-v0.2","","","679","","","19","896","286","h","elianto","#3366ff99"," "," ","1","+10","[1541]","1","3","","","896","239","8","1","win","go","0","0"
"pit-trial","304","1772637","0.0-245.0","battery-v0.2","","","-1","","","19","896","286","y","elianto","#3366ff99","-1","-1","1","+10","[]","0","3","","","896","240","9","2","win","no-go","0","0"
"pit-trial","305","1777490","0.0-246.0","battery-v0.2","","","-1","","","19","896","286","y","elianto","#3366ff99","-1","-1","1","+10","[]","0","3","","","896","241","9","2","win","no-go","0","0"
"pit-trial","306","1781048","0.0-247.0","battery-v0.2","","","691","","","19","896","286","h","elianto","#3366ff99"," "," ","1","+10","[1549]","1","3","","","896","242","8","1","win","go","0","0"
"pit-trial","307","1785911","0.0-248.0","battery-v0.2","","","-1","","","19","896","286","m","elianto","#f73b6a7A","-1","-1","1","0","[]","0","3","","","896","243","11","4","lose","no-go","0","0"
"pit-trial","308","1789273","0.0-249.0","battery-v0.2","","","497","","","19","896","286","r","elianto","#f73b6a7A"," "," ","1","0","[1359]","1","3","","","896","244","10","3","lose","go","0","0"
"pit-trial","309","1792962","0.0-250.0","battery-v0.2","","","816","","","19","896","286","r","elianto","#f73b6a7A"," "," ","1","0","[1675]","1","3","","","896","245","10","3","lose","go","0","0"
"pit-trial","310","1797830","0.0-251.0","battery-v0.2","","","-1","","","19","896","286","y","elianto","#3366ff99","-1","-1","1","0","[]","0","3","","","896","246","9","2","win","no-go","1","0"
"pit-trial","311","1801366","0.0-252.0","battery-v0.2","","","678","","","19","896","286","h","elianto","#3366ff99"," "," ","1","0","[1528]","1","3","","","896","247","8","1","win","go","1","0"
"pit-trial","312","1806230","0.0-253.0","battery-v0.2","","","-1","","","19","896","286","m","elianto","#f73b6a7A","-1","-1","1","0","[]","0","3","","","896","248","11","4","lose","no-go","0","0"
"pit-trial","313","1809706","0.0-254.0","battery-v0.2","","","615","","","19","896","286","r","elianto","#f73b6a7A"," "," ","1","0","[1474]","1","3","","","896","249","10","3","lose","go","0","0"
"pit-trial","314","1813140","0.0-255.0","battery-v0.2","","","567","","","19","896","286","h","elianto","#3366ff99"," "," ","1","+10","[1426]","1","3","","","896","250","8","1","win","go","0","0"
"pit-trial","315","1818011","0.0-256.0","battery-v0.2","","","-1","","","19","896","286","m","elianto","#f73b6a7A","-1","-1","1","0","[]","0","3","","","896","251","11","4","lose","no-go","0","0"
"pit-trial","316","1822877","0.0-257.0","battery-v0.2","","","-1","","","19","896","286","y","elianto","#3366ff99","-1","-1","1","+10","[]","0","3","","","896","252","9","2","win","no-go","0","0"
"pit-trial","317","1827536","0.0-258.0","battery-v0.2","","","1779","","","19","896","286","h","elianto","#3366ff99"," "," ","1","0","[2644]","1","3","","","896","253","8","1","win","go","1","0"
"pit-trial","318","1832407","0.0-259.0","battery-v0.2","","","-1","","","19","896","286","y","elianto","#3366ff99","-1","-1","1","+10","[]","0","3","","","896","254","9","2","win","no-go","0","0"
"pit-trial","319","1835967","0.0-260.0","battery-v0.2","","","689","","","19","896","286","r","elianto","#f73b6a7A"," "," ","1","0","[1554]","1","3","","","896","255","10","3","lose","go","0","0"
"pit-trial","320","1840836","0.0-261.0","battery-v0.2","","","-1","","","19","896","286","m","elianto","#f73b6a7A","-1","-1","1","0","[]","0","3","","","896","256","11","4","lose","no-go","0","0"
"pit-trial","321","1845709","0.0-262.0","battery-v0.2","","","-1","","","19","896","286","m","elianto","#f73b6a7A","-1","-1","1","-10","[]","0","3","","","896","257","11","4","lose","no-go","1","0"
"pit-trial","322","1849250","0.0-263.0","battery-v0.2","","","680","","","19","896","286","h","elianto","#3366ff99"," "," ","1","0","[1537]","1","3","","","896","258","8","1","win","go","1","0"
"pit-trial","323","1853588","0.0-264.0","battery-v0.2","","","1486","","","19","896","286","r","elianto","#f73b6a7A"," "," ","1","0","[2336]","1","3","","","896","259","10","3","lose","go","0","0"
"pit-trial","324","1858454","0.0-265.0","battery-v0.2","","","-1","","","19","896","286","y","elianto","#3366ff99","-1","-1","1","+10","[]","0","3","","","896","260","9","2","win","no-go","0","0"
"pit-instructions","325","1865145","0.0-266.0","battery-v0.2","","[{""page_index"":0,""viewing_time"":6690}]","6690","","","","","","","","","","","","","","","","","","","","","","","","",""
