"trial_type","trial_index","time_elapsed","internal_node_id","task_version","view_history","rt","rune","rune_set","hex","correct","choice","accuracy","outcome","keys","total_keys","block","practice","value","responses","num_errors","sub","trial","stimulus","robot","valence","action","sham"
"pavlovia","0","109","0.0-0.0","battery-v0.2","","","","","","","","","","","","","","","","","","","","","","",""
"pit-instructions","1","53910","0.0-1.0-0.0","battery-v0.2","[{""page_index"":0,""viewing_time"":2449.5349999633618},{""page_index"":1,""viewing_time"":3316.8900000164285},{""page_index"":2,""viewing_time"":4250.085000006948},{""page_index"":3,""viewing_time"":4120.684999972582},{""page_index"":4,""viewing_time"":8250.435000052676},{""page_index"":5,""viewing_time"":4897.469999967143},{""page_index"":6,""viewing_time"":5199.16000001831},{""page_index"":7,""viewing_time"":9142.720000003465},{""page_index"":8,""viewing_time"":7000.614999968093},{""page_index"":9,""viewing_time"":5166.015000024345}]","53794.97499996796","","","","","","","","","","","","","","","","","","","","",""
"pit-trial","2","57921","0.0-1.0-1.0-0.0","battery-v0.2","","-1","1","elianto","#3366ff99","32","-1","0","+1","1461.3450000179","1","0","1","","","","","","","","","",""
"pit-trial","3","61934","0.0-1.0-1.1-0.1","battery-v0.2","","-1","1","elianto","#3366ff99","32","-1","0","+1","","0","0","1","","","","","","","","","",""
"pit-trial","4","64752","0.0-1.0-1.2-0.2","battery-v0.2","","113.08500001905486","1","elianto","#3366ff99","32","32","1","+10","1613.5099999955855","1","0","1","","","","","","","","","",""
"pit-trial","5","68759","0.0-1.0-1.3-0.3","battery-v0.2","","-1","1","elianto","#3366ff99","32","-1","0","+1","","0","0","1","","","","","","","","","",""
"pit-trial","6","72614","0.0-1.0-1.4-0.4","battery-v0.2","","1143.7949999817647","1","elianto","#3366ff99","32","32","1","+10","1462.230000004638,2644.2149999784306","2","0","1","","","","","","","","","",""
"pit-trial","7","76399","0.0-1.0-1.5-0.5","battery-v0.2","","1080.3200000082143","1","elianto","#3366ff99","32","32","1","+10","2580.5200000177138","1","0","1","","","","","","","","","",""
"pit-trial","8","79814","0.0-1.0-1.6-0.6","battery-v0.2","","705.904999980703","1","elianto","#3366ff99","32","32","1","+10","2206.2949999817647","1","0","1","","","","","","","","","",""
"call-function","9","79816","0.0-1.0-2.0","battery-v0.2","","","","","","","","","","","","","","","","","","","","","","",""
"pit-instructions","10","91504","0.0-1.0-3.0","battery-v0.2","[{""page_index"":0,""viewing_time"":7864.979999954812},{""page_index"":1,""viewing_time"":3820.5700000398792}]","11686.179999960586","","","","","","","","","","","","","","","","","","","","",""
"pit-trial","11","95177","0.0-1.0-4.0-0.0","battery-v0.2","","962.0250000152737","2","elianto","#3366ff99","-1","32","0","+1","2464.5000000018626","1","0","2","","","","","","","","","",""
"pit-trial","12","99186","0.0-1.0-4.1-0.1","battery-v0.2","","-1","2","elianto","#3366ff99","-1","-1","1","+10","","0","0","2","","","","","","","","","",""
"pit-trial","13","103195","0.0-1.0-4.2-0.2","battery-v0.2","","-1","2","elianto","#3366ff99","-1","-1","1","+10","","0","0","2","","","","","","","","","",""
"pit-trial","14","107200","0.0-1.0-4.3-0.3","battery-v0.2","","-1","2","elianto","#3366ff99","-1","-1","1","+10","","0","0","2","","","","","","","","","",""
"call-function","15","107202","0.0-1.0-5.0","battery-v0.2","","","","","","","","","","","","","","","","","","","","","","",""
"pit-instructions","16","122503","0.0-1.0-6.0","battery-v0.2","[{""page_index"":0,""viewing_time"":11910.089999961201},{""page_index"":1,""viewing_time"":3388.1900000269525}]","15298.929999989923","","","","","","","","","","","","","","","","","","","","",""
"pit-trial","17","125998","0.0-1.0-7.0-0.0","battery-v0.2","","786.6700000013225","3","elianto","#f73b6a7A","-1","32","0","-10","2286.9700000155717","1","0","3","","","","","","","","","",""
"pit-trial","18","130009","0.0-1.0-7.1-0.1","battery-v0.2","","-1","3","elianto","#f73b6a7A","-1","-1","1","-1","","0","0","3","","","","","","","","","",""
"pit-trial","19","133947","0.0-1.0-7.2-0.2","battery-v0.2","","1230.9149999637157","3","elianto","#f73b6a7A","-1","32","0","-10","2732.175000011921","1","0","3","","","","","","","","","",""
"pit-trial","20","137961","0.0-1.0-7.3-0.3","battery-v0.2","","-1","3","elianto","#f73b6a7A","-1","-1","1","-1","","0","0","3","","","","","","","","","",""
"pit-trial","21","141975","0.0-1.0-7.4-0.4","battery-v0.2","","-1","3","elianto","#f73b6a7A","-1","-1","1","-1","","0","0","3","","","","","","","","","",""
"pit-trial","22","145987","0.0-1.0-7.5-0.5","battery-v0.2","","-1","3","elianto","#f73b6a7A","-1","-1","1","-1","","0","0","3","","","","","","","","","",""
"call-function","23","145989","0.0-1.0-8.0","battery-v0.2","","","","","","","","","","","","","","","","","","","","","","",""
"pit-instructions","24","157051","0.0-1.0-9.0","battery-v0.2","[{""page_index"":0,""viewing_time"":6810.579999990296},{""page_index"":1,""viewing_time"":4250.105000042822}]","11061.380000028294","","","","","","","","","","","","","","","","","","","","",""
"pit-trial","25","160509","0.0-1.0-10.0-0.0","battery-v0.2","","751.4199999859557","4","elianto","#f73b6a7A","32","32","1","-1","2252.589999989141","1","0","4","","","","","","","","","",""
"pit-trial","26","164518","0.0-1.0-10.1-0.1","battery-v0.2","","-1","4","elianto","#f73b6a7A","32","-1","0","-10","1470.664999971632","1","0","4","","","","","","","","","",""
"pit-trial","27","168389","0.0-1.0-10.2-0.2","battery-v0.2","","1160.5950000230223","4","elianto","#f73b6a7A","32","32","1","-1","2661.9700000155717","1","0","4","","","","","","","","","",""
"pit-trial","28","172008","0.0-1.0-10.3-0.3","battery-v0.2","","909.574999997858","4","elianto","#f73b6a7A","32","32","1","-1","2412.1850000228733","1","0","4","","","","","","","","","",""
"pit-trial","29","175479","0.0-1.0-10.4-0.4","battery-v0.2","","764.4399999990128","4","elianto","#f73b6a7A","32","32","1","-1","2264.8300000000745","1","0","4","","","","","","","","","",""
"call-function","30","175481","0.0-1.0-11.0","battery-v0.2","","","","","","","","","","","","","","","","","","","","","","",""
"pit-instructions","31","191374","0.0-1.0-12.0","battery-v0.2","[{""page_index"":0,""viewing_time"":1442.795000039041},{""page_index"":1,""viewing_time"":5603.239999967627},{""page_index"":2,""viewing_time"":4012.425000022631},{""page_index"":3,""viewing_time"":1635.0749999983236},{""page_index"":4,""viewing_time"":1906.284999975469},{""page_index"":5,""viewing_time"":1292.1799999894574}]","15892.645000014454","","","","","","","","","","","","","","","","","","","","",""
"pit-comprehension","32","212242","0.0-1.0-13.0","battery-v0.2","","20860.635000048205","","","","","","","","","","","","","Press SPACE,+10,-1,True,True","0","","","","","","",""
"pit-instructions","33","219338","0.0-2.0","battery-v0.2","[{""page_index"":0,""viewing_time"":2862.0649999938905},{""page_index"":1,""viewing_time"":4226.825000019744}]","7089.540000015404","","","","","","","","","","","","","","","","","","","","",""
"pit-trial","34","223213","0.0-3.0","battery-v0.2","","1164.3499999772757","H","elianto","#f73b6a7A","32","32","1","-1","2665.015000035055","1","1","","","","","246","1","3","3","lose","go","0"
"pit-trial","35","226617","0.0-4.0","battery-v0.2","","695.2250000322238","Y","elianto","#3366ff99","32","32","1","+10","2196.310000028461","1","1","","","","","246","2","2","1","win","go","0"
"pit-trial","36","230117","0.0-5.0","battery-v0.2","","793.7949999468401","R","elianto","#3366ff99","-1","32","0","+1","2296.3999999919906","1","1","","","","","246","3","1","2","win","no-go","0"
"pit-trial","37","233735","0.0-6.0","battery-v0.2","","908.8599999668077","M","elianto","#3366ff99","-1","32","0","+1","2412.4549999833107","1","1","","","","","246","4","0","2","win","no-go","0"
"pit-trial","38","237744","0.0-7.0","battery-v0.2","","-1","M","elianto","#3366ff99","-1","-1","1","+1","","0","1","","","","","246","5","0","2","win","no-go","1"
"pit-trial","39","241676","0.0-8.0","battery-v0.2","","1227.9499999713153","Y","elianto","#3366ff99","32","32","1","+10","270.1799999922514,2728.3550000283867","2","1","","","","","246","6","2","1","win","go","0"
"pit-trial","40","245690","0.0-9.0","battery-v0.2","","-1","H","elianto","#f73b6a7A","32","-1","0","-10","3046.7800000333227","1","1","","","","","246","7","3","3","lose","go","0"
"pit-trial","41","249201","0.0-10.0","battery-v0.2","","801.6150000039488","R","elianto","#3366ff99","-1","32","0","+1","2302.460000035353","1","1","","","","","246","8","1","2","win","no-go","0"
"pit-trial","42","253211","0.0-11.0","battery-v0.2","","-1","H","elianto","#f73b6a7A","32","-1","0","-10","2809.235000051558","1","1","","","","","246","9","3","3","lose","go","0"
"pit-trial","43","257220","0.0-12.0","battery-v0.2","","-1","Y","elianto","#3366ff99","32","-1","0","+1","","0","1","","","","","246","10","2","1","win","go","0"
"pit-trial","44","260657","0.0-13.0","battery-v0.2","","728.365000046324","R","elianto","#3366ff99","-1","32","0","+1","2228.9400000008754","1","1","","","","","246","11","1","2","win","no-go","0"
"pit-trial","45","264093","0.0-14.0","battery-v0.2","","730.6450000032783","M","elianto","#3366ff99","-1","32","0","+1","2230.875000008382","1","1","","","","","246","12","0","2","win","no-go","0"
"pit-trial","46","268098","0.0-15.0","battery-v0.2","","-1","H","elianto","#f73b6a7A","32","-1","0","-10","2967.0099999639206","1","1","","","","","246","13","3","3","lose","go","0"
"pit-trial","47","271418","0.0-16.0","battery-v0.2","","612.2050000121817","R","elianto","#3366ff99","-1","32","0","+1","2112.9100000252947","1","1","","","","","246","14","1","2","win","no-go","0"
"pit-trial","48","274849","0.0-17.0","battery-v0.2","","723.1250000186265","M","elianto","#3366ff99","-1","32","0","+1","2227.0600000047125","1","1","","","","","246","15","0","2","win","no-go","0"
"pit-trial","49","278861","0.0-18.0","battery-v0.2","","-1","Y","elianto","#3366ff99","32","-1","0","+1","","0","1","","","","","246","16","2","1","win","go","0"
"pit-trial","50","282866","0.0-19.0","battery-v0.2","","-1","M","elianto","#3366ff99","-1","-1","1","+10","","0","1","","","","","246","17","0","2","win","no-go","0"
"pit-trial","51","286875","0.0-20.0","battery-v0.2","","-1","R","elianto","#3366ff99","-1","-1","1","+10","","0","1","","","","","246","18","1","2","win","no-go","0"
"pit-trial","52","289990","0.0-21.0","battery-v0.2","","410.4899999802001","Y","elianto","#3366ff99","32","32","1","+10","1910.8499999856576","1","1","","","","","246","19","2","1","win","go","0"
"pit-trial","53","293995","0.0-22.0","battery-v0.2","","-1","H","elianto","#f73b6a7A","32","-1","0","-10","","0","1","","","","","246","20","3","3","lose","go","0"
"pit-trial","54","297554","0.0-23.0","battery-v0.2","","849.2349999723956","H","elianto","#f73b6a7A","32","32","1","-1","2350.4350000293925","1","1","","","","","246","21","3","3","lose","go","0"
"pit-trial","55","301564","0.0-24.0","battery-v0.2","","-1","Y","elianto","#3366ff99","32","-1","0","+1","","0","1","","","","","246","22","2","1","win","go","0"
"pit-trial","56","305020","0.0-25.0","battery-v0.2","","751.1299999896437","M","elianto","#3366ff99","-1","32","0","+1","2251.739999977872","1","1","","","","","246","23","0","2","win","no-go","0"
"pit-trial","57","308168","0.0-26.0","battery-v0.2","","442.090000025928","R","elianto","#3366ff99","-1","32","0","+1","1942.9349999991246","1","1","","","","","246","24","1","2","win","no-go","0"
"pit-trial","58","312176","0.0-27.0","battery-v0.2","","-1","H","elianto","#f73b6a7A","32","-1","0","-10","","0","1","","","","","246","25","3","3","lose","go","0"
"pit-trial","59","316121","0.0-28.0","battery-v0.2","","1237.0649999938905","R","elianto","#3366ff99","-1","32","0","+10","219.05499999411404,2739.61499996949","2","1","","","","","246","26","1","2","win","no-go","1"
"pit-trial","60","319357","0.0-29.0","battery-v0.2","","529.1250000009313","M","elianto","#3366ff99","-1","32","0","+1","2030.9750000014901","1","1","","","","","246","27","0","2","win","no-go","0"
"pit-trial","61","323287","0.0-30.0","battery-v0.2","","1221.5350000187755","Y","elianto","#3366ff99","32","32","1","+1","2721.7950000194833","1","1","","","","","246","28","2","1","win","go","1"
"pit-trial","62","327300","0.0-31.0","battery-v0.2","","-1","M","elianto","#3366ff99","-1","-1","1","+10","2842.000000004191","1","1","","","","","246","29","0","2","win","no-go","0"
"pit-trial","63","330761","0.0-32.0","battery-v0.2","","752.4100000155158","H","elianto","#f73b6a7A","32","32","1","-10","2252.6550000184216","1","1","","","","","246","30","3","3","lose","go","1"
"pit-trial","64","334079","0.0-33.0","battery-v0.2","","610.3949999669567","Y","elianto","#3366ff99","32","32","1","+1","2111.559999990277","1","1","","","","","246","31","2","1","win","go","1"
"pit-trial","65","337530","0.0-34.0","battery-v0.2","","746.5749999973923","R","elianto","#3366ff99","-1","32","0","+1","2246.7300000134856","1","1","","","","","246","32","1","2","win","no-go","0"
"pit-trial","66","340796","0.0-35.0","battery-v0.2","","557.6600000495091","M","elianto","#3366ff99","-1","32","0","+10","2057.685000007041","1","1","","","","","246","33","0","2","win","no-go","1"
"pit-trial","67","344803","0.0-36.0","battery-v0.2","","-1","Z","elianto","#f73b6a7A","-1","-1","1","-10","3090.764999971725","1","1","","","","","246","34","4","4","lose","no-go","1"
"pit-trial","68","348047","0.0-37.0","battery-v0.2","","533.2099999650382","C","elianto","#f73b6a7A","32","32","1","-1","2034.845000016503","1","1","","","","","246","35","5","3","lose","go","0"
"pit-trial","69","351758","0.0-38.0","battery-v0.2","","1008.4449999849312","Y","elianto","#3366ff99","32","32","1","+10","2508.555000007618","1","1","","","","","246","36","2","1","win","go","0"
"pit-trial","70","354984","0.0-39.0","battery-v0.2","","521.1199999903329","M","elianto","#3366ff99","-1","32","0","+1","2021.2399999727495","1","1","","","","","246","37","0","2","win","no-go","0"
"pit-trial","71","358322","0.0-40.0","battery-v0.2","","628.3850000472739","Y","elianto","#3366ff99","32","32","1","+10","2129.850000026636","1","1","","","","","246","38","2","1","win","go","0"
"pit-trial","72","361765","0.0-41.0","battery-v0.2","","735.7799999881536","Z","elianto","#f73b6a7A","-1","32","0","-1","2235.9700000379235","1","1","","","","","246","39","4","4","lose","no-go","1"
"pit-trial","73","364992","0.0-42.0","battery-v0.2","","522.350000042934","C","elianto","#f73b6a7A","32","32","1","-1","2023.525000025984","1","1","","","","","246","40","5","3","lose","go","0"
"pit-trial","74","368691","0.0-43.0","battery-v0.2","","994.2600000067614","B","elianto","#3366ff99","-1","32","0","+1","2494.7299999766983","1","1","","","","","246","41","6","2","win","no-go","0"
"pit-trial","75","372074","0.0-44.0","battery-v0.2","","678.8199999718927","C","elianto","#f73b6a7A","32","32","1","-1","2179.264999984298","1","1","","","","","246","42","5","3","lose","go","0"
"pit-trial","76","375446","0.0-45.0","battery-v0.2","","667.795000015758","Y","elianto","#3366ff99","32","32","1","+10","2168.0300000007264","1","1","","","","","246","43","2","1","win","go","0"
"pit-trial","77","378936","0.0-46.0","battery-v0.2","","781.7099999519996","Z","elianto","#f73b6a7A","-1","32","0","-10","2283.850000007078","1","1","","","","","246","44","4","4","lose","no-go","0"
"pit-trial","78","382944","0.0-47.0","battery-v0.2","","-1","B","elianto","#3366ff99","-1","-1","1","+1","","0","1","","","","","246","45","6","2","win","no-go","1"
"pit-trial","79","386387","0.0-48.0","battery-v0.2","","733.5999999777414","C","elianto","#f73b6a7A","32","32","1","-1","2234.8699999856763","1","1","","","","","246","46","5","3","lose","go","0"
"pit-trial","80","390404","0.0-49.0","battery-v0.2","","-1","Z","elianto","#f73b6a7A","-1","-1","1","-10","","0","1","","","","","246","47","4","4","lose","no-go","1"
"pit-trial","81","393686","0.0-50.0","battery-v0.2","","575.7699999958277","Y","elianto","#3366ff99","32","32","1","+1","2076.0400000144728","1","1","","","","","246","48","2","1","win","go","1"
"pit-trial","82","397245","0.0-51.0","battery-v0.2","","852.9950000229292","T","elianto","#f73b6a7A","-1","32","0","-1","2353.155000018887","1","1","","","","","246","49","7","4","lose","no-go","1"
"pit-trial","83","401250","0.0-52.0","battery-v0.2","","-1","Z","elianto","#f73b6a7A","-1","-1","1","-1","2917.2249999828637","1","1","","","","","246","50","4","4","lose","no-go","0"
"pit-trial","84","404684","0.0-53.0","battery-v0.2","","730.3049999754876","C","elianto","#f73b6a7A","32","32","1","-1","2230.5400000186637","1","1","","","","","246","51","5","3","lose","go","0"
"pit-trial","85","408301","0.0-54.0","battery-v0.2","","911.3750000251457","B","elianto","#3366ff99","-1","32","0","+1","2412.0099999709055","1","1","","","","","246","52","6","2","win","no-go","0"
"pit-trial","86","411799","0.0-55.0","battery-v0.2","","794.0850000013597","Z","elianto","#f73b6a7A","-1","32","0","-10","2294.965000008233","1","1","","","","","246","53","4","4","lose","no-go","0"
"pit-trial","87","415151","0.0-56.0","battery-v0.2","","642.7699999767356","C","elianto","#f73b6a7A","32","32","1","-1","2142.9950000019744","1","1","","","","","246","54","5","3","lose","go","0"
"pit-trial","88","419161","0.0-57.0","battery-v0.2","","-1","T","elianto","#f73b6a7A","-1","-1","1","-1","","0","1","","","","","246","55","7","4","lose","no-go","0"
"pit-trial","89","422763","0.0-58.0","battery-v0.2","","897.6050000055693","B","elianto","#3366ff99","-1","32","0","+1","2398.0800000135787","1","1","","","","","246","56","6","2","win","no-go","0"
"pit-trial","90","426772","0.0-59.0","battery-v0.2","","-1","T","elianto","#f73b6a7A","-1","-1","1","-1","","0","1","","","","","246","57","7","4","lose","no-go","0"
"pit-trial","91","430197","0.0-60.0","battery-v0.2","","715.7100000185892","C","elianto","#f73b6a7A","32","32","1","-10","2215.955000021495","1","1","","","","","246","58","5","3","lose","go","1"
"pit-trial","92","433756","0.0-61.0","battery-v0.2","","849.1650000214577","B","elianto","#3366ff99","-1","32","0","+1","2350.6950000301003","1","1","","","","","246","59","6","2","win","no-go","0"
"pit-trial","93","437769","0.0-62.0","battery-v0.2","","-1","Z","elianto","#f73b6a7A","-1","-1","1","-1","","0","1","","","","","246","60","4","4","lose","no-go","0"
"pit-trial","94","441132","0.0-63.0","battery-v0.2","","653.1299999915063","C","elianto","#f73b6a7A","32","32","1","-1","2154.2699999990873","1","1","","","","","246","61","5","3","lose","go","0"
"pit-trial","95","444972","0.0-64.0","battery-v0.2","","1133.2200000179","T","elianto","#f73b6a7A","-1","32","0","-10","2633.399999991525","1","1","","","","","246","62","7","4","lose","no-go","0"
"pit-trial","96","448982","0.0-65.0","battery-v0.2","","-1","Z","elianto","#f73b6a7A","-1","-1","1","-1","","0","1","","","","","246","63","4","4","lose","no-go","0"
"pit-trial","97","452993","0.0-66.0","battery-v0.2","","-1","B","elianto","#3366ff99","-1","-1","1","+10","","0","1","","","","","246","64","6","2","win","no-go","0"
"pit-trial","98","456884","0.0-67.0","battery-v0.2","","1182.3100000037812","T","elianto","#f73b6a7A","-1","32","0","-10","2682.9849999630824","1","1","","","","","246","65","7","4","lose","no-go","0"
"pit-trial","99","460898","0.0-68.0","battery-v0.2","","-1","Z","elianto","#f73b6a7A","-1","-1","1","-1","","0","1","","","","","246","66","4","4","lose","no-go","0"
"pit-trial","100","464905","0.0-69.0","battery-v0.2","","-1","B","elianto","#3366ff99","-1","-1","1","+10","","0","1","","","","","246","67","6","2","win","no-go","0"
"pit-trial","101","468281","0.0-70.0","battery-v0.2","","667.734999966342","C","elianto","#f73b6a7A","32","32","1","-1","2168.3049999992363","1","1","","","","","246","68","5","3","lose","go","0"
"pit-trial","102","472292","0.0-71.0","battery-v0.2","","-1","Z","elianto","#f73b6a7A","-1","-1","1","-10","","0","1","","","","","246","69","4","4","lose","no-go","1"
"pit-trial","103","476304","0.0-72.0","battery-v0.2","","-1","B","elianto","#3366ff99","-1","-1","1","+10","","0","1","","","","","246","70","6","2","win","no-go","0"
"pit-trial","104","480164","0.0-73.0","battery-v0.2","","1153.0500000226311","T","elianto","#f73b6a7A","-1","32","0","-1","2653.4649999812245","1","1","","","","","246","71","7","4","lose","no-go","1"
"pit-trial","105","483723","0.0-74.0","battery-v0.2","","851.410000002943","C","elianto","#f73b6a7A","32","32","1","-1","2353.545000019949","1","1","","","","","246","72","5","3","lose","go","0"
"pit-trial","106","487730","0.0-75.0","battery-v0.2","","-1","T","elianto","#f73b6a7A","-1","-1","1","-1","2911.6999999969266","1","1","","","","","246","73","7","4","lose","no-go","0"
"pit-trial","107","491745","0.0-76.0","battery-v0.2","","-1","B","elianto","#3366ff99","-1","-1","1","+10","","0","1","","","","","246","74","6","2","win","no-go","0"
"pit-trial","108","495243","0.0-77.0","battery-v0.2","","789.5000000135042","C","elianto","#f73b6a7A","32","32","1","-10","2291.2600000272505","1","1","","","","","246","75","5","3","lose","go","1"
"pit-trial","109","499252","0.0-78.0","battery-v0.2","","-1","X","elianto","#f73b6a7A","-1","-1","1","-1","3086.025000025984","1","1","","","","","246","76","8","4","lose","no-go","0"
"pit-trial","110","502499","0.0-79.0","battery-v0.2","","536.5200000233017","C","elianto","#f73b6a7A","32","32","1","-1","2038.0799999693409","1","1","","","","","246","77","5","3","lose","go","0"
"pit-trial","111","506403","0.0-80.0","battery-v0.2","","1195.99500001641","T","elianto","#f73b6a7A","-1","32","0","-10","2696.8099999940023","1","1","","","","","246","78","7","4","lose","no-go","0"
"pit-trial","112","510417","0.0-81.0","battery-v0.2","","-1","B","elianto","#3366ff99","-1","-1","1","+10","","0","1","","","","","246","79","6","2","win","no-go","0"
"pit-trial","113","514033","0.0-82.0","battery-v0.2","","905.4649999598041","X","elianto","#f73b6a7A","-1","32","0","-10","2405.9650000417605","1","1","","","","","246","80","8","4","lose","no-go","0"
"pit-trial","114","517705","0.0-83.0","battery-v0.2","","964.3849999993108","F","elianto","#3366ff99","32","32","1","+10","2467.9699999978766","1","1","","","","","246","81","9","1","win","go","0"
"pit-trial","115","521709","0.0-84.0","battery-v0.2","","-1","N","elianto","#f73b6a7A","32","-1","0","-1","","0","1","","","","","246","82","10","3","lose","go","1"
"pit-trial","116","525177","0.0-85.0","battery-v0.2","","762.140000006184","B","elianto","#3366ff99","-1","32","0","+1","2265.015000011772","1","1","","","","","246","83","6","2","win","no-go","0"
"pit-trial","117","529184","0.0-86.0","battery-v0.2","","-1","X","elianto","#f73b6a7A","-1","-1","1","-1","2840.4999999911524","1","1","","","","","246","84","8","4","lose","no-go","0"
"pit-trial","118","533192","0.0-87.0","battery-v0.2","","-1","F","elianto","#3366ff99","32","-1","0","+1","","0","1","","","","","246","85","9","1","win","go","0"
"pit-trial","119","537202","0.0-88.0","battery-v0.2","","-1","B","elianto","#3366ff99","-1","-1","1","+10","","0","1","","","","","246","86","6","2","win","no-go","0"
"pit-trial","120","541208","0.0-89.0","battery-v0.2","","-1","X","elianto","#f73b6a7A","-1","-1","1","-1","2876.8099999870174","1","1","","","","","246","87","8","4","lose","no-go","0"
"pit-trial","121","545216","0.0-90.0","battery-v0.2","","-1","N","elianto","#f73b6a7A","32","-1","0","-10","","0","1","","","","","246","88","10","3","lose","go","0"
"pit-trial","122","548796","0.0-91.0","battery-v0.2","","871.3599999900907","X","elianto","#f73b6a7A","-1","32","0","-10","2371.5049999882467","1","1","","","","","246","89","8","4","lose","no-go","0"
"pit-trial","123","552807","0.0-92.0","battery-v0.2","","-1","N","elianto","#f73b6a7A","32","-1","0","-10","","0","1","","","","","246","90","10","3","lose","go","0"
"pit-trial","124","556548","0.0-93.0","battery-v0.2","","1031.7550000036135","F","elianto","#3366ff99","32","32","1","+10","2533.2150000031106","1","1","","","","","246","91","9","1","win","go","0"
"pit-trial","125","560408","0.0-94.0","battery-v0.2","","1154.7150000114925","Q","elianto","#3366ff99","32","32","1","+10","2655.179999943357","1","1","","","","","246","92","11","1","win","go","0"
"pit-trial","126","563933","0.0-95.0","battery-v0.2","","818.7749999924563","F","elianto","#3366ff99","32","32","1","+10","2321.990000025835","1","1","","","","","246","93","9","1","win","go","0"
"pit-trial","127","567487","0.0-96.0","battery-v0.2","","846.689999976661","N","elianto","#f73b6a7A","32","32","1","-10","2348.3000000123866","1","1","","","","","246","94","10","3","lose","go","1"
"pit-trial","128","570854","0.0-97.0","battery-v0.2","","658.2200000411831","Q","elianto","#3366ff99","32","32","1","+10","2159.120000025723","1","1","","","","","246","95","11","1","win","go","0"
"pit-trial","129","574860","0.0-98.0","battery-v0.2","","-1","X","elianto","#f73b6a7A","-1","-1","1","-1","2836.1450000084005","1","1","","","","","246","96","8","4","lose","no-go","0"
"pit-trial","130","578201","0.0-99.0","battery-v0.2","","636.960000032559","X","elianto","#f73b6a7A","-1","32","0","-10","2137.1900000376627","1","1","","","","","246","97","8","4","lose","no-go","0"
"pit-trial","131","582205","0.0-100.0","battery-v0.2","","-1","N","elianto","#f73b6a7A","32","-1","0","-10","","0","1","","","","","246","98","10","3","lose","go","0"
"pit-trial","132","585560","0.0-101.0","battery-v0.2","","648.7649999908172","Q","elianto","#3366ff99","32","32","1","+10","2150.629999989178","1","1","","","","","246","99","11","1","win","go","0"
"pit-trial","133","589022","0.0-102.0","battery-v0.2","","756.1850000056438","F","elianto","#3366ff99","32","32","1","+10","2256.905000016559","1","1","","","","","246","100","9","1","win","go","0"
"pit-trial","134","592299","0.0-103.0","battery-v0.2","","573.2699999934994","F","elianto","#3366ff99","32","32","1","+10","2073.7300000037067","1","1","","","","","246","101","9","1","win","go","0"
"pit-trial","135","595717","0.0-104.0","battery-v0.2","","708.7900000042282","Q","elianto","#3366ff99","32","32","1","+10","2209.62999999756","1","1","","","","","246","102","11","1","win","go","0"
"pit-trial","136","599628","0.0-105.0","battery-v0.2","","1206.3349999953061","N","elianto","#f73b6a7A","32","32","1","-1","2707.6150000211783","1","1","","","","","246","103","10","3","lose","go","0"
"pit-trial","137","603375","0.0-106.0","battery-v0.2","","1042.6250000018626","X","elianto","#f73b6a7A","-1","32","0","-10","2542.8550000069663","1","1","","","","","246","104","8","4","lose","no-go","0"
"pit-trial","138","606758","0.0-107.0","battery-v0.2","","676.30500002997","X","elianto","#f73b6a7A","-1","32","0","-10","2176.9100000383332","1","1","","","","","246","105","8","4","lose","no-go","0"
"pit-trial","139","610052","0.0-108.0","battery-v0.2","","586.7549999966286","N","elianto","#f73b6a7A","32","32","1","-1","2087.4450000119396","1","1","","","","","246","106","10","3","lose","go","0"
"pit-trial","140","613518","0.0-109.0","battery-v0.2","","758.8699999614619","F","elianto","#3366ff99","32","32","1","+10","2259.090000006836","1","1","","","","","246","107","9","1","win","go","0"
"pit-trial","141","616996","0.0-110.0","battery-v0.2","","774.039999989327","Q","elianto","#3366ff99","32","32","1","+1","2274.7550000203773","1","1","","","","","246","108","11","1","win","go","1"
"pit-trial","142","620425","0.0-111.0","battery-v0.2","","725.1149999792688","F","elianto","#3366ff99","32","32","1","+1","2225.480000022799","1","1","","","","","246","109","9","1","win","go","1"
"pit-trial","143","624431","0.0-112.0","battery-v0.2","","-1","X","elianto","#f73b6a7A","-1","-1","1","-10","","0","1","","","","","246","110","8","4","lose","no-go","1"
"pit-trial","144","627705","0.0-113.0","battery-v0.2","","564.2699999734759","Q","elianto","#3366ff99","32","32","1","+10","2065.089999989141","1","1","","","","","246","111","11","1","win","go","0"
"pit-trial","145","631719","0.0-114.0","battery-v0.2","","-1","N","elianto","#f73b6a7A","32","-1","0","-10","","0","1","","","","","246","112","10","3","lose","go","0"
"pit-trial","146","634907","0.0-115.0","battery-v0.2","","480.9499999973923","F","elianto","#3366ff99","32","32","1","+10","1982.544999977108","1","1","","","","","246","113","9","1","win","go","0"
"pit-trial","147","638274","0.0-116.0","battery-v0.2","","661.3100000540726","X","elianto","#f73b6a7A","-1","32","0","-10","2161.729999992531","1","1","","","","","246","114","8","4","lose","no-go","0"
"pit-trial","148","641590","0.0-117.0","battery-v0.2","","611.7099999682978","N","elianto","#f73b6a7A","32","32","1","-1","2111.895000038203","1","1","","","","","246","115","10","3","lose","go","0"
"pit-trial","149","644928","0.0-118.0","battery-v0.2","","630.040000018198","Q","elianto","#3366ff99","32","32","1","+10","2131.664999993518","1","1","","","","","246","116","11","1","win","go","0"
"pit-trial","150","648269","0.0-119.0","battery-v0.2","","636.0649999696761","F","elianto","#3366ff99","32","32","1","+10","2136.484999966342","1","1","","","","","246","117","9","1","win","go","0"
"pit-trial","151","651960","0.0-120.0","battery-v0.2","","984.2550000175834","X","elianto","#f73b6a7A","-1","32","0","-10","2486.0399999888614","1","1","","","","","246","118","8","4","lose","no-go","0"
"pit-trial","152","655358","0.0-121.0","battery-v0.2","","689.6750000305474","N","elianto","#f73b6a7A","32","32","1","-1","2192.3949999618344","1","1","","","","","246","119","10","3","lose","go","0"
"pit-trial","153","658617","0.0-122.0","battery-v0.2","","553.10499999905","Q","elianto","#3366ff99","32","32","1","+10","2053.425000049174","1","1","","","","","246","120","11","1","win","go","0"
"pit-instructions","154","709445","0.0-123.0","battery-v0.2","[{""page_index"":0,""viewing_time"":48422.170000034384},{""page_index"":1,""viewing_time"":2401.804999972228}]","50824.630000046454","","","","","","","","","","","","","","","","","","","","",""
"pit-trial","155","713300","0.0-124.0","battery-v0.2","","1145.200000028126","V","elianto","#3366ff99","-1","32","0","+1","2646.1750000016764","1","2","","","","","246","121","0","2","win","no-go","0"
"pit-trial","156","716600","0.0-125.0","battery-v0.2","","595.7000000053085","K","elianto","#3366ff99","32","32","1","+10","2096.01500001736","1","2","","","","","246","122","3","1","win","go","0"
"pit-trial","157","720613","0.0-126.0","battery-v0.2","","-1","D","elianto","#f73b6a7A","-1","-1","1","-1","","0","2","","","","","246","123","2","4","lose","no-go","0"
"pit-trial","158","724624","0.0-127.0","battery-v0.2","","-1","J","elianto","#f73b6a7A","32","-1","0","-10","2998.935000039637","1","2","","","","","246","124","1","3","lose","go","0"
"pit-trial","159","728638","0.0-128.0","battery-v0.2","","-1","D","elianto","#f73b6a7A","-1","-1","1","-1","","0","2","","","","","246","125","2","4","lose","no-go","0"
"pit-trial","160","732050","0.0-129.0","battery-v0.2","","708.4900000481866","J","elianto","#f73b6a7A","32","32","1","-1","2208.7500000488944","1","2","","","","","246","126","1","3","lose","go","0"
"pit-trial","161","735779","0.0-130.0","battery-v0.2","","1022.2599999979138","V","elianto","#3366ff99","-1","32","0","+1","2523.2299999915995","1","2","","","","","246","127","0","2","win","no-go","0"
"pit-trial","162","739221","0.0-131.0","battery-v0.2","","733.3849999704398","K","elianto","#3366ff99","32","32","1","+10","2233.8849999941885","1","2","","","","","246","128","3","1","win","go","0"
"pit-trial","163","742921","0.0-132.0","battery-v0.2","","993.480000004638","K","elianto","#3366ff99","32","32","1","+10","2493.7900000368245","1","2","","","","","246","129","3","1","win","go","0"
"pit-trial","164","746943","0.0-133.0","battery-v0.2","","-1","V","elianto","#3366ff99","-1","-1","1","+10","","0","2","","","","","246","130","0","2","win","no-go","0"
"pit-trial","165","750593","0.0-134.0","battery-v0.2","","939.7400000016205","J","elianto","#f73b6a7A","32","32","1","-1","2441.6349999955855","1","2","","","","","246","131","1","3","lose","go","0"
"pit-trial","166","754602","0.0-135.0","battery-v0.2","","-1","D","elianto","#f73b6a7A","-1","-1","1","-1","","0","2","","","","","246","132","2","4","lose","no-go","0"
"pit-trial","167","758343","0.0-136.0","battery-v0.2","","1031.3500000047497","K","elianto","#3366ff99","32","32","1","+10","2532.6399999903515","1","2","","","","","246","133","3","1","win","go","0"
"pit-trial","168","762352","0.0-137.0","battery-v0.2","","-1","V","elianto","#3366ff99","-1","-1","1","+10","","0","2","","","","","246","134","0","2","win","no-go","0"
"pit-trial","169","765808","0.0-138.0","battery-v0.2","","745.9299999754876","D","elianto","#f73b6a7A","-1","32","0","-10","2247.544999991078","1","2","","","","","246","135","2","4","lose","no-go","0"
"pit-trial","170","769821","0.0-139.0","battery-v0.2","","-1","J","elianto","#f73b6a7A","32","-1","0","-10","2863.034999987576","1","2","","","","","246","136","1","3","lose","go","0"
"pit-trial","171","773828","0.0-140.0","battery-v0.2","","-1","J","elianto","#f73b6a7A","32","-1","0","-10","3947.440000018105","1","2","","","","","246","137","1","3","lose","go","0"
"pit-trial","172","777842","0.0-141.0","battery-v0.2","","-1","V","elianto","#3366ff99","-1","-1","1","+10","","0","2","","","","","246","138","0","2","win","no-go","0"
"pit-trial","173","781851","0.0-142.0","battery-v0.2","","1299.2249999660999","K","elianto","#3366ff99","32","32","1","+10","2800.6099999765866","1","2","","","","","246","139","3","1","win","go","0"
"pit-trial","174","785394","0.0-143.0","battery-v0.2","","833.504999987781","D","elianto","#f73b6a7A","-1","32","0","-10","2335.8949999674223","1","2","","","","","246","140","2","4","lose","no-go","0"
"pit-trial","175","789406","0.0-144.0","battery-v0.2","","-1","J","elianto","#f73b6a7A","32","-1","0","-10","","0","2","","","","","246","141","1","3","lose","go","0"
"pit-trial","176","792859","0.0-145.0","battery-v0.2","","744.3600000115111","D","elianto","#f73b6a7A","-1","32","0","-10","2244.6599999675527","1","2","","","","","246","142","2","4","lose","no-go","0"
"pit-trial","177","796563","0.0-146.0","battery-v0.2","","998.2350000063889","V","elianto","#3366ff99","-1","32","0","+1","2498.5299999825656","1","2","","","","","246","143","0","2","win","no-go","0"
"pit-trial","178","800109","0.0-147.0","battery-v0.2","","836.1150000127964","K","elianto","#3366ff99","32","32","1","+1","2338.9900000183843","1","2","","","","","246","144","3","1","win","go","1"
"pit-trial","179","803611","0.0-148.0","battery-v0.2","","796.8650000402704","D","elianto","#f73b6a7A","-1","32","0","-10","2297.2500000032596","1","2","","","","","246","145","2","4","lose","no-go","0"
"pit-trial","180","807208","0.0-149.0","battery-v0.2","","882.4949999689125","V","elianto","#3366ff99","-1","32","0","+1","2382.7199999941513","1","2","","","","","246","146","0","2","win","no-go","0"
"pit-trial","181","810708","0.0-150.0","battery-v0.2","","791.8799999752082","K","elianto","#3366ff99","32","32","1","+10","2292.5900000263937","1","2","","","","","246","147","3","1","win","go","0"
"pit-trial","182","814722","0.0-151.0","battery-v0.2","","-1","J","elianto","#f73b6a7A","32","-1","0","-10","3152.795000001788","1","2","","","","","246","148","1","3","lose","go","0"
"pit-trial","183","818146","0.0-152.0","battery-v0.2","","715.2299999725074","K","elianto","#3366ff99","32","32","1","+10","2215.540000004694","1","2","","","","","246","149","3","1","win","go","0"
"pit-trial","184","821955","0.0-153.0","battery-v0.2","","1101.1149999685585","J","elianto","#f73b6a7A","32","32","1","-1","2603.31999999471","1","2","","","","","246","150","1","3","lose","go","0"
"pit-trial","185","825962","0.0-154.0","battery-v0.2","","-1","V","elianto","#3366ff99","-1","-1","1","+10","","0","2","","","","","246","151","0","2","win","no-go","0"
"pit-trial","186","829971","0.0-155.0","battery-v0.2","","-1","D","elianto","#f73b6a7A","-1","-1","1","-1","","0","2","","","","","246","152","2","4","lose","no-go","0"
"pit-trial","187","833664","0.0-156.0","battery-v0.2","","988.3949999930337","E","elianto","#f73b6a7A","32","32","1","-1","2488.6549999937415","1","2","","","","","246","153","4","3","lose","go","0"
"pit-trial","188","837673","0.0-157.0","battery-v0.2","","-1","D","elianto","#f73b6a7A","-1","-1","1","-1","","0","2","","","","","246","154","2","4","lose","no-go","0"
"pit-trial","189","841681","0.0-158.0","battery-v0.2","","-1","J","elianto","#f73b6a7A","32","-1","0","-10","","0","2","","","","","246","155","1","3","lose","go","0"
"pit-trial","190","845497","0.0-159.0","battery-v0.2","","1108.4100000443868","W","elianto","#f73b6a7A","-1","32","0","-10","2608.895000012126","1","2","","","","","246","156","5","4","lose","no-go","0"
"pit-trial","191","849509","0.0-160.0","battery-v0.2","","-1","D","elianto","#f73b6a7A","-1","-1","1","-1","","0","2","","","","","246","157","2","4","lose","no-go","0"
"pit-trial","192","853000","0.0-161.0","battery-v0.2","","782.100000011269","E","elianto","#f73b6a7A","32","32","1","-1","2282.4649999965914","1","2","","","","","246","158","4","3","lose","go","0"
"pit-trial","193","857009","0.0-162.0","battery-v0.2","","-1","W","elianto","#f73b6a7A","-1","-1","1","-1","2903.740000037942","1","2","","","","","246","159","5","4","lose","no-go","0"
"pit-trial","194","860589","0.0-163.0","battery-v0.2","","875.6700000376441","J","elianto","#f73b6a7A","32","32","1","-1","2375.9350000182167","1","2","","","","","246","160","1","3","lose","go","0"
"pit-trial","195","864088","0.0-164.0","battery-v0.2","","790.4299999936484","E","elianto","#f73b6a7A","32","32","1","-10","2290.91999999946","1","2","","","","","246","161","4","3","lose","go","1"
"pit-trial","196","868098","0.0-165.0","battery-v0.2","","-1","D","elianto","#f73b6a7A","-1","-1","1","-1","","0","2","","","","","246","162","2","4","lose","no-go","0"
"pit-trial","197","871869","0.0-166.0","battery-v0.2","","1065.0150000001304","S","elianto","#3366ff99","-1","32","0","+1","2565.679999999702","1","2","","","","","246","163","6","2","win","no-go","0"
"pit-trial","198","875881","0.0-167.0","battery-v0.2","","-1","W","elianto","#f73b6a7A","-1","-1","1","-1","","0","2","","","","","246","164","5","4","lose","no-go","0"
"pit-trial","199","879891","0.0-168.0","battery-v0.2","","-1","E","elianto","#f73b6a7A","32","-1","0","-10","","0","2","","","","","246","165","4","3","lose","go","0"
"pit-trial","200","883902","0.0-169.0","battery-v0.2","","-1","W","elianto","#f73b6a7A","-1","-1","1","-1","","0","2","","","","","246","166","5","4","lose","no-go","0"
"pit-trial","201","887914","0.0-170.0","battery-v0.2","","-1","D","elianto","#f73b6a7A","-1","-1","1","-1","","0","2","","","","","246","167","2","4","lose","no-go","0"
"pit-trial","202","891644","0.0-171.0","battery-v0.2","","1020.9449999965727","S","elianto","#3366ff99","-1","32","0","+10","2522.735000005923","1","2","","","","","246","168","6","2","win","no-go","1"
"pit-trial","203","895655","0.0-172.0","battery-v0.2","","-1","P","elianto","#3366ff99","32","-1","0","+1","","0","2","","","","","246","169","7","1","win","go","0"
"pit-trial","204","899213","0.0-173.0","battery-v0.2","","850.6799999740906","S","elianto","#3366ff99","-1","32","0","+1","2350.9199999971315","1","2","","","","","246","170","6","2","win","no-go","0"
"pit-trial","205","902775","0.0-174.0","battery-v0.2","","854.5000000158325","E","elianto","#f73b6a7A","32","32","1","-1","2354.8500000033528","1","2","","","","","246","171","4","3","lose","go","0"
"pit-trial","206","906781","0.0-175.0","battery-v0.2","","-1","W","elianto","#f73b6a7A","-1","-1","1","-10","","0","2","","","","","246","172","5","4","lose","no-go","1"
"pit-trial","207","910793","0.0-176.0","battery-v0.2","","-1","W","elianto","#f73b6a7A","-1","-1","1","-10","","0","2","","","","","246","173","5","4","lose","no-go","1"
"pit-trial","208","914306","0.0-177.0","battery-v0.2","","806.2349999672733","E","elianto","#f73b6a7A","32","32","1","-1","2307.089999958407","1","2","","","","","246","174","4","3","lose","go","0"
"pit-trial","209","918311","0.0-178.0","battery-v0.2","","-1","S","elianto","#3366ff99","-1","-1","1","+10","","0","2","","","","","246","175","6","2","win","no-go","0"
"pit-trial","210","921900","0.0-179.0","battery-v0.2","","879.6399999991991","P","elianto","#3366ff99","32","32","1","+10","2379.7800000174902","1","2","","","","","246","176","7","1","win","go","0"
"pit-trial","211","925340","0.0-180.0","battery-v0.2","","728.8450000341982","P","elianto","#3366ff99","32","32","1","+1","2231.56999994535","1","2","","","","","246","177","7","1","win","go","1"
"pit-trial","212","929061","0.0-181.0","battery-v0.2","","1015.1099999784492","E","elianto","#f73b6a7A","32","32","1","-10","2515.2699999744073","1","2","","","","","246","178","4","3","lose","go","1"
"pit-trial","213","933068","0.0-182.0","battery-v0.2","","-1","W","elianto","#f73b6a7A","-1","-1","1","-1","","0","2","","","","","246","179","5","4","lose","no-go","0"
"pit-trial","214","936378","0.0-183.0","battery-v0.2","","605.2150000468828","S","elianto","#3366ff99","-1","32","0","+1","2105.5749999941327","1","2","","","","","246","180","6","2","win","no-go","0"
"pit-trial","215","940382","0.0-184.0","battery-v0.2","","-1","W","elianto","#f73b6a7A","-1","-1","1","-1","","0","2","","","","","246","181","5","4","lose","no-go","0"
"pit-trial","216","943717","0.0-185.0","battery-v0.2","","627.0149999763817","S","elianto","#3366ff99","-1","32","0","+1","2127.589999989141","1","2","","","","","246","182","6","2","win","no-go","0"
"pit-trial","217","947210","0.0-186.0","battery-v0.2","","787.5350000103936","P","elianto","#3366ff99","32","32","1","+10","2287.9200000315905","1","2","","","","","246","183","7","1","win","go","0"
"pit-trial","218","951218","0.0-187.0","battery-v0.2","","-1","E","elianto","#f73b6a7A","32","-1","0","-10","","0","2","","","","","246","184","4","3","lose","go","0"
"pit-trial","219","955226","0.0-188.0","battery-v0.2","","-1","W","elianto","#f73b6a7A","-1","-1","1","-1","","0","2","","","","","246","185","5","4","lose","no-go","0"
"pit-trial","220","959009","0.0-189.0","battery-v0.2","","1078.7750000017695","E","elianto","#f73b6a7A","32","32","1","-1","2579.2099999962375","1","2","","","","","246","186","4","3","lose","go","0"
"pit-trial","221","963017","0.0-190.0","battery-v0.2","","-1","S","elianto","#3366ff99","-1","-1","1","+10","","0","2","","","","","246","187","6","2","win","no-go","0"
"pit-trial","222","966477","0.0-191.0","battery-v0.2","","748.9100000238977","P","elianto","#3366ff99","32","32","1","+10","2250.9350000182167","1","2","","","","","246","188","7","1","win","go","0"
"pit-trial","223","969927","0.0-192.0","battery-v0.2","","744.2499999888241","P","elianto","#3366ff99","32","32","1","+1","2244.5300000254065","1","2","","","","","246","189","7","1","win","go","1"
"pit-trial","224","973826","0.0-193.0","battery-v0.2","","1194.0200000535697","S","elianto","#3366ff99","-1","32","0","+10","2694.969999953173","1","2","","","","","246","190","6","2","win","no-go","1"
"pit-trial","225","977836","0.0-194.0","battery-v0.2","","-1","W","elianto","#f73b6a7A","-1","-1","1","-1","","0","2","","","","","246","191","5","4","lose","no-go","0"
"pit-trial","226","981848","0.0-195.0","battery-v0.2","","-1","E","elianto","#f73b6a7A","32","-1","0","-10","","0","2","","","","","246","192","4","3","lose","go","0"
"pit-trial","227","985857","0.0-196.0","battery-v0.2","","-1","S","elianto","#3366ff99","-1","-1","1","+10","","0","2","","","","","246","193","6","2","win","no-go","0"
"pit-trial","228","989378","0.0-197.0","battery-v0.2","","816.0650000208989","E","elianto","#f73b6a7A","32","32","1","-1","2316.30500004394","1","2","","","","","246","194","4","3","lose","go","0"
"pit-trial","229","992961","0.0-198.0","battery-v0.2","","877.0850000437349","P","elianto","#3366ff99","32","32","1","+10","2377.360000042245","1","2","","","","","246","195","7","1","win","go","0"
"pit-trial","230","996970","0.0-199.0","battery-v0.2","","-1","G","elianto","#3366ff99","32","-1","0","+1","","0","2","","","","","246","196","8","1","win","go","0"
"pit-trial","231","1000839","0.0-200.0","battery-v0.2","","1159.7449999535456","P","elianto","#3366ff99","32","32","1","+1","2659.8200000007637","1","2","","","","","246","197","7","1","win","go","1"
"pit-trial","232","1004265","0.0-201.0","battery-v0.2","","720.6349999760278","S","elianto","#3366ff99","-1","32","0","+1","2222.3900000099093","1","2","","","","","246","198","6","2","win","no-go","0"
"pit-trial","233","1008052","0.0-202.0","battery-v0.2","","1078.0999999842606","G","elianto","#3366ff99","32","32","1","+10","2579.494999954477","1","2","","","","","246","199","8","1","win","go","0"
"pit-trial","234","1011980","0.0-203.0","battery-v0.2","","1221.8749999883585","E","elianto","#f73b6a7A","32","32","1","-10","2723.0250000138767","1","2","","","","","246","200","4","3","lose","go","1"
"pit-trial","235","1015991","0.0-204.0","battery-v0.2","","-1","A","elianto","#3366ff99","-1","-1","1","+10","3218.30000000773","1","2","","","","","246","201","9","2","win","no-go","0"
"pit-trial","236","1019796","0.0-205.0","battery-v0.2","","1100.0249999924563","G","elianto","#3366ff99","32","32","1","+10","2601.199999975506","1","2","","","","","246","202","8","1","win","go","0"
"pit-trial","237","1023394","0.0-206.0","battery-v0.2","","891.2000000127591","P","elianto","#3366ff99","32","32","1","+10","2391.6850000387058","1","2","","","","","246","203","7","1","win","go","0"
"pit-trial","238","1027404","0.0-207.0","battery-v0.2","","-1","S","elianto","#3366ff99","-1","-1","1","+1","","0","2","","","","","246","204","6","2","win","no-go","1"
"pit-trial","239","1031415","0.0-208.0","battery-v0.2","","-1","S","elianto","#3366ff99","-1","-1","1","+10","3020.520000020042","1","2","","","","","246","205","6","2","win","no-go","0"
"pit-trial","240","1035135","0.0-209.0","battery-v0.2","","1010.855000000447","G","elianto","#3366ff99","32","32","1","+10","2511.0850000055507","1","2","","","","","246","206","8","1","win","go","0"
"pit-trial","241","1038574","0.0-210.0","battery-v0.2","","733.4600000176579","P","elianto","#3366ff99","32","32","1","+10","2234.2749999952503","1","2","","","","","246","207","7","1","win","go","0"
"pit-trial","242","1042583","0.0-211.0","battery-v0.2","","-1","A","elianto","#3366ff99","-1","-1","1","+10","","0","2","","","","","246","208","9","2","win","no-go","0"
"pit-trial","243","1046596","0.0-212.0","battery-v0.2","","-1","A","elianto","#3366ff99","-1","-1","1","+10","2933.8499999721535","1","2","","","","","246","209","9","2","win","no-go","0"
"pit-trial","244","1050469","0.0-213.0","battery-v0.2","","1165.7199999899603","U","elianto","#f73b6a7A","-1","32","0","-1","2668.020000040997","1","2","","","","","246","210","11","4","lose","no-go","1"
"pit-trial","245","1054271","0.0-214.0","battery-v0.2","","1093.8899999600835","L","elianto","#f73b6a7A","32","32","1","-10","2594.4049999816343","1","2","","","","","246","211","10","3","lose","go","1"
"pit-trial","246","1058284","0.0-215.0","battery-v0.2","","-1","G","elianto","#3366ff99","32","-1","0","+1","3003.140000044368","1","2","","","","","246","212","8","1","win","go","0"
"pit-trial","247","1061674","0.0-216.0","battery-v0.2","","683.690000034403","G","elianto","#3366ff99","32","32","1","+10","2184.2199999955483","1","2","","","","","246","213","8","1","win","go","0"
"pit-trial","248","1065680","0.0-217.0","battery-v0.2","","-1","A","elianto","#3366ff99","-1","-1","1","+10","","0","2","","","","","246","214","9","2","win","no-go","0"
"pit-trial","249","1069694","0.0-218.0","battery-v0.2","","-1","L","elianto","#f73b6a7A","32","-1","0","-10","","0","2","","","","","246","215","10","3","lose","go","0"
"pit-trial","250","1073510","0.0-219.0","battery-v0.2","","1109.9600000306964","U","elianto","#f73b6a7A","-1","32","0","-10","2610.045000037644","1","2","","","","","246","216","11","4","lose","no-go","0"
"pit-trial","251","1077519","0.0-220.0","battery-v0.2","","-1","A","elianto","#3366ff99","-1","-1","1","+10","","0","2","","","","","246","217","9","2","win","no-go","0"
"pit-trial","252","1081174","0.0-221.0","battery-v0.2","","950.9149999939837","G","elianto","#3366ff99","32","32","1","+1","2451.154999958817","1","2","","","","","246","218","8","1","win","go","1"
"pit-trial","253","1085183","0.0-222.0","battery-v0.2","","-1","L","elianto","#f73b6a7A","32","-1","0","-10","","0","2","","","","","246","219","10","3","lose","go","0"
"pit-trial","254","1089194","0.0-223.0","battery-v0.2","","-1","U","elianto","#f73b6a7A","-1","-1","1","-1","","0","2","","","","","246","220","11","4","lose","no-go","0"
"pit-trial","255","1093201","0.0-224.0","battery-v0.2","","-1","L","elianto","#f73b6a7A","32","-1","0","-10","","0","2","","","","","246","221","10","3","lose","go","0"
"pit-trial","256","1096497","0.0-225.0","battery-v0.2","","585.7550000073388","A","elianto","#3366ff99","-1","32","0","+1","2088.0400000023656","1","2","","","","","246","222","9","2","win","no-go","0"
"pit-trial","257","1100506","0.0-226.0","battery-v0.2","","-1","U","elianto","#f73b6a7A","-1","-1","1","-10","","0","2","","","","","246","223","11","4","lose","no-go","1"
"pit-trial","258","1103987","0.0-227.0","battery-v0.2","","772.3699999623932","G","elianto","#3366ff99","32","32","1","+10","2272.439999971539","1","2","","","","","246","224","8","1","win","go","0"
"pit-trial","259","1107995","0.0-228.0","battery-v0.2","","-1","U","elianto","#f73b6a7A","-1","-1","1","-1","","0","2","","","","","246","225","11","4","lose","no-go","0"
"pit-trial","260","1111427","0.0-229.0","battery-v0.2","","727.7699999976903","G","elianto","#3366ff99","32","32","1","+1","2228.445000015199","1","2","","","","","246","226","8","1","win","go","1"
"pit-trial","261","1115210","0.0-230.0","battery-v0.2","","1078.7400000263005","L","elianto","#f73b6a7A","32","32","1","-1","2578.8550000288524","1","2","","","","","246","227","10","3","lose","go","0"
"pit-trial","262","1119219","0.0-231.0","battery-v0.2","","-1","A","elianto","#3366ff99","-1","-1","1","+1","","0","2","","","","","246","228","9","2","win","no-go","1"
"pit-trial","263","1123153","0.0-232.0","battery-v0.2","","1228.324999974575","U","elianto","#f73b6a7A","-1","32","0","-1","2730.554999958258","1","2","","","","","246","229","11","4","lose","no-go","1"
"pit-trial","264","1127166","0.0-233.0","battery-v0.2","","-1","L","elianto","#f73b6a7A","32","-1","0","-10","","0","2","","","","","246","230","10","3","lose","go","0"
"pit-trial","265","1131177","0.0-234.0","battery-v0.2","","-1","G","elianto","#3366ff99","32","-1","0","+10","2889.584999997169","1","2","","","","","246","231","8","1","win","go","1"
"pit-trial","266","1135189","0.0-235.0","battery-v0.2","","-1","A","elianto","#3366ff99","-1","-1","1","+10","","0","2","","","","","246","232","9","2","win","no-go","0"
"pit-trial","267","1139199","0.0-236.0","battery-v0.2","","-1","A","elianto","#3366ff99","-1","-1","1","+10","","0","2","","","","","246","233","9","2","win","no-go","0"
"pit-trial","268","1142902","0.0-237.0","battery-v0.2","","994.6800000034273","L","elianto","#f73b6a7A","32","32","1","-1","2496.4150000014342","1","2","","","","","246","234","10","3","lose","go","0"
"pit-trial","269","1146873","0.0-238.0","battery-v0.2","","1261.5399999776855","G","elianto","#3366ff99","32","32","1","+10","2763.420000032056","1","2","","","","","246","235","8","1","win","go","0"
"pit-trial","270","1150886","0.0-239.0","battery-v0.2","","-1","U","elianto","#f73b6a7A","-1","-1","1","-10","","0","2","","","","","246","236","11","4","lose","no-go","1"
"pit-trial","271","1154059","0.0-240.0","battery-v0.2","","463.9200000092387","G","elianto","#3366ff99","32","32","1","+10","1964.9050000007264","1","2","","","","","246","237","8","1","win","go","0"
"pit-trial","272","1158063","0.0-241.0","battery-v0.2","","1295.6549999653362","U","elianto","#f73b6a7A","-1","32","0","-10","2796.0699999821372","1","2","","","","","246","238","11","4","lose","no-go","0"
"pit-trial","273","1162071","0.0-242.0","battery-v0.2","","-1","A","elianto","#3366ff99","-1","-1","1","+10","","0","2","","","","","246","239","9","2","win","no-go","0"
"pit-trial","274","1165521","0.0-243.0","battery-v0.2","","742.0900000142865","L","elianto","#f73b6a7A","32","32","1","-1","2244.0199999837205","1","2","","","","","246","240","10","3","lose","go","0"
