"trial_type","trial_index","time_elapsed","internal_node_id","task_version","view_history","rt","rune","rune_set","hex","correct","choice","accuracy","outcome","keys","total_keys","block","practice","subject","participantId","value"
"pavlovia","0","16","0.0-0.0","battery-v0.2","","","","","","","","","","","","","","","",""
"pit-instructions","1","23364","0.0-1.0-0.0","battery-v0.2","[{""page_index"":0,""viewing_time"":1858},{""page_index"":1,""viewing_time"":1366.5},{""page_index"":2,""viewing_time"":267},{""page_index"":3,""viewing_time"":434.90000009536743},{""page_index"":4,""viewing_time"":499.5},{""page_index"":5,""viewing_time"":465.5},{""page_index"":6,""viewing_time"":485.09999990463257},{""page_index"":7,""viewing_time"":466.40000009536743},{""page_index"":8,""viewing_time"":448.7000000476837},{""page_index"":9,""viewing_time"":801.6999998092651},{""page_index"":8,""viewing_time"":184.10000014305115},{""page_index"":7,""viewing_time"":4750},{""page_index"":8,""viewing_time"":4350.599999904633},{""page_index"":9,""viewing_time"":400.5},{""page_index"":10,""viewing_time"":450.90000009536743},{""page_index"":11,""viewing_time"":834},{""page_index"":12,""viewing_time"":1266.7999999523163},{""page_index"":11,""viewing_time"":382.09999990463257},{""page_index"":10,""viewing_time"":1018.5},{""page_index"":11,""viewing_time"":1716.7000000476837},{""page_index"":12,""viewing_time"":898.7999999523163}]","23347","","","","","","","","","","","","","",""
"pit-trial","2","26565","0.0-1.0-1.0-0.0","battery-v0.2","","347","&#9776;","elianto","#3366ff99","32","32","1","+10","1198.0999999046326","1","0","1","4ee95e0e8737a0304baac70a&order=1&STUDY_ID=61caf85b4892b889f6411591","999",""
"pit-trial","3","29506","0.0-1.0-1.0-1.0","battery-v0.2","","83.20000004768372","&#9776;","elianto","#3366ff99","32","32","1","+10","934.5","1","0","1","4ee95e0e8737a0304baac70a&order=1&STUDY_ID=61caf85b4892b889f6411591","999",""
"pit-trial","4","32538","0.0-1.0-1.0-2.0","battery-v0.2","","179.20000004768372","&#9776;","elianto","#3366ff99","32","32","1","+10","310.7000000476837,500.80000019073486,680.6000001430511,849.4000000953674,1029.2000000476837","5","0","1","4ee95e0e8737a0304baac70a&order=1&STUDY_ID=61caf85b4892b889f6411591","999",""
"pit-trial","5","35533","0.0-1.0-1.0-3.0","battery-v0.2","","139.09999990463257","&#9776;","elianto","#3366ff99","32","32","1","0","989.5","1","0","1","4ee95e0e8737a0304baac70a&order=1&STUDY_ID=61caf85b4892b889f6411591","999",""
"pit-trial","6","38477","0.0-1.0-1.0-4.0","battery-v0.2","","90.89999985694885","&#9776;","elianto","#3366ff99","32","32","1","+10","941.6999998092651","1","0","1","4ee95e0e8737a0304baac70a&order=1&STUDY_ID=61caf85b4892b889f6411591","999",""
"call-function","7","38479","0.0-1.0-2.0","battery-v0.2","","","","","","","","","","","","","","","",""
"pit-instructions","8","65393","0.0-1.0-3.0","battery-v0.2","[{""page_index"":0,""viewing_time"":4956.800000190735},{""page_index"":1,""viewing_time"":8203},{""page_index"":2,""viewing_time"":5484.5},{""page_index"":3,""viewing_time"":6133.5},{""page_index"":4,""viewing_time"":2136}]","26914.10000014305","","","","","","","","","","","","","",""
"pit-trial","9","68651","0.0-1.0-4.0-0.0","battery-v0.2","","403","&#9761;","elianto","#3366ff99","-1","32","0","0","849.8999998569489,1253","2","0","2","4ee95e0e8737a0304baac70a&order=1&STUDY_ID=61caf85b4892b889f6411591","999",""
"pit-trial","10","71880","0.0-1.0-4.0-1.0","battery-v0.2","","372.2999999523163","&#9761;","elianto","#3366ff99","-1","32","0","0","1225.4000000953674","1","0","2","4ee95e0e8737a0304baac70a&order=1&STUDY_ID=61caf85b4892b889f6411591","999",""
"pit-trial","11","74873","0.0-1.0-4.0-2.0","battery-v0.2","","134.79999995231628","&#9761;","elianto","#3366ff99","-1","32","0","0","986.4000000953674","1","0","2","4ee95e0e8737a0304baac70a&order=1&STUDY_ID=61caf85b4892b889f6411591","999",""
"pit-trial","12","77920","0.0-1.0-4.0-3.0","battery-v0.2","","192.10000014305115","&#9761;","elianto","#3366ff99","-1","32","0","0","1042.7000000476837","1","0","2","4ee95e0e8737a0304baac70a&order=1&STUDY_ID=61caf85b4892b889f6411591","999",""
"pit-trial","13","82777","0.0-1.0-4.0-4.0","battery-v0.2","","-1","&#9761;","elianto","#3366ff99","-1","-1","1","0","","0","0","2","4ee95e0e8737a0304baac70a&order=1&STUDY_ID=61caf85b4892b889f6411591","999",""
"pit-trial","14","87632","0.0-1.0-4.1-0.1","battery-v0.2","","-1","&#9761;","elianto","#3366ff99","-1","-1","1","+10","","0","0","2","4ee95e0e8737a0304baac70a&order=1&STUDY_ID=61caf85b4892b889f6411591","999",""
"pit-trial","15","92490","0.0-1.0-4.1-1.1","battery-v0.2","","-1","&#9761;","elianto","#3366ff99","-1","-1","1","+10","","0","0","2","4ee95e0e8737a0304baac70a&order=1&STUDY_ID=61caf85b4892b889f6411591","999",""
"pit-trial","16","97344","0.0-1.0-4.1-2.1","battery-v0.2","","-1","&#9761;","elianto","#3366ff99","-1","-1","1","+10","","0","0","2","4ee95e0e8737a0304baac70a&order=1&STUDY_ID=61caf85b4892b889f6411591","999",""
"pit-trial","17","102200","0.0-1.0-4.1-3.1","battery-v0.2","","-1","&#9761;","elianto","#3366ff99","-1","-1","1","+10","","0","0","2","4ee95e0e8737a0304baac70a&order=1&STUDY_ID=61caf85b4892b889f6411591","999",""
"pit-trial","18","107051","0.0-1.0-4.1-4.1","battery-v0.2","","-1","&#9761;","elianto","#3366ff99","-1","-1","1","0","","0","0","2","4ee95e0e8737a0304baac70a&order=1&STUDY_ID=61caf85b4892b889f6411591","999",""
"call-function","19","107052","0.0-1.0-5.0","battery-v0.2","","","","","","","","","","","","","","","",""
"pit-instructions","20","174687","0.0-1.0-6.0","battery-v0.2","[{""page_index"":0,""viewing_time"":4684.899999856949},{""page_index"":1,""viewing_time"":3050.4000000953674},{""page_index"":2,""viewing_time"":3768.0999999046326},{""page_index"":3,""viewing_time"":56133}]","67636.69999980927","","","","","","","","","","","","","",""
"pit-trial","21","177930","0.0-1.0-7.0-0.0","battery-v0.2","","386.7000000476837","&#9826;","elianto","#f73b6a7A","-1","32","0","-10","1236.7000000476837","1","0","3","4ee95e0e8737a0304baac70a&order=1&STUDY_ID=61caf85b4892b889f6411591","999",""
"pit-trial","22","182939","0.0-1.0-7.0-1.0","battery-v0.2","","-1","&#9826;","elianto","#f73b6a7A","-1","-1","1","0","","0","0","3","4ee95e0e8737a0304baac70a&order=1&STUDY_ID=61caf85b4892b889f6411591","999",""
"pit-trial","23","187793","0.0-1.0-7.0-2.0","battery-v0.2","","-1","&#9826;","elianto","#f73b6a7A","-1","-1","1","-10","","0","0","3","4ee95e0e8737a0304baac70a&order=1&STUDY_ID=61caf85b4892b889f6411591","999",""
"pit-trial","24","192651","0.0-1.0-7.0-3.0","battery-v0.2","","-1","&#9826;","elianto","#f73b6a7A","-1","-1","1","0","","0","0","3","4ee95e0e8737a0304baac70a&order=1&STUDY_ID=61caf85b4892b889f6411591","999",""
"pit-trial","25","197503","0.0-1.0-7.0-4.0","battery-v0.2","","-1","&#9826;","elianto","#f73b6a7A","-1","-1","1","0","","0","0","3","4ee95e0e8737a0304baac70a&order=1&STUDY_ID=61caf85b4892b889f6411591","999",""
"call-function","26","197505","0.0-1.0-8.0","battery-v0.2","","","","","","","","","","","","","","","",""
"pit-instructions","27","251993","0.0-1.0-9.0","battery-v0.2","[{""page_index"":0,""viewing_time"":9593.099999904633},{""page_index"":1,""viewing_time"":44896.40000009537}]","54489.799999952316","","","","","","","","","","","","","",""
"pit-trial","28","255993","0.0-1.0-10.0-0.0","battery-v0.2","","1147.8999998569489","&#9789;","elianto","#f73b6a7A","32","32","1","0","1998","1","0","4","4ee95e0e8737a0304baac70a&order=1&STUDY_ID=61caf85b4892b889f6411591","999",""
"pit-trial","29","259182","0.0-1.0-10.0-1.0","battery-v0.2","","332.7999999523163","&#9789;","elianto","#f73b6a7A","32","32","1","0","1183.0999999046326","1","0","4","4ee95e0e8737a0304baac70a&order=1&STUDY_ID=61caf85b4892b889f6411591","999",""
"pit-trial","30","263138","0.0-1.0-10.0-2.0","battery-v0.2","","1103","&#9789;","elianto","#f73b6a7A","32","32","1","0","1953.2000000476837","1","0","4","4ee95e0e8737a0304baac70a&order=1&STUDY_ID=61caf85b4892b889f6411591","999",""
"pit-trial","31","266118","0.0-1.0-10.0-3.0","battery-v0.2","","125","&#9789;","elianto","#f73b6a7A","32","32","1","0","976.2999999523163","1","0","4","4ee95e0e8737a0304baac70a&order=1&STUDY_ID=61caf85b4892b889f6411591","999",""
"pit-trial","32","269007","0.0-1.0-10.0-4.0","battery-v0.2","","35.59999990463257","&#9789;","elianto","#f73b6a7A","32","32","1","-10","888.0999999046326","1","0","4","4ee95e0e8737a0304baac70a&order=1&STUDY_ID=61caf85b4892b889f6411591","999",""
"call-function","33","269008","0.0-1.0-11.0","battery-v0.2","","","","","","","","","","","","","","","",""
"pit-instructions","34","394513","0.0-1.0-12.0","battery-v0.2","[{""page_index"":0,""viewing_time"":12459.799999952316},{""page_index"":1,""viewing_time"":7217.799999952316},{""page_index"":2,""viewing_time"":89291.90000009537},{""page_index"":3,""viewing_time"":6252.599999904633},{""page_index"":4,""viewing_time"":10286}]","125508.29999995232","","","","","","","","","","","","","",""
