"trial_type","trial_index","time_elapsed","internal_node_id","task_version","success","view_history","rt","rune","rune_set","hex","correct","choice","accuracy","outcome","keys","total_keys","block","practice","subject","participantId"
"pavlovia","0","29","0.0-0.0","battery-v0.2","","","","","","","","","","","","","","","",""
"fullscreen","1","1765","0.0-1.0","battery-v0.2","true","","","","","","","","","","","","","","",""
"pit-instructions","2","7923","0.0-2.0-0.0","battery-v0.2","","[{""page_index"":0,""viewing_time"":1031.199999988079},{""page_index"":1,""viewing_time"":778.6999999880791},{""page_index"":2,""viewing_time"":797.7000000476837},{""page_index"":3,""viewing_time"":767},{""page_index"":4,""viewing_time"":932.5},{""page_index"":5,""viewing_time"":1843.199999988079}]","6151.899999976158","","","","","","","","","","","","",""
"pit-trial","3","11021","0.0-2.0-1.0-0.0","battery-v0.2","","","241.80000001192093","&#9784;","elianto","#FFFFF080","32","32","1","+10","1092.7000000476837","1","0","0","4ee95e0e8737a0304baac70a&order=1&STUDY_ID=61caf85b4892b889f6411591","999"
"pit-trial","4","15879","0.0-2.0-1.1-0.1","battery-v0.2","","","-1","&#9784;","elianto","#FFFFF080","32","-1","0","0","","0","0","0","4ee95e0e8737a0304baac70a&order=1&STUDY_ID=61caf85b4892b889f6411591","999"
"pit-trial","5","20738","0.0-2.0-1.2-0.2","battery-v0.2","","","-1","&#9784;","elianto","#FFFFF080","32","-1","0","0","","0","0","0","4ee95e0e8737a0304baac70a&order=1&STUDY_ID=61caf85b4892b889f6411591","999"
"pit-trial","6","25596","0.0-2.0-1.3-0.3","battery-v0.2","","","-1","&#9784;","elianto","#FFFFF080","32","-1","0","0","","0","0","0","4ee95e0e8737a0304baac70a&order=1&STUDY_ID=61caf85b4892b889f6411591","999"
"pit-trial","7","30460","0.0-2.0-1.4-0.4","battery-v0.2","","","-1","&#9784;","elianto","#FFFFF080","32","-1","0","0","","0","0","0","4ee95e0e8737a0304baac70a&order=1&STUDY_ID=61caf85b4892b889f6411591","999"
"pit-instructions","8","48286","0.0-2.0-1.4-1.4-0.4","battery-v0.2","","[{""page_index"":0,""viewing_time"":10585.300000011921},{""page_index"":1,""viewing_time"":7237.5}]","17823.30000001192","","","","","","","","","","","","",""
"pit-trial","9","53147","0.0-2.0-1.5-0.5","battery-v0.2","","","-1","&#9784;","elianto","#FFFFF080","32","-1","0","0","","0","0","0","4ee95e0e8737a0304baac70a&order=1&STUDY_ID=61caf85b4892b889f6411591","999"
"pit-trial","10","58006","0.0-2.0-1.6-0.6","battery-v0.2","","","-1","&#9784;","elianto","#FFFFF080","32","-1","0","0","","0","0","0","4ee95e0e8737a0304baac70a&order=1&STUDY_ID=61caf85b4892b889f6411591","999"
"pit-trial","11","62862","0.0-2.0-1.7-0.7","battery-v0.2","","","-1","&#9784;","elianto","#FFFFF080","32","-1","0","0","","0","0","0","4ee95e0e8737a0304baac70a&order=1&STUDY_ID=61caf85b4892b889f6411591","999"
"pit-trial","12","67723","0.0-2.0-1.8-0.8","battery-v0.2","","","-1","&#9784;","elianto","#FFFFF080","32","-1","0","0","","0","0","0","4ee95e0e8737a0304baac70a&order=1&STUDY_ID=61caf85b4892b889f6411591","999"
"pit-trial","13","72585","0.0-2.0-1.9-0.9","battery-v0.2","","","-1","&#9784;","elianto","#FFFFF080","32","-1","0","0","","0","0","0","4ee95e0e8737a0304baac70a&order=1&STUDY_ID=61caf85b4892b889f6411591","999"
"pit-instructions","14","75611","0.0-2.0-1.9-1.9-0.9","battery-v0.2","","[{""page_index"":0,""viewing_time"":2674.899999976158},{""page_index"":1,""viewing_time"":347.89999997615814}]","3023.2999999523163","","","","","","","","","","","","",""
"pit-trial","15","80467","0.0-2.0-1.10-0.10","battery-v0.2","","","-1","&#9784;","elianto","#FFFFF080","32","-1","0","0","","0","0","0","4ee95e0e8737a0304baac70a&order=1&STUDY_ID=61caf85b4892b889f6411591","999"
"pit-trial","16","85327","0.0-2.0-1.11-0.11","battery-v0.2","","","-1","&#9784;","elianto","#FFFFF080","32","-1","0","0","","0","0","0","4ee95e0e8737a0304baac70a&order=1&STUDY_ID=61caf85b4892b889f6411591","999"
"pit-trial","17","90185","0.0-2.0-1.12-0.12","battery-v0.2","","","-1","&#9784;","elianto","#FFFFF080","32","-1","0","0","","0","0","0","4ee95e0e8737a0304baac70a&order=1&STUDY_ID=61caf85b4892b889f6411591","999"
"pit-trial","18","95045","0.0-2.0-1.13-0.13","battery-v0.2","","","-1","&#9784;","elianto","#FFFFF080","32","-1","0","0","","0","0","0","4ee95e0e8737a0304baac70a&order=1&STUDY_ID=61caf85b4892b889f6411591","999"
"pit-trial","19","99907","0.0-2.0-1.14-0.14","battery-v0.2","","","-1","&#9784;","elianto","#FFFFF080","32","-1","0","0","","0","0","0","4ee95e0e8737a0304baac70a&order=1&STUDY_ID=61caf85b4892b889f6411591","999"
"pit-instructions","20","114081","0.0-2.0-1.14-1.14-0.14","battery-v0.2","","[{""page_index"":0,""viewing_time"":13682.300000011921},{""page_index"":1,""viewing_time"":488.5999999642372}]","14171.399999976158","","","","","","","","","","","","",""
"pit-trial","21","117346","0.0-2.0-1.15-0.15","battery-v0.2","","","406.5","&#9784;","elianto","#FFFFF080","32","32","1","+10","1256.8999999761581","1","0","0","4ee95e0e8737a0304baac70a&order=1&STUDY_ID=61caf85b4892b889f6411591","999"
"pit-trial","22","120698","0.0-2.0-1.16-0.16","battery-v0.2","","","494.19999998807907","&#9784;","elianto","#FFFFF080","32","32","1","+10","1344.5","1","0","0","4ee95e0e8737a0304baac70a&order=1&STUDY_ID=61caf85b4892b889f6411591","999"
"pit-trial","23","123888","0.0-2.0-1.17-0.17","battery-v0.2","","","333.69999998807907","&#9784;","elianto","#FFFFF080","32","32","1","+10","1185.199999988079","1","0","0","4ee95e0e8737a0304baac70a&order=1&STUDY_ID=61caf85b4892b889f6411591","999"
