"trial_type","trial_index","time_elapsed","internal_node_id","task_version","subject_id","interactions","blur_events","focus_events","fullscreenenter_events","fullscreenexit_events","success","view_history","rt","responses","num_errors","age","subject","participantId","rune","rune_set","hex","correct","choice","accuracy","outcome","keys","total_keys","block","practice","value"
"pavlovia","0","9","0.0-0.0","battery-v0.2","","""event"",""trial"",""time""
""focus"",""0"",""0""
""fullscreenenter"",""1"",""3972""
","
","""event"",""trial"",""time""
""focus"",""0"",""0""
","""event"",""trial"",""time""
""fullscreenenter"",""1"",""3972""
","
","","","","","","","","","","","","","","","","","","","",""
"fullscreen","1","4779","0.0-1.0","battery-v0.2","","""event"",""trial"",""time""
""focus"",""0"",""0""
""fullscreenenter"",""1"",""3972""
","
","""event"",""trial"",""time""
""focus"",""0"",""0""
","""event"",""trial"",""time""
""fullscreenenter"",""1"",""3972""
","
","true","","","","","","","","","","","","","","","","","","",""
"pit-instructions","2","11038","0.0-2.0-0.0","battery-v0.2","","""event"",""trial"",""time""
""focus"",""0"",""0""
""fullscreenenter"",""1"",""3972""
","
","""event"",""trial"",""time""
""focus"",""0"",""0""
","""event"",""trial"",""time""
""fullscreenenter"",""1"",""3972""
","
","","[{""page_index"":0,""viewing_time"":6253}]","6253","","","","","","","","","","","","","","","","",""
"pit-comprehension","3","16743","0.0-2.0-1.0-0.0","battery-v0.2","","""event"",""trial"",""time""
""focus"",""0"",""0""
""fullscreenenter"",""1"",""3972""
","
","""event"",""trial"",""time""
""focus"",""0"",""0""
","""event"",""trial"",""time""
""fullscreenenter"",""1"",""3972""
","
","","","5701","[""shark""]","0","23","1299","400","","","","","","","","","","","",""
"pit-instructions","4","18971","0.0-2.0-1.0-1.0","battery-v0.2","","""event"",""trial"",""time""
""focus"",""0"",""0""
""fullscreenenter"",""1"",""3972""
","
","""event"",""trial"",""time""
""focus"",""0"",""0""
","""event"",""trial"",""time""
""fullscreenenter"",""1"",""3972""
","
","","[{""page_index"":0,""viewing_time"":2208}]","2209","","","","","","","","","","","","","","","","",""
"pit-comprehension","5","23470","0.0-2.0-2.0-0.0","battery-v0.2","","""event"",""trial"",""time""
""focus"",""0"",""0""
""fullscreenenter"",""1"",""3972""
","
","""event"",""trial"",""time""
""focus"",""0"",""0""
","""event"",""trial"",""time""
""fullscreenenter"",""1"",""3972""
","
","","","4496","[""tiger""]","0","23","1299","400","","","","","","","","","","","",""
"pit-instructions","6","25286","0.0-2.0-2.0-1.0","battery-v0.2","","""event"",""trial"",""time""
""focus"",""0"",""0""
""fullscreenenter"",""1"",""3972""
""fullscreenexit"",""7"",""41170""
""blur"",""7"",""42956""
""focus"",""7"",""45122""
""blur"",""7"",""105084""
""focus"",""7"",""106482""
","""event"",""trial"",""time""
""blur"",""7"",""42956""
""blur"",""7"",""105084""
","""event"",""trial"",""time""
""focus"",""0"",""0""
""focus"",""7"",""45122""
""focus"",""7"",""106482""
","""event"",""trial"",""time""
""fullscreenenter"",""1"",""3972""
","""event"",""trial"",""time""
""fullscreenexit"",""7"",""41170""
","","[{""page_index"":0,""viewing_time"":1812}]","1812","","","","","","","","","","","","","","","","",""
"pit-instructions","7","150180","0.0-2.0-3.0","battery-v0.2","","""event"",""trial"",""time""
""focus"",""0"",""0""
""fullscreenenter"",""1"",""3972""
""fullscreenexit"",""7"",""41170""
""blur"",""7"",""42956""
""focus"",""7"",""45122""
""blur"",""7"",""105084""
""focus"",""7"",""106482""
","""event"",""trial"",""time""
""blur"",""7"",""42956""
""blur"",""7"",""105084""
","""event"",""trial"",""time""
""focus"",""0"",""0""
""focus"",""7"",""45122""
""focus"",""7"",""106482""
","""event"",""trial"",""time""
""fullscreenenter"",""1"",""3972""
","""event"",""trial"",""time""
""fullscreenexit"",""7"",""41170""
","","[{""page_index"":0,""viewing_time"":8498},{""page_index"":1,""viewing_time"":13463},{""page_index"":2,""viewing_time"":7852},{""page_index"":3,""viewing_time"":5673},{""page_index"":4,""viewing_time"":15337},{""page_index"":5,""viewing_time"":8215},{""page_index"":6,""viewing_time"":8427},{""page_index"":7,""viewing_time"":6331},{""page_index"":8,""viewing_time"":9238},{""page_index"":9,""viewing_time"":9318},{""page_index"":10,""viewing_time"":7803},{""page_index"":11,""viewing_time"":8724},{""page_index"":12,""viewing_time"":6225},{""page_index"":13,""viewing_time"":9786}]","124891","","","","","","","","","","","","","","","","",""
"pit-trial","8","153666","0.0-2.0-4.0-0.0","battery-v0.2","","""event"",""trial"",""time""
""focus"",""0"",""0""
""fullscreenenter"",""1"",""3972""
""fullscreenexit"",""7"",""41170""
""blur"",""7"",""42956""
""focus"",""7"",""45122""
""blur"",""7"",""105084""
""focus"",""7"",""106482""
","""event"",""trial"",""time""
""blur"",""7"",""42956""
""blur"",""7"",""105084""
","""event"",""trial"",""time""
""focus"",""0"",""0""
""focus"",""7"",""45122""
""focus"",""7"",""106482""
","""event"",""trial"",""time""
""fullscreenenter"",""1"",""3972""
","""event"",""trial"",""time""
""fullscreenexit"",""7"",""41170""
","","","618","","","23","1299","400","&#9784;","elianto","#FFFFF080"," "," ","1","&#10004","[1475]","1","0","0",""
"pit-trial","9","157200","0.0-2.0-4.1-0.1","battery-v0.2","","""event"",""trial"",""time""
""focus"",""0"",""0""
""fullscreenenter"",""1"",""3972""
""fullscreenexit"",""7"",""41170""
""blur"",""7"",""42956""
""focus"",""7"",""45122""
""blur"",""7"",""105084""
""focus"",""7"",""106482""
","""event"",""trial"",""time""
""blur"",""7"",""42956""
""blur"",""7"",""105084""
","""event"",""trial"",""time""
""focus"",""0"",""0""
""focus"",""7"",""45122""
""focus"",""7"",""106482""
","""event"",""trial"",""time""
""fullscreenenter"",""1"",""3972""
","""event"",""trial"",""time""
""fullscreenexit"",""7"",""41170""
","","","662","","","23","1299","400","&#9784;","elianto","#FFFFF080"," "," ","1","&#10004","[1519]","1","0","0",""
"pit-trial","10","160810","0.0-2.0-4.2-0.2","battery-v0.2","","""event"",""trial"",""time""
""focus"",""0"",""0""
""fullscreenenter"",""1"",""3972""
""fullscreenexit"",""7"",""41170""
""blur"",""7"",""42956""
""focus"",""7"",""45122""
""blur"",""7"",""105084""
""focus"",""7"",""106482""
","""event"",""trial"",""time""
""blur"",""7"",""42956""
""blur"",""7"",""105084""
","""event"",""trial"",""time""
""focus"",""0"",""0""
""focus"",""7"",""45122""
""focus"",""7"",""106482""
","""event"",""trial"",""time""
""fullscreenenter"",""1"",""3972""
","""event"",""trial"",""time""
""fullscreenexit"",""7"",""41170""
","","","746","","","23","1299","400","&#9784;","elianto","#FFFFF080"," "," ","1","&#10004","[1599]","1","0","0",""
"pit-trial","11","164275","0.0-2.0-4.3-0.3","battery-v0.2","","""event"",""trial"",""time""
""focus"",""0"",""0""
""fullscreenenter"",""1"",""3972""
""fullscreenexit"",""7"",""41170""
""blur"",""7"",""42956""
""focus"",""7"",""45122""
""blur"",""7"",""105084""
""focus"",""7"",""106482""
","""event"",""trial"",""time""
""blur"",""7"",""42956""
""blur"",""7"",""105084""
","""event"",""trial"",""time""
""focus"",""0"",""0""
""focus"",""7"",""45122""
""focus"",""7"",""106482""
","""event"",""trial"",""time""
""fullscreenenter"",""1"",""3972""
","""event"",""trial"",""time""
""fullscreenexit"",""7"",""41170""
","","","601","","","23","1299","400","&#9784;","elianto","#FFFFF080"," "," ","1","&#10004","[1453]","1","0","0",""
"pit-trial","12","167881","0.0-2.0-4.4-0.4","battery-v0.2","","""event"",""trial"",""time""
""focus"",""0"",""0""
""fullscreenenter"",""1"",""3972""
""fullscreenexit"",""7"",""41170""
""blur"",""7"",""42956""
""focus"",""7"",""45122""
""blur"",""7"",""105084""
""focus"",""7"",""106482""
""blur"",""13"",""200813""
""focus"",""13"",""204218""
","""event"",""trial"",""time""
""blur"",""7"",""42956""
""blur"",""7"",""105084""
""blur"",""13"",""200813""
","""event"",""trial"",""time""
""focus"",""0"",""0""
""focus"",""7"",""45122""
""focus"",""7"",""106482""
""focus"",""13"",""204218""
","""event"",""trial"",""time""
""fullscreenenter"",""1"",""3972""
","""event"",""trial"",""time""
""fullscreenexit"",""7"",""41170""
","","","742","","","23","1299","400","&#9784;","elianto","#FFFFF080"," "," ","1","&#10004","[1594]","1","0","0",""
"pit-instructions","13","206565","0.0-2.0-5.0","battery-v0.2","","""event"",""trial"",""time""
""focus"",""0"",""0""
""fullscreenenter"",""1"",""3972""
""fullscreenexit"",""7"",""41170""
""blur"",""7"",""42956""
""focus"",""7"",""45122""
""blur"",""7"",""105084""
""focus"",""7"",""106482""
""blur"",""13"",""200813""
""focus"",""13"",""204218""
","""event"",""trial"",""time""
""blur"",""7"",""42956""
""blur"",""7"",""105084""
""blur"",""13"",""200813""
","""event"",""trial"",""time""
""focus"",""0"",""0""
""focus"",""7"",""45122""
""focus"",""7"",""106482""
""focus"",""13"",""204218""
","""event"",""trial"",""time""
""fullscreenenter"",""1"",""3972""
","""event"",""trial"",""time""
""fullscreenexit"",""7"",""41170""
","","[{""page_index"":0,""viewing_time"":8359},{""page_index"":1,""viewing_time"":6671},{""page_index"":2,""viewing_time"":5885},{""page_index"":3,""viewing_time"":17757}]","38673","","","","","","","","","","","","","","","","",""
"pit-trial","14","211427","0.0-2.0-6.0-0.0","battery-v0.2","","""event"",""trial"",""time""
""focus"",""0"",""0""
""fullscreenenter"",""1"",""3972""
""fullscreenexit"",""7"",""41170""
""blur"",""7"",""42956""
""focus"",""7"",""45122""
""blur"",""7"",""105084""
""focus"",""7"",""106482""
""blur"",""13"",""200813""
""focus"",""13"",""204218""
","""event"",""trial"",""time""
""blur"",""7"",""42956""
""blur"",""7"",""105084""
""blur"",""13"",""200813""
","""event"",""trial"",""time""
""focus"",""0"",""0""
""focus"",""7"",""45122""
""focus"",""7"",""106482""
""focus"",""13"",""204218""
","""event"",""trial"",""time""
""fullscreenenter"",""1"",""3972""
","""event"",""trial"",""time""
""fullscreenexit"",""7"",""41170""
","","","-1","","","23","1299","400","&#9854;","elianto","#FFFFF080","-1","-1","1","&#10004","[]","0","0","1",""
"pit-trial","15","216291","0.0-2.0-6.1-0.1","battery-v0.2","","""event"",""trial"",""time""
""focus"",""0"",""0""
""fullscreenenter"",""1"",""3972""
""fullscreenexit"",""7"",""41170""
""blur"",""7"",""42956""
""focus"",""7"",""45122""
""blur"",""7"",""105084""
""focus"",""7"",""106482""
""blur"",""13"",""200813""
""focus"",""13"",""204218""
","""event"",""trial"",""time""
""blur"",""7"",""42956""
""blur"",""7"",""105084""
""blur"",""13"",""200813""
","""event"",""trial"",""time""
""focus"",""0"",""0""
""focus"",""7"",""45122""
""focus"",""7"",""106482""
""focus"",""13"",""204218""
","""event"",""trial"",""time""
""fullscreenenter"",""1"",""3972""
","""event"",""trial"",""time""
""fullscreenexit"",""7"",""41170""
","","","-1","","","23","1299","400","&#9854;","elianto","#FFFFF080","-1","-1","1","&#10004","[]","0","0","1",""
"pit-trial","16","221160","0.0-2.0-6.2-0.2","battery-v0.2","","""event"",""trial"",""time""
""focus"",""0"",""0""
""fullscreenenter"",""1"",""3972""
""fullscreenexit"",""7"",""41170""
""blur"",""7"",""42956""
""focus"",""7"",""45122""
""blur"",""7"",""105084""
""focus"",""7"",""106482""
""blur"",""13"",""200813""
""focus"",""13"",""204218""
","""event"",""trial"",""time""
""blur"",""7"",""42956""
""blur"",""7"",""105084""
""blur"",""13"",""200813""
","""event"",""trial"",""time""
""focus"",""0"",""0""
""focus"",""7"",""45122""
""focus"",""7"",""106482""
""focus"",""13"",""204218""
","""event"",""trial"",""time""
""fullscreenenter"",""1"",""3972""
","""event"",""trial"",""time""
""fullscreenexit"",""7"",""41170""
","","","-1","","","23","1299","400","&#9854;","elianto","#FFFFF080","-1","-1","1","&#10004","[]","0","0","1",""
"pit-trial","17","226027","0.0-2.0-6.3-0.3","battery-v0.2","","""event"",""trial"",""time""
""focus"",""0"",""0""
""fullscreenenter"",""1"",""3972""
""fullscreenexit"",""7"",""41170""
""blur"",""7"",""42956""
""focus"",""7"",""45122""
""blur"",""7"",""105084""
""focus"",""7"",""106482""
""blur"",""13"",""200813""
""focus"",""13"",""204218""
","""event"",""trial"",""time""
""blur"",""7"",""42956""
""blur"",""7"",""105084""
""blur"",""13"",""200813""
","""event"",""trial"",""time""
""focus"",""0"",""0""
""focus"",""7"",""45122""
""focus"",""7"",""106482""
""focus"",""13"",""204218""
","""event"",""trial"",""time""
""fullscreenenter"",""1"",""3972""
","""event"",""trial"",""time""
""fullscreenexit"",""7"",""41170""
","","","-1","","","23","1299","400","&#9854;","elianto","#FFFFF080","-1","-1","1","&#10004","[]","0","0","1",""
"pit-trial","18","230902","0.0-2.0-6.4-0.4","battery-v0.2","","""event"",""trial"",""time""
""focus"",""0"",""0""
""fullscreenenter"",""1"",""3972""
""fullscreenexit"",""7"",""41170""
""blur"",""7"",""42956""
""focus"",""7"",""45122""
""blur"",""7"",""105084""
""focus"",""7"",""106482""
""blur"",""13"",""200813""
""focus"",""13"",""204218""
""blur"",""19"",""287537""
""focus"",""19"",""289561""
""blur"",""19"",""329690""
""focus"",""19"",""331452""
","""event"",""trial"",""time""
""blur"",""7"",""42956""
""blur"",""7"",""105084""
""blur"",""13"",""200813""
""blur"",""19"",""287537""
""blur"",""19"",""329690""
","""event"",""trial"",""time""
""focus"",""0"",""0""
""focus"",""7"",""45122""
""focus"",""7"",""106482""
""focus"",""13"",""204218""
""focus"",""19"",""289561""
""focus"",""19"",""331452""
","""event"",""trial"",""time""
""fullscreenenter"",""1"",""3972""
","""event"",""trial"",""time""
""fullscreenexit"",""7"",""41170""
","","","-1","","","23","1299","400","&#9854;","elianto","#FFFFF080","-1","-1","1","&#10004","[]","0","0","1",""
"pit-instructions","19","371758","0.0-2.0-7.0","battery-v0.2","","""event"",""trial"",""time""
""focus"",""0"",""0""
""fullscreenenter"",""1"",""3972""
""fullscreenexit"",""7"",""41170""
""blur"",""7"",""42956""
""focus"",""7"",""45122""
""blur"",""7"",""105084""
""focus"",""7"",""106482""
""blur"",""13"",""200813""
""focus"",""13"",""204218""
""blur"",""19"",""287537""
""focus"",""19"",""289561""
""blur"",""19"",""329690""
""focus"",""19"",""331452""
","""event"",""trial"",""time""
""blur"",""7"",""42956""
""blur"",""7"",""105084""
""blur"",""13"",""200813""
""blur"",""19"",""287537""
""blur"",""19"",""329690""
","""event"",""trial"",""time""
""focus"",""0"",""0""
""focus"",""7"",""45122""
""focus"",""7"",""106482""
""focus"",""13"",""204218""
""focus"",""19"",""289561""
""focus"",""19"",""331452""
","""event"",""trial"",""time""
""fullscreenenter"",""1"",""3972""
","""event"",""trial"",""time""
""fullscreenexit"",""7"",""41170""
","","[{""page_index"":0,""viewing_time"":6827},{""page_index"":1,""viewing_time"":9037},{""page_index"":2,""viewing_time"":7585},{""page_index"":3,""viewing_time"":7149},{""page_index"":4,""viewing_time"":7104},{""page_index"":5,""viewing_time"":6405},{""page_index"":6,""viewing_time"":6114},{""page_index"":7,""viewing_time"":10026},{""page_index"":8,""viewing_time"":6062},{""page_index"":9,""viewing_time"":7066},{""page_index"":10,""viewing_time"":6906},{""page_index"":11,""viewing_time"":5760},{""page_index"":12,""viewing_time"":6667},{""page_index"":13,""viewing_time"":9078},{""page_index"":14,""viewing_time"":14932},{""page_index"":15,""viewing_time"":8539},{""page_index"":16,""viewing_time"":7972},{""page_index"":17,""viewing_time"":7617}]","140846","","","","","","","","","","","","","","","","",""
"pit-trial","20","375496","0.0-2.0-8.0-0.0","battery-v0.2","","""event"",""trial"",""time""
""focus"",""0"",""0""
""fullscreenenter"",""1"",""3972""
""fullscreenexit"",""7"",""41170""
""blur"",""7"",""42956""
""focus"",""7"",""45122""
""blur"",""7"",""105084""
""focus"",""7"",""106482""
""blur"",""13"",""200813""
""focus"",""13"",""204218""
""blur"",""19"",""287537""
""focus"",""19"",""289561""
""blur"",""19"",""329690""
""focus"",""19"",""331452""
","""event"",""trial"",""time""
""blur"",""7"",""42956""
""blur"",""7"",""105084""
""blur"",""13"",""200813""
""blur"",""19"",""287537""
""blur"",""19"",""329690""
","""event"",""trial"",""time""
""focus"",""0"",""0""
""focus"",""7"",""45122""
""focus"",""7"",""106482""
""focus"",""13"",""204218""
""focus"",""19"",""289561""
""focus"",""19"",""331452""
","""event"",""trial"",""time""
""fullscreenenter"",""1"",""3972""
","""event"",""trial"",""time""
""fullscreenexit"",""7"",""41170""
","","","867","","","23","1299","400","&#9776;","elianto","#3366ff99"," "," ","1","+10","[1725]","1","0","1",""
"pit-trial","21","379006","0.0-2.0-8.0-1.0","battery-v0.2","","""event"",""trial"",""time""
""focus"",""0"",""0""
""fullscreenenter"",""1"",""3972""
""fullscreenexit"",""7"",""41170""
""blur"",""7"",""42956""
""focus"",""7"",""45122""
""blur"",""7"",""105084""
""focus"",""7"",""106482""
""blur"",""13"",""200813""
""focus"",""13"",""204218""
""blur"",""19"",""287537""
""focus"",""19"",""289561""
""blur"",""19"",""329690""
""focus"",""19"",""331452""
","""event"",""trial"",""time""
""blur"",""7"",""42956""
""blur"",""7"",""105084""
""blur"",""13"",""200813""
""blur"",""19"",""287537""
""blur"",""19"",""329690""
","""event"",""trial"",""time""
""focus"",""0"",""0""
""focus"",""7"",""45122""
""focus"",""7"",""106482""
""focus"",""13"",""204218""
""focus"",""19"",""289561""
""focus"",""19"",""331452""
","""event"",""trial"",""time""
""fullscreenenter"",""1"",""3972""
","""event"",""trial"",""time""
""fullscreenexit"",""7"",""41170""
","","","642","","","23","1299","400","&#9776;","elianto","#3366ff99"," "," ","1","+10","[1492]","1","0","1",""
"pit-trial","22","382603","0.0-2.0-8.0-2.0","battery-v0.2","","""event"",""trial"",""time""
""focus"",""0"",""0""
""fullscreenenter"",""1"",""3972""
""fullscreenexit"",""7"",""41170""
""blur"",""7"",""42956""
""focus"",""7"",""45122""
""blur"",""7"",""105084""
""focus"",""7"",""106482""
""blur"",""13"",""200813""
""focus"",""13"",""204218""
""blur"",""19"",""287537""
""focus"",""19"",""289561""
""blur"",""19"",""329690""
""focus"",""19"",""331452""
","""event"",""trial"",""time""
""blur"",""7"",""42956""
""blur"",""7"",""105084""
""blur"",""13"",""200813""
""blur"",""19"",""287537""
""blur"",""19"",""329690""
","""event"",""trial"",""time""
""focus"",""0"",""0""
""focus"",""7"",""45122""
""focus"",""7"",""106482""
""focus"",""13"",""204218""
""focus"",""19"",""289561""
""focus"",""19"",""331452""
","""event"",""trial"",""time""
""fullscreenenter"",""1"",""3972""
","""event"",""trial"",""time""
""fullscreenexit"",""7"",""41170""
","","","722","","","23","1299","400","&#9776;","elianto","#3366ff99"," "," ","1","+10","[1585]","1","0","1",""
"pit-trial","23","386111","0.0-2.0-8.0-3.0","battery-v0.2","","""event"",""trial"",""time""
""focus"",""0"",""0""
""fullscreenenter"",""1"",""3972""
""fullscreenexit"",""7"",""41170""
""blur"",""7"",""42956""
""focus"",""7"",""45122""
""blur"",""7"",""105084""
""focus"",""7"",""106482""
""blur"",""13"",""200813""
""focus"",""13"",""204218""
""blur"",""19"",""287537""
""focus"",""19"",""289561""
""blur"",""19"",""329690""
""focus"",""19"",""331452""
","""event"",""trial"",""time""
""blur"",""7"",""42956""
""blur"",""7"",""105084""
""blur"",""13"",""200813""
""blur"",""19"",""287537""
""blur"",""19"",""329690""
","""event"",""trial"",""time""
""focus"",""0"",""0""
""focus"",""7"",""45122""
""focus"",""7"",""106482""
""focus"",""13"",""204218""
""focus"",""19"",""289561""
""focus"",""19"",""331452""
","""event"",""trial"",""time""
""fullscreenenter"",""1"",""3972""
","""event"",""trial"",""time""
""fullscreenexit"",""7"",""41170""
","","","626","","","23","1299","400","&#9776;","elianto","#3366ff99"," "," ","1","0","[1490]","1","0","1",""
"pit-trial","24","389665","0.0-2.0-8.0-4.0","battery-v0.2","","""event"",""trial"",""time""
""focus"",""0"",""0""
""fullscreenenter"",""1"",""3972""
""fullscreenexit"",""7"",""41170""
""blur"",""7"",""42956""
""focus"",""7"",""45122""
""blur"",""7"",""105084""
""focus"",""7"",""106482""
""blur"",""13"",""200813""
""focus"",""13"",""204218""
""blur"",""19"",""287537""
""focus"",""19"",""289561""
""blur"",""19"",""329690""
""focus"",""19"",""331452""
","""event"",""trial"",""time""
""blur"",""7"",""42956""
""blur"",""7"",""105084""
""blur"",""13"",""200813""
""blur"",""19"",""287537""
""blur"",""19"",""329690""
","""event"",""trial"",""time""
""focus"",""0"",""0""
""focus"",""7"",""45122""
""focus"",""7"",""106482""
""focus"",""13"",""204218""
""focus"",""19"",""289561""
""focus"",""19"",""331452""
","""event"",""trial"",""time""
""fullscreenenter"",""1"",""3972""
","""event"",""trial"",""time""
""fullscreenexit"",""7"",""41170""
","","","680","","","23","1299","400","&#9776;","elianto","#3366ff99"," "," ","1","+10","[1542]","1","0","1",""
"call-function","25","389668","0.0-2.0-9.0","battery-v0.2","","""event"",""trial"",""time""
""focus"",""0"",""0""
""fullscreenenter"",""1"",""3972""
""fullscreenexit"",""7"",""41170""
""blur"",""7"",""42956""
""focus"",""7"",""45122""
""blur"",""7"",""105084""
""focus"",""7"",""106482""
""blur"",""13"",""200813""
""focus"",""13"",""204218""
""blur"",""19"",""287537""
""focus"",""19"",""289561""
""blur"",""19"",""329690""
""focus"",""19"",""331452""
","""event"",""trial"",""time""
""blur"",""7"",""42956""
""blur"",""7"",""105084""
""blur"",""13"",""200813""
""blur"",""19"",""287537""
""blur"",""19"",""329690""
","""event"",""trial"",""time""
""focus"",""0"",""0""
""focus"",""7"",""45122""
""focus"",""7"",""106482""
""focus"",""13"",""204218""
""focus"",""19"",""289561""
""focus"",""19"",""331452""
","""event"",""trial"",""time""
""fullscreenenter"",""1"",""3972""
","""event"",""trial"",""time""
""fullscreenexit"",""7"",""41170""
","","","","","","","","","","","","","","","","","","","",""
"pit-instructions","26","436916","0.0-2.0-10.0","battery-v0.2","","""event"",""trial"",""time""
""focus"",""0"",""0""
""fullscreenenter"",""1"",""3972""
""fullscreenexit"",""7"",""41170""
""blur"",""7"",""42956""
""focus"",""7"",""45122""
""blur"",""7"",""105084""
""focus"",""7"",""106482""
""blur"",""13"",""200813""
""focus"",""13"",""204218""
""blur"",""19"",""287537""
""focus"",""19"",""289561""
""blur"",""19"",""329690""
""focus"",""19"",""331452""
","""event"",""trial"",""time""
""blur"",""7"",""42956""
""blur"",""7"",""105084""
""blur"",""13"",""200813""
""blur"",""19"",""287537""
""blur"",""19"",""329690""
","""event"",""trial"",""time""
""focus"",""0"",""0""
""focus"",""7"",""45122""
""focus"",""7"",""106482""
""focus"",""13"",""204218""
""focus"",""19"",""289561""
""focus"",""19"",""331452""
","""event"",""trial"",""time""
""fullscreenenter"",""1"",""3972""
","""event"",""trial"",""time""
""fullscreenexit"",""7"",""41170""
","","[{""page_index"":0,""viewing_time"":7106},{""page_index"":1,""viewing_time"":9565},{""page_index"":2,""viewing_time"":12121},{""page_index"":3,""viewing_time"":10069},{""page_index"":4,""viewing_time"":8386}]","47247","","","","","","","","","","","","","","","","",""
"pit-trial","27","440461","0.0-2.0-11.0-0.0","battery-v0.2","","""event"",""trial"",""time""
""focus"",""0"",""0""
""fullscreenenter"",""1"",""3972""
""fullscreenexit"",""7"",""41170""
""blur"",""7"",""42956""
""focus"",""7"",""45122""
""blur"",""7"",""105084""
""focus"",""7"",""106482""
""blur"",""13"",""200813""
""focus"",""13"",""204218""
""blur"",""19"",""287537""
""focus"",""19"",""289561""
""blur"",""19"",""329690""
""focus"",""19"",""331452""
","""event"",""trial"",""time""
""blur"",""7"",""42956""
""blur"",""7"",""105084""
""blur"",""13"",""200813""
""blur"",""19"",""287537""
""blur"",""19"",""329690""
","""event"",""trial"",""time""
""focus"",""0"",""0""
""focus"",""7"",""45122""
""focus"",""7"",""106482""
""focus"",""13"",""204218""
""focus"",""19"",""289561""
""focus"",""19"",""331452""
","""event"",""trial"",""time""
""fullscreenenter"",""1"",""3972""
","""event"",""trial"",""time""
""fullscreenexit"",""7"",""41170""
","","","673","","","23","1299","400","&#9761;","elianto","#3366ff99","-1"," ","0","0","[1526]","1","0","2",""
"pit-trial","28","444006","0.0-2.0-11.0-1.0","battery-v0.2","","""event"",""trial"",""time""
""focus"",""0"",""0""
""fullscreenenter"",""1"",""3972""
""fullscreenexit"",""7"",""41170""
""blur"",""7"",""42956""
""focus"",""7"",""45122""
""blur"",""7"",""105084""
""focus"",""7"",""106482""
""blur"",""13"",""200813""
""focus"",""13"",""204218""
""blur"",""19"",""287537""
""focus"",""19"",""289561""
""blur"",""19"",""329690""
""focus"",""19"",""331452""
","""event"",""trial"",""time""
""blur"",""7"",""42956""
""blur"",""7"",""105084""
""blur"",""13"",""200813""
""blur"",""19"",""287537""
""blur"",""19"",""329690""
","""event"",""trial"",""time""
""focus"",""0"",""0""
""focus"",""7"",""45122""
""focus"",""7"",""106482""
""focus"",""13"",""204218""
""focus"",""19"",""289561""
""focus"",""19"",""331452""
","""event"",""trial"",""time""
""fullscreenenter"",""1"",""3972""
","""event"",""trial"",""time""
""fullscreenexit"",""7"",""41170""
","","","674","","","23","1299","400","&#9761;","elianto","#3366ff99","-1"," ","0","0","[1527]","1","0","2",""
"pit-trial","29","447290","0.0-2.0-11.0-2.0","battery-v0.2","","""event"",""trial"",""time""
""focus"",""0"",""0""
""fullscreenenter"",""1"",""3972""
""fullscreenexit"",""7"",""41170""
""blur"",""7"",""42956""
""focus"",""7"",""45122""
""blur"",""7"",""105084""
""focus"",""7"",""106482""
""blur"",""13"",""200813""
""focus"",""13"",""204218""
""blur"",""19"",""287537""
""focus"",""19"",""289561""
""blur"",""19"",""329690""
""focus"",""19"",""331452""
","""event"",""trial"",""time""
""blur"",""7"",""42956""
""blur"",""7"",""105084""
""blur"",""13"",""200813""
""blur"",""19"",""287537""
""blur"",""19"",""329690""
","""event"",""trial"",""time""
""focus"",""0"",""0""
""focus"",""7"",""45122""
""focus"",""7"",""106482""
""focus"",""13"",""204218""
""focus"",""19"",""289561""
""focus"",""19"",""331452""
","""event"",""trial"",""time""
""fullscreenenter"",""1"",""3972""
","""event"",""trial"",""time""
""fullscreenexit"",""7"",""41170""
","","","410","","","23","1299","400","&#9761;","elianto","#3366ff99","-1"," ","0","0","[1274]","1","0","2",""
"pit-trial","30","452154","0.0-2.0-11.0-3.0","battery-v0.2","","""event"",""trial"",""time""
""focus"",""0"",""0""
""fullscreenenter"",""1"",""3972""
""fullscreenexit"",""7"",""41170""
""blur"",""7"",""42956""
""focus"",""7"",""45122""
""blur"",""7"",""105084""
""focus"",""7"",""106482""
""blur"",""13"",""200813""
""focus"",""13"",""204218""
""blur"",""19"",""287537""
""focus"",""19"",""289561""
""blur"",""19"",""329690""
""focus"",""19"",""331452""
","""event"",""trial"",""time""
""blur"",""7"",""42956""
""blur"",""7"",""105084""
""blur"",""13"",""200813""
""blur"",""19"",""287537""
""blur"",""19"",""329690""
","""event"",""trial"",""time""
""focus"",""0"",""0""
""focus"",""7"",""45122""
""focus"",""7"",""106482""
""focus"",""13"",""204218""
""focus"",""19"",""289561""
""focus"",""19"",""331452""
","""event"",""trial"",""time""
""fullscreenenter"",""1"",""3972""
","""event"",""trial"",""time""
""fullscreenexit"",""7"",""41170""
","","","-1","","","23","1299","400","&#9761;","elianto","#3366ff99","-1","-1","1","0","[]","0","0","2",""
"pit-trial","31","457020","0.0-2.0-11.0-4.0","battery-v0.2","","""event"",""trial"",""time""
""focus"",""0"",""0""
""fullscreenenter"",""1"",""3972""
""fullscreenexit"",""7"",""41170""
""blur"",""7"",""42956""
""focus"",""7"",""45122""
""blur"",""7"",""105084""
""focus"",""7"",""106482""
""blur"",""13"",""200813""
""focus"",""13"",""204218""
""blur"",""19"",""287537""
""focus"",""19"",""289561""
""blur"",""19"",""329690""
""focus"",""19"",""331452""
","""event"",""trial"",""time""
""blur"",""7"",""42956""
""blur"",""7"",""105084""
""blur"",""13"",""200813""
""blur"",""19"",""287537""
""blur"",""19"",""329690""
","""event"",""trial"",""time""
""focus"",""0"",""0""
""focus"",""7"",""45122""
""focus"",""7"",""106482""
""focus"",""13"",""204218""
""focus"",""19"",""289561""
""focus"",""19"",""331452""
","""event"",""trial"",""time""
""fullscreenenter"",""1"",""3972""
","""event"",""trial"",""time""
""fullscreenexit"",""7"",""41170""
","","","-1","","","23","1299","400","&#9761;","elianto","#3366ff99","-1","-1","1","+10","[]","0","0","2",""
"pit-trial","32","461887","0.0-2.0-11.1-0.1","battery-v0.2","","""event"",""trial"",""time""
""focus"",""0"",""0""
""fullscreenenter"",""1"",""3972""
""fullscreenexit"",""7"",""41170""
""blur"",""7"",""42956""
""focus"",""7"",""45122""
""blur"",""7"",""105084""
""focus"",""7"",""106482""
""blur"",""13"",""200813""
""focus"",""13"",""204218""
""blur"",""19"",""287537""
""focus"",""19"",""289561""
""blur"",""19"",""329690""
""focus"",""19"",""331452""
","""event"",""trial"",""time""
""blur"",""7"",""42956""
""blur"",""7"",""105084""
""blur"",""13"",""200813""
""blur"",""19"",""287537""
""blur"",""19"",""329690""
","""event"",""trial"",""time""
""focus"",""0"",""0""
""focus"",""7"",""45122""
""focus"",""7"",""106482""
""focus"",""13"",""204218""
""focus"",""19"",""289561""
""focus"",""19"",""331452""
","""event"",""trial"",""time""
""fullscreenenter"",""1"",""3972""
","""event"",""trial"",""time""
""fullscreenexit"",""7"",""41170""
","","","-1","","","23","1299","400","&#9761;","elianto","#3366ff99","-1","-1","1","+10","[]","0","0","2",""
"pit-trial","33","465329","0.0-2.0-11.1-1.1","battery-v0.2","","""event"",""trial"",""time""
""focus"",""0"",""0""
""fullscreenenter"",""1"",""3972""
""fullscreenexit"",""7"",""41170""
""blur"",""7"",""42956""
""focus"",""7"",""45122""
""blur"",""7"",""105084""
""focus"",""7"",""106482""
""blur"",""13"",""200813""
""focus"",""13"",""204218""
""blur"",""19"",""287537""
""focus"",""19"",""289561""
""blur"",""19"",""329690""
""focus"",""19"",""331452""
","""event"",""trial"",""time""
""blur"",""7"",""42956""
""blur"",""7"",""105084""
""blur"",""13"",""200813""
""blur"",""19"",""287537""
""blur"",""19"",""329690""
","""event"",""trial"",""time""
""focus"",""0"",""0""
""focus"",""7"",""45122""
""focus"",""7"",""106482""
""focus"",""13"",""204218""
""focus"",""19"",""289561""
""focus"",""19"",""331452""
","""event"",""trial"",""time""
""fullscreenenter"",""1"",""3972""
","""event"",""trial"",""time""
""fullscreenexit"",""7"",""41170""
","","","574","","","23","1299","400","&#9761;","elianto","#3366ff99","-1"," ","0","0","[1432]","1","0","2",""
"pit-trial","34","468707","0.0-2.0-11.1-2.1","battery-v0.2","","""event"",""trial"",""time""
""focus"",""0"",""0""
""fullscreenenter"",""1"",""3972""
""fullscreenexit"",""7"",""41170""
""blur"",""7"",""42956""
""focus"",""7"",""45122""
""blur"",""7"",""105084""
""focus"",""7"",""106482""
""blur"",""13"",""200813""
""focus"",""13"",""204218""
""blur"",""19"",""287537""
""focus"",""19"",""289561""
""blur"",""19"",""329690""
""focus"",""19"",""331452""
","""event"",""trial"",""time""
""blur"",""7"",""42956""
""blur"",""7"",""105084""
""blur"",""13"",""200813""
""blur"",""19"",""287537""
""blur"",""19"",""329690""
","""event"",""trial"",""time""
""focus"",""0"",""0""
""focus"",""7"",""45122""
""focus"",""7"",""106482""
""focus"",""13"",""204218""
""focus"",""19"",""289561""
""focus"",""19"",""331452""
","""event"",""trial"",""time""
""fullscreenenter"",""1"",""3972""
","""event"",""trial"",""time""
""fullscreenexit"",""7"",""41170""
","","","504","","","23","1299","400","&#9761;","elianto","#3366ff99","-1"," ","0","0","[1369]","1","0","2",""
"pit-trial","35","472192","0.0-2.0-11.1-3.1","battery-v0.2","","""event"",""trial"",""time""
""focus"",""0"",""0""
""fullscreenenter"",""1"",""3972""
""fullscreenexit"",""7"",""41170""
""blur"",""7"",""42956""
""focus"",""7"",""45122""
""blur"",""7"",""105084""
""focus"",""7"",""106482""
""blur"",""13"",""200813""
""focus"",""13"",""204218""
""blur"",""19"",""287537""
""focus"",""19"",""289561""
""blur"",""19"",""329690""
""focus"",""19"",""331452""
","""event"",""trial"",""time""
""blur"",""7"",""42956""
""blur"",""7"",""105084""
""blur"",""13"",""200813""
""blur"",""19"",""287537""
""blur"",""19"",""329690""
","""event"",""trial"",""time""
""focus"",""0"",""0""
""focus"",""7"",""45122""
""focus"",""7"",""106482""
""focus"",""13"",""204218""
""focus"",""19"",""289561""
""focus"",""19"",""331452""
","""event"",""trial"",""time""
""fullscreenenter"",""1"",""3972""
","""event"",""trial"",""time""
""fullscreenexit"",""7"",""41170""
","","","626","","","23","1299","400","&#9761;","elianto","#3366ff99","-1"," ","0","+10","[1481]","1","0","2",""
"pit-trial","36","476186","0.0-2.0-11.1-4.1","battery-v0.2","","""event"",""trial"",""time""
""focus"",""0"",""0""
""fullscreenenter"",""1"",""3972""
""fullscreenexit"",""7"",""41170""
""blur"",""7"",""42956""
""focus"",""7"",""45122""
""blur"",""7"",""105084""
""focus"",""7"",""106482""
""blur"",""13"",""200813""
""focus"",""13"",""204218""
""blur"",""19"",""287537""
""focus"",""19"",""289561""
""blur"",""19"",""329690""
""focus"",""19"",""331452""
","""event"",""trial"",""time""
""blur"",""7"",""42956""
""blur"",""7"",""105084""
""blur"",""13"",""200813""
""blur"",""19"",""287537""
""blur"",""19"",""329690""
","""event"",""trial"",""time""
""focus"",""0"",""0""
""focus"",""7"",""45122""
""focus"",""7"",""106482""
""focus"",""13"",""204218""
""focus"",""19"",""289561""
""focus"",""19"",""331452""
","""event"",""trial"",""time""
""fullscreenenter"",""1"",""3972""
","""event"",""trial"",""time""
""fullscreenexit"",""7"",""41170""
","","","1131","","","23","1299","400","&#9761;","elianto","#3366ff99","-1"," ","0","0","[1986]","1","0","2",""
"pit-trial","37","479449","0.0-2.0-11.2-0.2","battery-v0.2","","""event"",""trial"",""time""
""focus"",""0"",""0""
""fullscreenenter"",""1"",""3972""
""fullscreenexit"",""7"",""41170""
""blur"",""7"",""42956""
""focus"",""7"",""45122""
""blur"",""7"",""105084""
""focus"",""7"",""106482""
""blur"",""13"",""200813""
""focus"",""13"",""204218""
""blur"",""19"",""287537""
""focus"",""19"",""289561""
""blur"",""19"",""329690""
""focus"",""19"",""331452""
","""event"",""trial"",""time""
""blur"",""7"",""42956""
""blur"",""7"",""105084""
""blur"",""13"",""200813""
""blur"",""19"",""287537""
""blur"",""19"",""329690""
","""event"",""trial"",""time""
""focus"",""0"",""0""
""focus"",""7"",""45122""
""focus"",""7"",""106482""
""focus"",""13"",""204218""
""focus"",""19"",""289561""
""focus"",""19"",""331452""
","""event"",""trial"",""time""
""fullscreenenter"",""1"",""3972""
","""event"",""trial"",""time""
""fullscreenexit"",""7"",""41170""
","","","392","","","23","1299","400","&#9761;","elianto","#3366ff99","-1"," ","0","0","[1256]","1","0","2",""
"pit-trial","38","482908","0.0-2.0-11.2-1.2","battery-v0.2","","""event"",""trial"",""time""
""focus"",""0"",""0""
""fullscreenenter"",""1"",""3972""
""fullscreenexit"",""7"",""41170""
""blur"",""7"",""42956""
""focus"",""7"",""45122""
""blur"",""7"",""105084""
""focus"",""7"",""106482""
""blur"",""13"",""200813""
""focus"",""13"",""204218""
""blur"",""19"",""287537""
""focus"",""19"",""289561""
""blur"",""19"",""329690""
""focus"",""19"",""331452""
","""event"",""trial"",""time""
""blur"",""7"",""42956""
""blur"",""7"",""105084""
""blur"",""13"",""200813""
""blur"",""19"",""287537""
""blur"",""19"",""329690""
","""event"",""trial"",""time""
""focus"",""0"",""0""
""focus"",""7"",""45122""
""focus"",""7"",""106482""
""focus"",""13"",""204218""
""focus"",""19"",""289561""
""focus"",""19"",""331452""
","""event"",""trial"",""time""
""fullscreenenter"",""1"",""3972""
","""event"",""trial"",""time""
""fullscreenexit"",""7"",""41170""
","","","595","","","23","1299","400","&#9761;","elianto","#3366ff99","-1"," ","0","0","[1447]","1","0","2",""
"pit-trial","39","486423","0.0-2.0-11.2-2.2","battery-v0.2","","""event"",""trial"",""time""
""focus"",""0"",""0""
""fullscreenenter"",""1"",""3972""
""fullscreenexit"",""7"",""41170""
""blur"",""7"",""42956""
""focus"",""7"",""45122""
""blur"",""7"",""105084""
""focus"",""7"",""106482""
""blur"",""13"",""200813""
""focus"",""13"",""204218""
""blur"",""19"",""287537""
""focus"",""19"",""289561""
""blur"",""19"",""329690""
""focus"",""19"",""331452""
","""event"",""trial"",""time""
""blur"",""7"",""42956""
""blur"",""7"",""105084""
""blur"",""13"",""200813""
""blur"",""19"",""287537""
""blur"",""19"",""329690""
","""event"",""trial"",""time""
""focus"",""0"",""0""
""focus"",""7"",""45122""
""focus"",""7"",""106482""
""focus"",""13"",""204218""
""focus"",""19"",""289561""
""focus"",""19"",""331452""
","""event"",""trial"",""time""
""fullscreenenter"",""1"",""3972""
","""event"",""trial"",""time""
""fullscreenexit"",""7"",""41170""
","","","660","","","23","1299","400","&#9761;","elianto","#3366ff99","-1"," ","0","0","[1512]","1","0","2",""
"pit-trial","40","489879","0.0-2.0-11.2-3.2","battery-v0.2","","""event"",""trial"",""time""
""focus"",""0"",""0""
""fullscreenenter"",""1"",""3972""
""fullscreenexit"",""7"",""41170""
""blur"",""7"",""42956""
""focus"",""7"",""45122""
""blur"",""7"",""105084""
""focus"",""7"",""106482""
""blur"",""13"",""200813""
""focus"",""13"",""204218""
""blur"",""19"",""287537""
""focus"",""19"",""289561""
""blur"",""19"",""329690""
""focus"",""19"",""331452""
","""event"",""trial"",""time""
""blur"",""7"",""42956""
""blur"",""7"",""105084""
""blur"",""13"",""200813""
""blur"",""19"",""287537""
""blur"",""19"",""329690""
","""event"",""trial"",""time""
""focus"",""0"",""0""
""focus"",""7"",""45122""
""focus"",""7"",""106482""
""focus"",""13"",""204218""
""focus"",""19"",""289561""
""focus"",""19"",""331452""
","""event"",""trial"",""time""
""fullscreenenter"",""1"",""3972""
","""event"",""trial"",""time""
""fullscreenexit"",""7"",""41170""
","","","592","","","23","1299","400","&#9761;","elianto","#3366ff99","-1"," ","0","+10","[1455]","1","0","2",""
"pit-trial","41","493564","0.0-2.0-11.2-4.2","battery-v0.2","","""event"",""trial"",""time""
""focus"",""0"",""0""
""fullscreenenter"",""1"",""3972""
""fullscreenexit"",""7"",""41170""
""blur"",""7"",""42956""
""focus"",""7"",""45122""
""blur"",""7"",""105084""
""focus"",""7"",""106482""
""blur"",""13"",""200813""
""focus"",""13"",""204218""
""blur"",""19"",""287537""
""focus"",""19"",""289561""
""blur"",""19"",""329690""
""focus"",""19"",""331452""
","""event"",""trial"",""time""
""blur"",""7"",""42956""
""blur"",""7"",""105084""
""blur"",""13"",""200813""
""blur"",""19"",""287537""
""blur"",""19"",""329690""
","""event"",""trial"",""time""
""focus"",""0"",""0""
""focus"",""7"",""45122""
""focus"",""7"",""106482""
""focus"",""13"",""204218""
""focus"",""19"",""289561""
""focus"",""19"",""331452""
","""event"",""trial"",""time""
""fullscreenenter"",""1"",""3972""
","""event"",""trial"",""time""
""fullscreenexit"",""7"",""41170""
","","","829","","","23","1299","400","&#9761;","elianto","#3366ff99","-1"," ","0","0","[1680]","1","0","2",""
"pit-trial","42","497365","0.0-2.0-11.3-0.3","battery-v0.2","","""event"",""trial"",""time""
""focus"",""0"",""0""
""fullscreenenter"",""1"",""3972""
""fullscreenexit"",""7"",""41170""
""blur"",""7"",""42956""
""focus"",""7"",""45122""
""blur"",""7"",""105084""
""focus"",""7"",""106482""
""blur"",""13"",""200813""
""focus"",""13"",""204218""
""blur"",""19"",""287537""
""focus"",""19"",""289561""
""blur"",""19"",""329690""
""focus"",""19"",""331452""
","""event"",""trial"",""time""
""blur"",""7"",""42956""
""blur"",""7"",""105084""
""blur"",""13"",""200813""
""blur"",""19"",""287537""
""blur"",""19"",""329690""
","""event"",""trial"",""time""
""focus"",""0"",""0""
""focus"",""7"",""45122""
""focus"",""7"",""106482""
""focus"",""13"",""204218""
""focus"",""19"",""289561""
""focus"",""19"",""331452""
","""event"",""trial"",""time""
""fullscreenenter"",""1"",""3972""
","""event"",""trial"",""time""
""fullscreenexit"",""7"",""41170""
","","","938","","","23","1299","400","&#9761;","elianto","#3366ff99","-1"," ","0","0","[1792]","1","0","2",""
"pit-trial","43","500815","0.0-2.0-11.3-1.3","battery-v0.2","","""event"",""trial"",""time""
""focus"",""0"",""0""
""fullscreenenter"",""1"",""3972""
""fullscreenexit"",""7"",""41170""
""blur"",""7"",""42956""
""focus"",""7"",""45122""
""blur"",""7"",""105084""
""focus"",""7"",""106482""
""blur"",""13"",""200813""
""focus"",""13"",""204218""
""blur"",""19"",""287537""
""focus"",""19"",""289561""
""blur"",""19"",""329690""
""focus"",""19"",""331452""
","""event"",""trial"",""time""
""blur"",""7"",""42956""
""blur"",""7"",""105084""
""blur"",""13"",""200813""
""blur"",""19"",""287537""
""blur"",""19"",""329690""
","""event"",""trial"",""time""
""focus"",""0"",""0""
""focus"",""7"",""45122""
""focus"",""7"",""106482""
""focus"",""13"",""204218""
""focus"",""19"",""289561""
""focus"",""19"",""331452""
","""event"",""trial"",""time""
""fullscreenenter"",""1"",""3972""
","""event"",""trial"",""time""
""fullscreenexit"",""7"",""41170""
","","","582","","","23","1299","400","&#9761;","elianto","#3366ff99","-1"," ","0","0","[1432]","1","0","2",""
"pit-trial","44","504129","0.0-2.0-11.3-2.3","battery-v0.2","","""event"",""trial"",""time""
""focus"",""0"",""0""
""fullscreenenter"",""1"",""3972""
""fullscreenexit"",""7"",""41170""
""blur"",""7"",""42956""
""focus"",""7"",""45122""
""blur"",""7"",""105084""
""focus"",""7"",""106482""
""blur"",""13"",""200813""
""focus"",""13"",""204218""
""blur"",""19"",""287537""
""focus"",""19"",""289561""
""blur"",""19"",""329690""
""focus"",""19"",""331452""
","""event"",""trial"",""time""
""blur"",""7"",""42956""
""blur"",""7"",""105084""
""blur"",""13"",""200813""
""blur"",""19"",""287537""
""blur"",""19"",""329690""
","""event"",""trial"",""time""
""focus"",""0"",""0""
""focus"",""7"",""45122""
""focus"",""7"",""106482""
""focus"",""13"",""204218""
""focus"",""19"",""289561""
""focus"",""19"",""331452""
","""event"",""trial"",""time""
""fullscreenenter"",""1"",""3972""
","""event"",""trial"",""time""
""fullscreenexit"",""7"",""41170""
","","","433","","","23","1299","400","&#9761;","elianto","#3366ff99","-1"," ","0","0","[1298]","1","0","2",""
"pit-trial","45","507524","0.0-2.0-11.3-3.3","battery-v0.2","","""event"",""trial"",""time""
""focus"",""0"",""0""
""fullscreenenter"",""1"",""3972""
""fullscreenexit"",""7"",""41170""
""blur"",""7"",""42956""
""focus"",""7"",""45122""
""blur"",""7"",""105084""
""focus"",""7"",""106482""
""blur"",""13"",""200813""
""focus"",""13"",""204218""
""blur"",""19"",""287537""
""focus"",""19"",""289561""
""blur"",""19"",""329690""
""focus"",""19"",""331452""
","""event"",""trial"",""time""
""blur"",""7"",""42956""
""blur"",""7"",""105084""
""blur"",""13"",""200813""
""blur"",""19"",""287537""
""blur"",""19"",""329690""
","""event"",""trial"",""time""
""focus"",""0"",""0""
""focus"",""7"",""45122""
""focus"",""7"",""106482""
""focus"",""13"",""204218""
""focus"",""19"",""289561""
""focus"",""19"",""331452""
","""event"",""trial"",""time""
""fullscreenenter"",""1"",""3972""
","""event"",""trial"",""time""
""fullscreenexit"",""7"",""41170""
","","","535","","","23","1299","400","&#9761;","elianto","#3366ff99","-1"," ","0","+10","[1390]","1","0","2",""
"pit-trial","46","511737","0.0-2.0-11.3-4.3","battery-v0.2","","""event"",""trial"",""time""
""focus"",""0"",""0""
""fullscreenenter"",""1"",""3972""
""fullscreenexit"",""7"",""41170""
""blur"",""7"",""42956""
""focus"",""7"",""45122""
""blur"",""7"",""105084""
""focus"",""7"",""106482""
""blur"",""13"",""200813""
""focus"",""13"",""204218""
""blur"",""19"",""287537""
""focus"",""19"",""289561""
""blur"",""19"",""329690""
""focus"",""19"",""331452""
","""event"",""trial"",""time""
""blur"",""7"",""42956""
""blur"",""7"",""105084""
""blur"",""13"",""200813""
""blur"",""19"",""287537""
""blur"",""19"",""329690""
","""event"",""trial"",""time""
""focus"",""0"",""0""
""focus"",""7"",""45122""
""focus"",""7"",""106482""
""focus"",""13"",""204218""
""focus"",""19"",""289561""
""focus"",""19"",""331452""
","""event"",""trial"",""time""
""fullscreenenter"",""1"",""3972""
","""event"",""trial"",""time""
""fullscreenexit"",""7"",""41170""
","","","1345","","","23","1299","400","&#9761;","elianto","#3366ff99","-1"," ","0","0","[2197]","1","0","2",""
"pit-trial","47","515135","0.0-2.0-11.4-0.4","battery-v0.2","","""event"",""trial"",""time""
""focus"",""0"",""0""
""fullscreenenter"",""1"",""3972""
""fullscreenexit"",""7"",""41170""
""blur"",""7"",""42956""
""focus"",""7"",""45122""
""blur"",""7"",""105084""
""focus"",""7"",""106482""
""blur"",""13"",""200813""
""focus"",""13"",""204218""
""blur"",""19"",""287537""
""focus"",""19"",""289561""
""blur"",""19"",""329690""
""focus"",""19"",""331452""
","""event"",""trial"",""time""
""blur"",""7"",""42956""
""blur"",""7"",""105084""
""blur"",""13"",""200813""
""blur"",""19"",""287537""
""blur"",""19"",""329690""
","""event"",""trial"",""time""
""focus"",""0"",""0""
""focus"",""7"",""45122""
""focus"",""7"",""106482""
""focus"",""13"",""204218""
""focus"",""19"",""289561""
""focus"",""19"",""331452""
","""event"",""trial"",""time""
""fullscreenenter"",""1"",""3972""
","""event"",""trial"",""time""
""fullscreenexit"",""7"",""41170""
","","","532","","","23","1299","400","&#9761;","elianto","#3366ff99","-1"," ","0","0","[1383]","1","0","2",""
"pit-trial","48","520002","0.0-2.0-11.4-1.4","battery-v0.2","","""event"",""trial"",""time""
""focus"",""0"",""0""
""fullscreenenter"",""1"",""3972""
""fullscreenexit"",""7"",""41170""
""blur"",""7"",""42956""
""focus"",""7"",""45122""
""blur"",""7"",""105084""
""focus"",""7"",""106482""
""blur"",""13"",""200813""
""focus"",""13"",""204218""
""blur"",""19"",""287537""
""focus"",""19"",""289561""
""blur"",""19"",""329690""
""focus"",""19"",""331452""
","""event"",""trial"",""time""
""blur"",""7"",""42956""
""blur"",""7"",""105084""
""blur"",""13"",""200813""
""blur"",""19"",""287537""
""blur"",""19"",""329690""
","""event"",""trial"",""time""
""focus"",""0"",""0""
""focus"",""7"",""45122""
""focus"",""7"",""106482""
""focus"",""13"",""204218""
""focus"",""19"",""289561""
""focus"",""19"",""331452""
","""event"",""trial"",""time""
""fullscreenenter"",""1"",""3972""
","""event"",""trial"",""time""
""fullscreenexit"",""7"",""41170""
","","","-1","","","23","1299","400","&#9761;","elianto","#3366ff99","-1","-1","1","+10","[]","0","0","2",""
"pit-trial","49","524865","0.0-2.0-11.4-2.4","battery-v0.2","","""event"",""trial"",""time""
""focus"",""0"",""0""
""fullscreenenter"",""1"",""3972""
""fullscreenexit"",""7"",""41170""
""blur"",""7"",""42956""
""focus"",""7"",""45122""
""blur"",""7"",""105084""
""focus"",""7"",""106482""
""blur"",""13"",""200813""
""focus"",""13"",""204218""
""blur"",""19"",""287537""
""focus"",""19"",""289561""
""blur"",""19"",""329690""
""focus"",""19"",""331452""
","""event"",""trial"",""time""
""blur"",""7"",""42956""
""blur"",""7"",""105084""
""blur"",""13"",""200813""
""blur"",""19"",""287537""
""blur"",""19"",""329690""
","""event"",""trial"",""time""
""focus"",""0"",""0""
""focus"",""7"",""45122""
""focus"",""7"",""106482""
""focus"",""13"",""204218""
""focus"",""19"",""289561""
""focus"",""19"",""331452""
","""event"",""trial"",""time""
""fullscreenenter"",""1"",""3972""
","""event"",""trial"",""time""
""fullscreenexit"",""7"",""41170""
","","","-1","","","23","1299","400","&#9761;","elianto","#3366ff99","-1","-1","1","+10","[]","0","0","2",""
"pit-trial","50","528455","0.0-2.0-11.4-3.4","battery-v0.2","","""event"",""trial"",""time""
""focus"",""0"",""0""
""fullscreenenter"",""1"",""3972""
""fullscreenexit"",""7"",""41170""
""blur"",""7"",""42956""
""focus"",""7"",""45122""
""blur"",""7"",""105084""
""focus"",""7"",""106482""
""blur"",""13"",""200813""
""focus"",""13"",""204218""
""blur"",""19"",""287537""
""focus"",""19"",""289561""
""blur"",""19"",""329690""
""focus"",""19"",""331452""
","""event"",""trial"",""time""
""blur"",""7"",""42956""
""blur"",""7"",""105084""
""blur"",""13"",""200813""
""blur"",""19"",""287537""
""blur"",""19"",""329690""
","""event"",""trial"",""time""
""focus"",""0"",""0""
""focus"",""7"",""45122""
""focus"",""7"",""106482""
""focus"",""13"",""204218""
""focus"",""19"",""289561""
""focus"",""19"",""331452""
","""event"",""trial"",""time""
""fullscreenenter"",""1"",""3972""
","""event"",""trial"",""time""
""fullscreenexit"",""7"",""41170""
","","","716","","","23","1299","400","&#9761;","elianto","#3366ff99","-1"," ","0","+10","[1580]","1","0","2",""
"pit-trial","51","531957","0.0-2.0-11.4-4.4","battery-v0.2","","""event"",""trial"",""time""
""focus"",""0"",""0""
""fullscreenenter"",""1"",""3972""
""fullscreenexit"",""7"",""41170""
""blur"",""7"",""42956""
""focus"",""7"",""45122""
""blur"",""7"",""105084""
""focus"",""7"",""106482""
""blur"",""13"",""200813""
""focus"",""13"",""204218""
""blur"",""19"",""287537""
""focus"",""19"",""289561""
""blur"",""19"",""329690""
""focus"",""19"",""331452""
""blur"",""52"",""547287""
""focus"",""52"",""549152""
","""event"",""trial"",""time""
""blur"",""7"",""42956""
""blur"",""7"",""105084""
""blur"",""13"",""200813""
""blur"",""19"",""287537""
""blur"",""19"",""329690""
""blur"",""52"",""547287""
","""event"",""trial"",""time""
""focus"",""0"",""0""
""focus"",""7"",""45122""
""focus"",""7"",""106482""
""focus"",""13"",""204218""
""focus"",""19"",""289561""
""focus"",""19"",""331452""
""focus"",""52"",""549152""
","""event"",""trial"",""time""
""fullscreenenter"",""1"",""3972""
","""event"",""trial"",""time""
""fullscreenexit"",""7"",""41170""
","","","647","","","23","1299","400","&#9761;","elianto","#3366ff99","-1"," ","0","0","[1497]","1","0","2",""
"pit-instructions","52","558828","0.0-2.0-11.4-5.4-0.4","battery-v0.2","","""event"",""trial"",""time""
""focus"",""0"",""0""
""fullscreenenter"",""1"",""3972""
""fullscreenexit"",""7"",""41170""
""blur"",""7"",""42956""
""focus"",""7"",""45122""
""blur"",""7"",""105084""
""focus"",""7"",""106482""
""blur"",""13"",""200813""
""focus"",""13"",""204218""
""blur"",""19"",""287537""
""focus"",""19"",""289561""
""blur"",""19"",""329690""
""focus"",""19"",""331452""
""blur"",""52"",""547287""
""focus"",""52"",""549152""
","""event"",""trial"",""time""
""blur"",""7"",""42956""
""blur"",""7"",""105084""
""blur"",""13"",""200813""
""blur"",""19"",""287537""
""blur"",""19"",""329690""
""blur"",""52"",""547287""
","""event"",""trial"",""time""
""focus"",""0"",""0""
""focus"",""7"",""45122""
""focus"",""7"",""106482""
""focus"",""13"",""204218""
""focus"",""19"",""289561""
""focus"",""19"",""331452""
""focus"",""52"",""549152""
","""event"",""trial"",""time""
""fullscreenenter"",""1"",""3972""
","""event"",""trial"",""time""
""fullscreenexit"",""7"",""41170""
","","[{""page_index"":0,""viewing_time"":12397},{""page_index"":1,""viewing_time"":6280},{""page_index"":2,""viewing_time"":8192}]","26869","","","","","","","","","","","","","","","","",""
"pit-trial","53","563688","0.0-2.0-11.5-0.5","battery-v0.2","","""event"",""trial"",""time""
""focus"",""0"",""0""
""fullscreenenter"",""1"",""3972""
""fullscreenexit"",""7"",""41170""
""blur"",""7"",""42956""
""focus"",""7"",""45122""
""blur"",""7"",""105084""
""focus"",""7"",""106482""
""blur"",""13"",""200813""
""focus"",""13"",""204218""
""blur"",""19"",""287537""
""focus"",""19"",""289561""
""blur"",""19"",""329690""
""focus"",""19"",""331452""
""blur"",""52"",""547287""
""focus"",""52"",""549152""
","""event"",""trial"",""time""
""blur"",""7"",""42956""
""blur"",""7"",""105084""
""blur"",""13"",""200813""
""blur"",""19"",""287537""
""blur"",""19"",""329690""
""blur"",""52"",""547287""
","""event"",""trial"",""time""
""focus"",""0"",""0""
""focus"",""7"",""45122""
""focus"",""7"",""106482""
""focus"",""13"",""204218""
""focus"",""19"",""289561""
""focus"",""19"",""331452""
""focus"",""52"",""549152""
","""event"",""trial"",""time""
""fullscreenenter"",""1"",""3972""
","""event"",""trial"",""time""
""fullscreenexit"",""7"",""41170""
","","","-1","","","23","1299","400","&#9761;","elianto","#3366ff99","-1","-1","1","+10","[]","0","0","2",""
"pit-trial","54","567001","0.0-2.0-11.5-1.5","battery-v0.2","","""event"",""trial"",""time""
""focus"",""0"",""0""
""fullscreenenter"",""1"",""3972""
""fullscreenexit"",""7"",""41170""
""blur"",""7"",""42956""
""focus"",""7"",""45122""
""blur"",""7"",""105084""
""focus"",""7"",""106482""
""blur"",""13"",""200813""
""focus"",""13"",""204218""
""blur"",""19"",""287537""
""focus"",""19"",""289561""
""blur"",""19"",""329690""
""focus"",""19"",""331452""
""blur"",""52"",""547287""
""focus"",""52"",""549152""
","""event"",""trial"",""time""
""blur"",""7"",""42956""
""blur"",""7"",""105084""
""blur"",""13"",""200813""
""blur"",""19"",""287537""
""blur"",""19"",""329690""
""blur"",""52"",""547287""
","""event"",""trial"",""time""
""focus"",""0"",""0""
""focus"",""7"",""45122""
""focus"",""7"",""106482""
""focus"",""13"",""204218""
""focus"",""19"",""289561""
""focus"",""19"",""331452""
""focus"",""52"",""549152""
","""event"",""trial"",""time""
""fullscreenenter"",""1"",""3972""
","""event"",""trial"",""time""
""fullscreenexit"",""7"",""41170""
","","","456","","","23","1299","400","&#9761;","elianto","#3366ff99","-1"," ","0","0","[1307]","1","0","2",""
"pit-trial","55","570496","0.0-2.0-11.5-2.5","battery-v0.2","","""event"",""trial"",""time""
""focus"",""0"",""0""
""fullscreenenter"",""1"",""3972""
""fullscreenexit"",""7"",""41170""
""blur"",""7"",""42956""
""focus"",""7"",""45122""
""blur"",""7"",""105084""
""focus"",""7"",""106482""
""blur"",""13"",""200813""
""focus"",""13"",""204218""
""blur"",""19"",""287537""
""focus"",""19"",""289561""
""blur"",""19"",""329690""
""focus"",""19"",""331452""
""blur"",""52"",""547287""
""focus"",""52"",""549152""
","""event"",""trial"",""time""
""blur"",""7"",""42956""
""blur"",""7"",""105084""
""blur"",""13"",""200813""
""blur"",""19"",""287537""
""blur"",""19"",""329690""
""blur"",""52"",""547287""
","""event"",""trial"",""time""
""focus"",""0"",""0""
""focus"",""7"",""45122""
""focus"",""7"",""106482""
""focus"",""13"",""204218""
""focus"",""19"",""289561""
""focus"",""19"",""331452""
""focus"",""52"",""549152""
","""event"",""trial"",""time""
""fullscreenenter"",""1"",""3972""
","""event"",""trial"",""time""
""fullscreenexit"",""7"",""41170""
","","","628","","","23","1299","400","&#9761;","elianto","#3366ff99","-1"," ","0","0","[1479]","1","0","2",""
"pit-trial","56","575372","0.0-2.0-11.5-3.5","battery-v0.2","","""event"",""trial"",""time""
""focus"",""0"",""0""
""fullscreenenter"",""1"",""3972""
""fullscreenexit"",""7"",""41170""
""blur"",""7"",""42956""
""focus"",""7"",""45122""
""blur"",""7"",""105084""
""focus"",""7"",""106482""
""blur"",""13"",""200813""
""focus"",""13"",""204218""
""blur"",""19"",""287537""
""focus"",""19"",""289561""
""blur"",""19"",""329690""
""focus"",""19"",""331452""
""blur"",""52"",""547287""
""focus"",""52"",""549152""
","""event"",""trial"",""time""
""blur"",""7"",""42956""
""blur"",""7"",""105084""
""blur"",""13"",""200813""
""blur"",""19"",""287537""
""blur"",""19"",""329690""
""blur"",""52"",""547287""
","""event"",""trial"",""time""
""focus"",""0"",""0""
""focus"",""7"",""45122""
""focus"",""7"",""106482""
""focus"",""13"",""204218""
""focus"",""19"",""289561""
""focus"",""19"",""331452""
""focus"",""52"",""549152""
","""event"",""trial"",""time""
""fullscreenenter"",""1"",""3972""
","""event"",""trial"",""time""
""fullscreenexit"",""7"",""41170""
","","","-1","","","23","1299","400","&#9761;","elianto","#3366ff99","-1","-1","1","0","[]","0","0","2",""
"pit-trial","57","578746","0.0-2.0-11.5-4.5","battery-v0.2","","""event"",""trial"",""time""
""focus"",""0"",""0""
""fullscreenenter"",""1"",""3972""
""fullscreenexit"",""7"",""41170""
""blur"",""7"",""42956""
""focus"",""7"",""45122""
""blur"",""7"",""105084""
""focus"",""7"",""106482""
""blur"",""13"",""200813""
""focus"",""13"",""204218""
""blur"",""19"",""287537""
""focus"",""19"",""289561""
""blur"",""19"",""329690""
""focus"",""19"",""331452""
""blur"",""52"",""547287""
""focus"",""52"",""549152""
","""event"",""trial"",""time""
""blur"",""7"",""42956""
""blur"",""7"",""105084""
""blur"",""13"",""200813""
""blur"",""19"",""287537""
""blur"",""19"",""329690""
""blur"",""52"",""547287""
","""event"",""trial"",""time""
""focus"",""0"",""0""
""focus"",""7"",""45122""
""focus"",""7"",""106482""
""focus"",""13"",""204218""
""focus"",""19"",""289561""
""focus"",""19"",""331452""
""focus"",""52"",""549152""
","""event"",""trial"",""time""
""fullscreenenter"",""1"",""3972""
","""event"",""trial"",""time""
""fullscreenexit"",""7"",""41170""
","","","511","","","23","1299","400","&#9761;","elianto","#3366ff99","-1"," ","0","0","[1366]","1","0","2",""
"pit-trial","58","583620","0.0-2.0-11.6-0.6","battery-v0.2","","""event"",""trial"",""time""
""focus"",""0"",""0""
""fullscreenenter"",""1"",""3972""
""fullscreenexit"",""7"",""41170""
""blur"",""7"",""42956""
""focus"",""7"",""45122""
""blur"",""7"",""105084""
""focus"",""7"",""106482""
""blur"",""13"",""200813""
""focus"",""13"",""204218""
""blur"",""19"",""287537""
""focus"",""19"",""289561""
""blur"",""19"",""329690""
""focus"",""19"",""331452""
""blur"",""52"",""547287""
""focus"",""52"",""549152""
","""event"",""trial"",""time""
""blur"",""7"",""42956""
""blur"",""7"",""105084""
""blur"",""13"",""200813""
""blur"",""19"",""287537""
""blur"",""19"",""329690""
""blur"",""52"",""547287""
","""event"",""trial"",""time""
""focus"",""0"",""0""
""focus"",""7"",""45122""
""focus"",""7"",""106482""
""focus"",""13"",""204218""
""focus"",""19"",""289561""
""focus"",""19"",""331452""
""focus"",""52"",""549152""
","""event"",""trial"",""time""
""fullscreenenter"",""1"",""3972""
","""event"",""trial"",""time""
""fullscreenexit"",""7"",""41170""
","","","-1","","","23","1299","400","&#9761;","elianto","#3366ff99","-1","-1","1","+10","[]","0","0","2",""
"pit-trial","59","586729","0.0-2.0-11.6-1.6","battery-v0.2","","""event"",""trial"",""time""
""focus"",""0"",""0""
""fullscreenenter"",""1"",""3972""
""fullscreenexit"",""7"",""41170""
""blur"",""7"",""42956""
""focus"",""7"",""45122""
""blur"",""7"",""105084""
""focus"",""7"",""106482""
""blur"",""13"",""200813""
""focus"",""13"",""204218""
""blur"",""19"",""287537""
""focus"",""19"",""289561""
""blur"",""19"",""329690""
""focus"",""19"",""331452""
""blur"",""52"",""547287""
""focus"",""52"",""549152""
","""event"",""trial"",""time""
""blur"",""7"",""42956""
""blur"",""7"",""105084""
""blur"",""13"",""200813""
""blur"",""19"",""287537""
""blur"",""19"",""329690""
""blur"",""52"",""547287""
","""event"",""trial"",""time""
""focus"",""0"",""0""
""focus"",""7"",""45122""
""focus"",""7"",""106482""
""focus"",""13"",""204218""
""focus"",""19"",""289561""
""focus"",""19"",""331452""
""focus"",""52"",""549152""
","""event"",""trial"",""time""
""fullscreenenter"",""1"",""3972""
","""event"",""trial"",""time""
""fullscreenexit"",""7"",""41170""
","","","242","","","23","1299","400","&#9761;","elianto","#3366ff99","-1"," ","0","0","[1092]","1","0","2",""
"pit-trial","60","590916","0.0-2.0-11.6-2.6","battery-v0.2","","""event"",""trial"",""time""
""focus"",""0"",""0""
""fullscreenenter"",""1"",""3972""
""fullscreenexit"",""7"",""41170""
""blur"",""7"",""42956""
""focus"",""7"",""45122""
""blur"",""7"",""105084""
""focus"",""7"",""106482""
""blur"",""13"",""200813""
""focus"",""13"",""204218""
""blur"",""19"",""287537""
""focus"",""19"",""289561""
""blur"",""19"",""329690""
""focus"",""19"",""331452""
""blur"",""52"",""547287""
""focus"",""52"",""549152""
","""event"",""trial"",""time""
""blur"",""7"",""42956""
""blur"",""7"",""105084""
""blur"",""13"",""200813""
""blur"",""19"",""287537""
""blur"",""19"",""329690""
""blur"",""52"",""547287""
","""event"",""trial"",""time""
""focus"",""0"",""0""
""focus"",""7"",""45122""
""focus"",""7"",""106482""
""focus"",""13"",""204218""
""focus"",""19"",""289561""
""focus"",""19"",""331452""
""focus"",""52"",""549152""
","""event"",""trial"",""time""
""fullscreenenter"",""1"",""3972""
","""event"",""trial"",""time""
""fullscreenexit"",""7"",""41170""
","","","1319","","","23","1299","400","&#9761;","elianto","#3366ff99","-1"," ","0","0","[2170]","1","0","2",""
"pit-trial","61","595780","0.0-2.0-11.6-3.6","battery-v0.2","","""event"",""trial"",""time""
""focus"",""0"",""0""
""fullscreenenter"",""1"",""3972""
""fullscreenexit"",""7"",""41170""
""blur"",""7"",""42956""
""focus"",""7"",""45122""
""blur"",""7"",""105084""
""focus"",""7"",""106482""
""blur"",""13"",""200813""
""focus"",""13"",""204218""
""blur"",""19"",""287537""
""focus"",""19"",""289561""
""blur"",""19"",""329690""
""focus"",""19"",""331452""
""blur"",""52"",""547287""
""focus"",""52"",""549152""
","""event"",""trial"",""time""
""blur"",""7"",""42956""
""blur"",""7"",""105084""
""blur"",""13"",""200813""
""blur"",""19"",""287537""
""blur"",""19"",""329690""
""blur"",""52"",""547287""
","""event"",""trial"",""time""
""focus"",""0"",""0""
""focus"",""7"",""45122""
""focus"",""7"",""106482""
""focus"",""13"",""204218""
""focus"",""19"",""289561""
""focus"",""19"",""331452""
""focus"",""52"",""549152""
","""event"",""trial"",""time""
""fullscreenenter"",""1"",""3972""
","""event"",""trial"",""time""
""fullscreenexit"",""7"",""41170""
","","","-1","","","23","1299","400","&#9761;","elianto","#3366ff99","-1","-1","1","0","[]","0","0","2",""
"pit-trial","62","600644","0.0-2.0-11.6-4.6","battery-v0.2","","""event"",""trial"",""time""
""focus"",""0"",""0""
""fullscreenenter"",""1"",""3972""
""fullscreenexit"",""7"",""41170""
""blur"",""7"",""42956""
""focus"",""7"",""45122""
""blur"",""7"",""105084""
""focus"",""7"",""106482""
""blur"",""13"",""200813""
""focus"",""13"",""204218""
""blur"",""19"",""287537""
""focus"",""19"",""289561""
""blur"",""19"",""329690""
""focus"",""19"",""331452""
""blur"",""52"",""547287""
""focus"",""52"",""549152""
","""event"",""trial"",""time""
""blur"",""7"",""42956""
""blur"",""7"",""105084""
""blur"",""13"",""200813""
""blur"",""19"",""287537""
""blur"",""19"",""329690""
""blur"",""52"",""547287""
","""event"",""trial"",""time""
""focus"",""0"",""0""
""focus"",""7"",""45122""
""focus"",""7"",""106482""
""focus"",""13"",""204218""
""focus"",""19"",""289561""
""focus"",""19"",""331452""
""focus"",""52"",""549152""
","""event"",""trial"",""time""
""fullscreenenter"",""1"",""3972""
","""event"",""trial"",""time""
""fullscreenexit"",""7"",""41170""
","","","-1","","","23","1299","400","&#9761;","elianto","#3366ff99","-1","-1","1","+10","[]","0","0","2",""
"pit-trial","63","603932","0.0-2.0-11.7-0.7","battery-v0.2","","""event"",""trial"",""time""
""focus"",""0"",""0""
""fullscreenenter"",""1"",""3972""
""fullscreenexit"",""7"",""41170""
""blur"",""7"",""42956""
""focus"",""7"",""45122""
""blur"",""7"",""105084""
""focus"",""7"",""106482""
""blur"",""13"",""200813""
""focus"",""13"",""204218""
""blur"",""19"",""287537""
""focus"",""19"",""289561""
""blur"",""19"",""329690""
""focus"",""19"",""331452""
""blur"",""52"",""547287""
""focus"",""52"",""549152""
","""event"",""trial"",""time""
""blur"",""7"",""42956""
""blur"",""7"",""105084""
""blur"",""13"",""200813""
""blur"",""19"",""287537""
""blur"",""19"",""329690""
""blur"",""52"",""547287""
","""event"",""trial"",""time""
""focus"",""0"",""0""
""focus"",""7"",""45122""
""focus"",""7"",""106482""
""focus"",""13"",""204218""
""focus"",""19"",""289561""
""focus"",""19"",""331452""
""focus"",""52"",""549152""
","""event"",""trial"",""time""
""fullscreenenter"",""1"",""3972""
","""event"",""trial"",""time""
""fullscreenexit"",""7"",""41170""
","","","418","","","23","1299","400","&#9761;","elianto","#3366ff99","-1"," ","0","0","[1281]","1","0","2",""
"pit-trial","64","607596","0.0-2.0-11.7-1.7","battery-v0.2","","""event"",""trial"",""time""
""focus"",""0"",""0""
""fullscreenenter"",""1"",""3972""
""fullscreenexit"",""7"",""41170""
""blur"",""7"",""42956""
""focus"",""7"",""45122""
""blur"",""7"",""105084""
""focus"",""7"",""106482""
""blur"",""13"",""200813""
""focus"",""13"",""204218""
""blur"",""19"",""287537""
""focus"",""19"",""289561""
""blur"",""19"",""329690""
""focus"",""19"",""331452""
""blur"",""52"",""547287""
""focus"",""52"",""549152""
","""event"",""trial"",""time""
""blur"",""7"",""42956""
""blur"",""7"",""105084""
""blur"",""13"",""200813""
""blur"",""19"",""287537""
""blur"",""19"",""329690""
""blur"",""52"",""547287""
","""event"",""trial"",""time""
""focus"",""0"",""0""
""focus"",""7"",""45122""
""focus"",""7"",""106482""
""focus"",""13"",""204218""
""focus"",""19"",""289561""
""focus"",""19"",""331452""
""focus"",""52"",""549152""
","""event"",""trial"",""time""
""fullscreenenter"",""1"",""3972""
","""event"",""trial"",""time""
""fullscreenexit"",""7"",""41170""
","","","809","","","23","1299","400","&#9761;","elianto","#3366ff99","-1"," ","0","0","[1660]","1","0","2",""
"pit-trial","65","611403","0.0-2.0-11.7-2.7","battery-v0.2","","""event"",""trial"",""time""
""focus"",""0"",""0""
""fullscreenenter"",""1"",""3972""
""fullscreenexit"",""7"",""41170""
""blur"",""7"",""42956""
""focus"",""7"",""45122""
""blur"",""7"",""105084""
""focus"",""7"",""106482""
""blur"",""13"",""200813""
""focus"",""13"",""204218""
""blur"",""19"",""287537""
""focus"",""19"",""289561""
""blur"",""19"",""329690""
""focus"",""19"",""331452""
""blur"",""52"",""547287""
""focus"",""52"",""549152""
","""event"",""trial"",""time""
""blur"",""7"",""42956""
""blur"",""7"",""105084""
""blur"",""13"",""200813""
""blur"",""19"",""287537""
""blur"",""19"",""329690""
""blur"",""52"",""547287""
","""event"",""trial"",""time""
""focus"",""0"",""0""
""focus"",""7"",""45122""
""focus"",""7"",""106482""
""focus"",""13"",""204218""
""focus"",""19"",""289561""
""focus"",""19"",""331452""
""focus"",""52"",""549152""
","""event"",""trial"",""time""
""fullscreenenter"",""1"",""3972""
","""event"",""trial"",""time""
""fullscreenexit"",""7"",""41170""
","","","947","","","23","1299","400","&#9761;","elianto","#3366ff99","-1"," ","0","0","[1798]","1","0","2",""
"pit-trial","66","616274","0.0-2.0-11.7-3.7","battery-v0.2","","""event"",""trial"",""time""
""focus"",""0"",""0""
""fullscreenenter"",""1"",""3972""
""fullscreenexit"",""7"",""41170""
""blur"",""7"",""42956""
""focus"",""7"",""45122""
""blur"",""7"",""105084""
""focus"",""7"",""106482""
""blur"",""13"",""200813""
""focus"",""13"",""204218""
""blur"",""19"",""287537""
""focus"",""19"",""289561""
""blur"",""19"",""329690""
""focus"",""19"",""331452""
""blur"",""52"",""547287""
""focus"",""52"",""549152""
","""event"",""trial"",""time""
""blur"",""7"",""42956""
""blur"",""7"",""105084""
""blur"",""13"",""200813""
""blur"",""19"",""287537""
""blur"",""19"",""329690""
""blur"",""52"",""547287""
","""event"",""trial"",""time""
""focus"",""0"",""0""
""focus"",""7"",""45122""
""focus"",""7"",""106482""
""focus"",""13"",""204218""
""focus"",""19"",""289561""
""focus"",""19"",""331452""
""focus"",""52"",""549152""
","""event"",""trial"",""time""
""fullscreenenter"",""1"",""3972""
","""event"",""trial"",""time""
""fullscreenexit"",""7"",""41170""
","","","-1","","","23","1299","400","&#9761;","elianto","#3366ff99","-1","-1","1","0","[]","0","0","2",""
"pit-trial","67","619634","0.0-2.0-11.7-4.7","battery-v0.2","","""event"",""trial"",""time""
""focus"",""0"",""0""
""fullscreenenter"",""1"",""3972""
""fullscreenexit"",""7"",""41170""
""blur"",""7"",""42956""
""focus"",""7"",""45122""
""blur"",""7"",""105084""
""focus"",""7"",""106482""
""blur"",""13"",""200813""
""focus"",""13"",""204218""
""blur"",""19"",""287537""
""focus"",""19"",""289561""
""blur"",""19"",""329690""
""focus"",""19"",""331452""
""blur"",""52"",""547287""
""focus"",""52"",""549152""
","""event"",""trial"",""time""
""blur"",""7"",""42956""
""blur"",""7"",""105084""
""blur"",""13"",""200813""
""blur"",""19"",""287537""
""blur"",""19"",""329690""
""blur"",""52"",""547287""
","""event"",""trial"",""time""
""focus"",""0"",""0""
""focus"",""7"",""45122""
""focus"",""7"",""106482""
""focus"",""13"",""204218""
""focus"",""19"",""289561""
""focus"",""19"",""331452""
""focus"",""52"",""549152""
","""event"",""trial"",""time""
""fullscreenenter"",""1"",""3972""
","""event"",""trial"",""time""
""fullscreenexit"",""7"",""41170""
","","","492","","","23","1299","400","&#9761;","elianto","#3366ff99","-1"," ","0","0","[1346]","1","0","2",""
"pit-trial","68","624510","0.0-2.0-11.8-0.8","battery-v0.2","","""event"",""trial"",""time""
""focus"",""0"",""0""
""fullscreenenter"",""1"",""3972""
""fullscreenexit"",""7"",""41170""
""blur"",""7"",""42956""
""focus"",""7"",""45122""
""blur"",""7"",""105084""
""focus"",""7"",""106482""
""blur"",""13"",""200813""
""focus"",""13"",""204218""
""blur"",""19"",""287537""
""focus"",""19"",""289561""
""blur"",""19"",""329690""
""focus"",""19"",""331452""
""blur"",""52"",""547287""
""focus"",""52"",""549152""
","""event"",""trial"",""time""
""blur"",""7"",""42956""
""blur"",""7"",""105084""
""blur"",""13"",""200813""
""blur"",""19"",""287537""
""blur"",""19"",""329690""
""blur"",""52"",""547287""
","""event"",""trial"",""time""
""focus"",""0"",""0""
""focus"",""7"",""45122""
""focus"",""7"",""106482""
""focus"",""13"",""204218""
""focus"",""19"",""289561""
""focus"",""19"",""331452""
""focus"",""52"",""549152""
","""event"",""trial"",""time""
""fullscreenenter"",""1"",""3972""
","""event"",""trial"",""time""
""fullscreenexit"",""7"",""41170""
","","","-1","","","23","1299","400","&#9761;","elianto","#3366ff99","-1","-1","1","+10","[]","0","0","2",""
"pit-trial","69","628546","0.0-2.0-11.8-1.8","battery-v0.2","","""event"",""trial"",""time""
""focus"",""0"",""0""
""fullscreenenter"",""1"",""3972""
""fullscreenexit"",""7"",""41170""
""blur"",""7"",""42956""
""focus"",""7"",""45122""
""blur"",""7"",""105084""
""focus"",""7"",""106482""
""blur"",""13"",""200813""
""focus"",""13"",""204218""
""blur"",""19"",""287537""
""focus"",""19"",""289561""
""blur"",""19"",""329690""
""focus"",""19"",""331452""
""blur"",""52"",""547287""
""focus"",""52"",""549152""
","""event"",""trial"",""time""
""blur"",""7"",""42956""
""blur"",""7"",""105084""
""blur"",""13"",""200813""
""blur"",""19"",""287537""
""blur"",""19"",""329690""
""blur"",""52"",""547287""
","""event"",""trial"",""time""
""focus"",""0"",""0""
""focus"",""7"",""45122""
""focus"",""7"",""106482""
""focus"",""13"",""204218""
""focus"",""19"",""289561""
""focus"",""19"",""331452""
""focus"",""52"",""549152""
","""event"",""trial"",""time""
""fullscreenenter"",""1"",""3972""
","""event"",""trial"",""time""
""fullscreenexit"",""7"",""41170""
","","","1172","","","23","1299","400","&#9761;","elianto","#3366ff99","-1"," ","0","0","[2030]","1","0","2",""
"pit-trial","70","631818","0.0-2.0-11.8-2.8","battery-v0.2","","""event"",""trial"",""time""
""focus"",""0"",""0""
""fullscreenenter"",""1"",""3972""
""fullscreenexit"",""7"",""41170""
""blur"",""7"",""42956""
""focus"",""7"",""45122""
""blur"",""7"",""105084""
""focus"",""7"",""106482""
""blur"",""13"",""200813""
""focus"",""13"",""204218""
""blur"",""19"",""287537""
""focus"",""19"",""289561""
""blur"",""19"",""329690""
""focus"",""19"",""331452""
""blur"",""52"",""547287""
""focus"",""52"",""549152""
","""event"",""trial"",""time""
""blur"",""7"",""42956""
""blur"",""7"",""105084""
""blur"",""13"",""200813""
""blur"",""19"",""287537""
""blur"",""19"",""329690""
""blur"",""52"",""547287""
","""event"",""trial"",""time""
""focus"",""0"",""0""
""focus"",""7"",""45122""
""focus"",""7"",""106482""
""focus"",""13"",""204218""
""focus"",""19"",""289561""
""focus"",""19"",""331452""
""focus"",""52"",""549152""
","""event"",""trial"",""time""
""fullscreenenter"",""1"",""3972""
","""event"",""trial"",""time""
""fullscreenexit"",""7"",""41170""
","","","395","","","23","1299","400","&#9761;","elianto","#3366ff99","-1"," ","0","0","[1258]","1","0","2",""
"pit-trial","71","635165","0.0-2.0-11.8-3.8","battery-v0.2","","""event"",""trial"",""time""
""focus"",""0"",""0""
""fullscreenenter"",""1"",""3972""
""fullscreenexit"",""7"",""41170""
""blur"",""7"",""42956""
""focus"",""7"",""45122""
""blur"",""7"",""105084""
""focus"",""7"",""106482""
""blur"",""13"",""200813""
""focus"",""13"",""204218""
""blur"",""19"",""287537""
""focus"",""19"",""289561""
""blur"",""19"",""329690""
""focus"",""19"",""331452""
""blur"",""52"",""547287""
""focus"",""52"",""549152""
","""event"",""trial"",""time""
""blur"",""7"",""42956""
""blur"",""7"",""105084""
""blur"",""13"",""200813""
""blur"",""19"",""287537""
""blur"",""19"",""329690""
""blur"",""52"",""547287""
","""event"",""trial"",""time""
""focus"",""0"",""0""
""focus"",""7"",""45122""
""focus"",""7"",""106482""
""focus"",""13"",""204218""
""focus"",""19"",""289561""
""focus"",""19"",""331452""
""focus"",""52"",""549152""
","""event"",""trial"",""time""
""fullscreenenter"",""1"",""3972""
","""event"",""trial"",""time""
""fullscreenexit"",""7"",""41170""
","","","479","","","23","1299","400","&#9761;","elianto","#3366ff99","-1"," ","0","+10","[1330]","1","0","2",""
"pit-trial","72","638458","0.0-2.0-11.8-4.8","battery-v0.2","","""event"",""trial"",""time""
""focus"",""0"",""0""
""fullscreenenter"",""1"",""3972""
""fullscreenexit"",""7"",""41170""
""blur"",""7"",""42956""
""focus"",""7"",""45122""
""blur"",""7"",""105084""
""focus"",""7"",""106482""
""blur"",""13"",""200813""
""focus"",""13"",""204218""
""blur"",""19"",""287537""
""focus"",""19"",""289561""
""blur"",""19"",""329690""
""focus"",""19"",""331452""
""blur"",""52"",""547287""
""focus"",""52"",""549152""
","""event"",""trial"",""time""
""blur"",""7"",""42956""
""blur"",""7"",""105084""
""blur"",""13"",""200813""
""blur"",""19"",""287537""
""blur"",""19"",""329690""
""blur"",""52"",""547287""
","""event"",""trial"",""time""
""focus"",""0"",""0""
""focus"",""7"",""45122""
""focus"",""7"",""106482""
""focus"",""13"",""204218""
""focus"",""19"",""289561""
""focus"",""19"",""331452""
""focus"",""52"",""549152""
","""event"",""trial"",""time""
""fullscreenenter"",""1"",""3972""
","""event"",""trial"",""time""
""fullscreenexit"",""7"",""41170""
","","","440","","","23","1299","400","&#9761;","elianto","#3366ff99","-1"," ","0","0","[1290]","1","0","2",""
"pit-trial","73","641690","0.0-2.0-11.9-0.9","battery-v0.2","","""event"",""trial"",""time""
""focus"",""0"",""0""
""fullscreenenter"",""1"",""3972""
""fullscreenexit"",""7"",""41170""
""blur"",""7"",""42956""
""focus"",""7"",""45122""
""blur"",""7"",""105084""
""focus"",""7"",""106482""
""blur"",""13"",""200813""
""focus"",""13"",""204218""
""blur"",""19"",""287537""
""focus"",""19"",""289561""
""blur"",""19"",""329690""
""focus"",""19"",""331452""
""blur"",""52"",""547287""
""focus"",""52"",""549152""
","""event"",""trial"",""time""
""blur"",""7"",""42956""
""blur"",""7"",""105084""
""blur"",""13"",""200813""
""blur"",""19"",""287537""
""blur"",""19"",""329690""
""blur"",""52"",""547287""
","""event"",""trial"",""time""
""focus"",""0"",""0""
""focus"",""7"",""45122""
""focus"",""7"",""106482""
""focus"",""13"",""204218""
""focus"",""19"",""289561""
""focus"",""19"",""331452""
""focus"",""52"",""549152""
","""event"",""trial"",""time""
""fullscreenenter"",""1"",""3972""
","""event"",""trial"",""time""
""fullscreenexit"",""7"",""41170""
","","","367","","","23","1299","400","&#9761;","elianto","#3366ff99","-1"," ","0","0","[1225]","1","0","2",""
"pit-trial","74","645319","0.0-2.0-11.9-1.9","battery-v0.2","","""event"",""trial"",""time""
""focus"",""0"",""0""
""fullscreenenter"",""1"",""3972""
""fullscreenexit"",""7"",""41170""
""blur"",""7"",""42956""
""focus"",""7"",""45122""
""blur"",""7"",""105084""
""focus"",""7"",""106482""
""blur"",""13"",""200813""
""focus"",""13"",""204218""
""blur"",""19"",""287537""
""focus"",""19"",""289561""
""blur"",""19"",""329690""
""focus"",""19"",""331452""
""blur"",""52"",""547287""
""focus"",""52"",""549152""
","""event"",""trial"",""time""
""blur"",""7"",""42956""
""blur"",""7"",""105084""
""blur"",""13"",""200813""
""blur"",""19"",""287537""
""blur"",""19"",""329690""
""blur"",""52"",""547287""
","""event"",""trial"",""time""
""focus"",""0"",""0""
""focus"",""7"",""45122""
""focus"",""7"",""106482""
""focus"",""13"",""204218""
""focus"",""19"",""289561""
""focus"",""19"",""331452""
""focus"",""52"",""549152""
","""event"",""trial"",""time""
""fullscreenenter"",""1"",""3972""
","""event"",""trial"",""time""
""fullscreenexit"",""7"",""41170""
","","","767","","","23","1299","400","&#9761;","elianto","#3366ff99","-1"," ","0","0","[1623]","1","0","2",""
"pit-trial","75","648628","0.0-2.0-11.9-2.9","battery-v0.2","","""event"",""trial"",""time""
""focus"",""0"",""0""
""fullscreenenter"",""1"",""3972""
""fullscreenexit"",""7"",""41170""
""blur"",""7"",""42956""
""focus"",""7"",""45122""
""blur"",""7"",""105084""
""focus"",""7"",""106482""
""blur"",""13"",""200813""
""focus"",""13"",""204218""
""blur"",""19"",""287537""
""focus"",""19"",""289561""
""blur"",""19"",""329690""
""focus"",""19"",""331452""
""blur"",""52"",""547287""
""focus"",""52"",""549152""
","""event"",""trial"",""time""
""blur"",""7"",""42956""
""blur"",""7"",""105084""
""blur"",""13"",""200813""
""blur"",""19"",""287537""
""blur"",""19"",""329690""
""blur"",""52"",""547287""
","""event"",""trial"",""time""
""focus"",""0"",""0""
""focus"",""7"",""45122""
""focus"",""7"",""106482""
""focus"",""13"",""204218""
""focus"",""19"",""289561""
""focus"",""19"",""331452""
""focus"",""52"",""549152""
","""event"",""trial"",""time""
""fullscreenenter"",""1"",""3972""
","""event"",""trial"",""time""
""fullscreenexit"",""7"",""41170""
","","","442","","","23","1299","400","&#9761;","elianto","#3366ff99","-1"," ","0","0","[1304]","1","0","2",""
"pit-trial","76","652355","0.0-2.0-11.9-3.9","battery-v0.2","","""event"",""trial"",""time""
""focus"",""0"",""0""
""fullscreenenter"",""1"",""3972""
""fullscreenexit"",""7"",""41170""
""blur"",""7"",""42956""
""focus"",""7"",""45122""
""blur"",""7"",""105084""
""focus"",""7"",""106482""
""blur"",""13"",""200813""
""focus"",""13"",""204218""
""blur"",""19"",""287537""
""focus"",""19"",""289561""
""blur"",""19"",""329690""
""focus"",""19"",""331452""
""blur"",""52"",""547287""
""focus"",""52"",""549152""
","""event"",""trial"",""time""
""blur"",""7"",""42956""
""blur"",""7"",""105084""
""blur"",""13"",""200813""
""blur"",""19"",""287537""
""blur"",""19"",""329690""
""blur"",""52"",""547287""
","""event"",""trial"",""time""
""focus"",""0"",""0""
""focus"",""7"",""45122""
""focus"",""7"",""106482""
""focus"",""13"",""204218""
""focus"",""19"",""289561""
""focus"",""19"",""331452""
""focus"",""52"",""549152""
","""event"",""trial"",""time""
""fullscreenenter"",""1"",""3972""
","""event"",""trial"",""time""
""fullscreenexit"",""7"",""41170""
","","","858","","","23","1299","400","&#9761;","elianto","#3366ff99","-1"," ","0","+10","[1710]","1","0","2",""
"pit-trial","77","657221","0.0-2.0-11.9-4.9","battery-v0.2","","""event"",""trial"",""time""
""focus"",""0"",""0""
""fullscreenenter"",""1"",""3972""
""fullscreenexit"",""7"",""41170""
""blur"",""7"",""42956""
""focus"",""7"",""45122""
""blur"",""7"",""105084""
""focus"",""7"",""106482""
""blur"",""13"",""200813""
""focus"",""13"",""204218""
""blur"",""19"",""287537""
""focus"",""19"",""289561""
""blur"",""19"",""329690""
""focus"",""19"",""331452""
""blur"",""52"",""547287""
""focus"",""52"",""549152""
","""event"",""trial"",""time""
""blur"",""7"",""42956""
""blur"",""7"",""105084""
""blur"",""13"",""200813""
""blur"",""19"",""287537""
""blur"",""19"",""329690""
""blur"",""52"",""547287""
","""event"",""trial"",""time""
""focus"",""0"",""0""
""focus"",""7"",""45122""
""focus"",""7"",""106482""
""focus"",""13"",""204218""
""focus"",""19"",""289561""
""focus"",""19"",""331452""
""focus"",""52"",""549152""
","""event"",""trial"",""time""
""fullscreenenter"",""1"",""3972""
","""event"",""trial"",""time""
""fullscreenexit"",""7"",""41170""
","","","-1","","","23","1299","400","&#9761;","elianto","#3366ff99","-1","-1","1","+10","[]","0","0","2",""
"pit-trial","78","662092","0.0-2.0-11.10-0.10","battery-v0.2","","""event"",""trial"",""time""
""focus"",""0"",""0""
""fullscreenenter"",""1"",""3972""
""fullscreenexit"",""7"",""41170""
""blur"",""7"",""42956""
""focus"",""7"",""45122""
""blur"",""7"",""105084""
""focus"",""7"",""106482""
""blur"",""13"",""200813""
""focus"",""13"",""204218""
""blur"",""19"",""287537""
""focus"",""19"",""289561""
""blur"",""19"",""329690""
""focus"",""19"",""331452""
""blur"",""52"",""547287""
""focus"",""52"",""549152""
","""event"",""trial"",""time""
""blur"",""7"",""42956""
""blur"",""7"",""105084""
""blur"",""13"",""200813""
""blur"",""19"",""287537""
""blur"",""19"",""329690""
""blur"",""52"",""547287""
","""event"",""trial"",""time""
""focus"",""0"",""0""
""focus"",""7"",""45122""
""focus"",""7"",""106482""
""focus"",""13"",""204218""
""focus"",""19"",""289561""
""focus"",""19"",""331452""
""focus"",""52"",""549152""
","""event"",""trial"",""time""
""fullscreenenter"",""1"",""3972""
","""event"",""trial"",""time""
""fullscreenexit"",""7"",""41170""
","","","-1","","","23","1299","400","&#9761;","elianto","#3366ff99","-1","-1","1","+10","[]","0","0","2",""
"pit-trial","79","665969","0.0-2.0-11.10-1.10","battery-v0.2","","""event"",""trial"",""time""
""focus"",""0"",""0""
""fullscreenenter"",""1"",""3972""
""fullscreenexit"",""7"",""41170""
""blur"",""7"",""42956""
""focus"",""7"",""45122""
""blur"",""7"",""105084""
""focus"",""7"",""106482""
""blur"",""13"",""200813""
""focus"",""13"",""204218""
""blur"",""19"",""287537""
""focus"",""19"",""289561""
""blur"",""19"",""329690""
""focus"",""19"",""331452""
""blur"",""52"",""547287""
""focus"",""52"",""549152""
","""event"",""trial"",""time""
""blur"",""7"",""42956""
""blur"",""7"",""105084""
""blur"",""13"",""200813""
""blur"",""19"",""287537""
""blur"",""19"",""329690""
""blur"",""52"",""547287""
","""event"",""trial"",""time""
""focus"",""0"",""0""
""focus"",""7"",""45122""
""focus"",""7"",""106482""
""focus"",""13"",""204218""
""focus"",""19"",""289561""
""focus"",""19"",""331452""
""focus"",""52"",""549152""
","""event"",""trial"",""time""
""fullscreenenter"",""1"",""3972""
","""event"",""trial"",""time""
""fullscreenexit"",""7"",""41170""
","","","1011","","","23","1299","400","&#9761;","elianto","#3366ff99","-1"," ","0","0","[1861]","1","0","2",""
"pit-trial","80","669694","0.0-2.0-11.10-2.10","battery-v0.2","","""event"",""trial"",""time""
""focus"",""0"",""0""
""fullscreenenter"",""1"",""3972""
""fullscreenexit"",""7"",""41170""
""blur"",""7"",""42956""
""focus"",""7"",""45122""
""blur"",""7"",""105084""
""focus"",""7"",""106482""
""blur"",""13"",""200813""
""focus"",""13"",""204218""
""blur"",""19"",""287537""
""focus"",""19"",""289561""
""blur"",""19"",""329690""
""focus"",""19"",""331452""
""blur"",""52"",""547287""
""focus"",""52"",""549152""
","""event"",""trial"",""time""
""blur"",""7"",""42956""
""blur"",""7"",""105084""
""blur"",""13"",""200813""
""blur"",""19"",""287537""
""blur"",""19"",""329690""
""blur"",""52"",""547287""
","""event"",""trial"",""time""
""focus"",""0"",""0""
""focus"",""7"",""45122""
""focus"",""7"",""106482""
""focus"",""13"",""204218""
""focus"",""19"",""289561""
""focus"",""19"",""331452""
""focus"",""52"",""549152""
","""event"",""trial"",""time""
""fullscreenenter"",""1"",""3972""
","""event"",""trial"",""time""
""fullscreenexit"",""7"",""41170""
","","","851","","","23","1299","400","&#9761;","elianto","#3366ff99","-1"," ","0","0","[1715]","1","0","2",""
"pit-trial","81","673828","0.0-2.0-11.10-3.10","battery-v0.2","","""event"",""trial"",""time""
""focus"",""0"",""0""
""fullscreenenter"",""1"",""3972""
""fullscreenexit"",""7"",""41170""
""blur"",""7"",""42956""
""focus"",""7"",""45122""
""blur"",""7"",""105084""
""focus"",""7"",""106482""
""blur"",""13"",""200813""
""focus"",""13"",""204218""
""blur"",""19"",""287537""
""focus"",""19"",""289561""
""blur"",""19"",""329690""
""focus"",""19"",""331452""
""blur"",""52"",""547287""
""focus"",""52"",""549152""
","""event"",""trial"",""time""
""blur"",""7"",""42956""
""blur"",""7"",""105084""
""blur"",""13"",""200813""
""blur"",""19"",""287537""
""blur"",""19"",""329690""
""blur"",""52"",""547287""
","""event"",""trial"",""time""
""focus"",""0"",""0""
""focus"",""7"",""45122""
""focus"",""7"",""106482""
""focus"",""13"",""204218""
""focus"",""19"",""289561""
""focus"",""19"",""331452""
""focus"",""52"",""549152""
","""event"",""trial"",""time""
""fullscreenenter"",""1"",""3972""
","""event"",""trial"",""time""
""fullscreenexit"",""7"",""41170""
","","","1267","","","23","1299","400","&#9761;","elianto","#3366ff99","-1"," ","0","+10","[2119]","1","0","2",""
"pit-trial","82","677572","0.0-2.0-11.10-4.10","battery-v0.2","","""event"",""trial"",""time""
""focus"",""0"",""0""
""fullscreenenter"",""1"",""3972""
""fullscreenexit"",""7"",""41170""
""blur"",""7"",""42956""
""focus"",""7"",""45122""
""blur"",""7"",""105084""
""focus"",""7"",""106482""
""blur"",""13"",""200813""
""focus"",""13"",""204218""
""blur"",""19"",""287537""
""focus"",""19"",""289561""
""blur"",""19"",""329690""
""focus"",""19"",""331452""
""blur"",""52"",""547287""
""focus"",""52"",""549152""
","""event"",""trial"",""time""
""blur"",""7"",""42956""
""blur"",""7"",""105084""
""blur"",""13"",""200813""
""blur"",""19"",""287537""
""blur"",""19"",""329690""
""blur"",""52"",""547287""
","""event"",""trial"",""time""
""focus"",""0"",""0""
""focus"",""7"",""45122""
""focus"",""7"",""106482""
""focus"",""13"",""204218""
""focus"",""19"",""289561""
""focus"",""19"",""331452""
""focus"",""52"",""549152""
","""event"",""trial"",""time""
""fullscreenenter"",""1"",""3972""
","""event"",""trial"",""time""
""fullscreenexit"",""7"",""41170""
","","","866","","","23","1299","400","&#9761;","elianto","#3366ff99","-1"," ","0","0","[1727]","1","0","2",""
"pit-trial","83","681069","0.0-2.0-11.11-0.11","battery-v0.2","","""event"",""trial"",""time""
""focus"",""0"",""0""
""fullscreenenter"",""1"",""3972""
""fullscreenexit"",""7"",""41170""
""blur"",""7"",""42956""
""focus"",""7"",""45122""
""blur"",""7"",""105084""
""focus"",""7"",""106482""
""blur"",""13"",""200813""
""focus"",""13"",""204218""
""blur"",""19"",""287537""
""focus"",""19"",""289561""
""blur"",""19"",""329690""
""focus"",""19"",""331452""
""blur"",""52"",""547287""
""focus"",""52"",""549152""
","""event"",""trial"",""time""
""blur"",""7"",""42956""
""blur"",""7"",""105084""
""blur"",""13"",""200813""
""blur"",""19"",""287537""
""blur"",""19"",""329690""
""blur"",""52"",""547287""
","""event"",""trial"",""time""
""focus"",""0"",""0""
""focus"",""7"",""45122""
""focus"",""7"",""106482""
""focus"",""13"",""204218""
""focus"",""19"",""289561""
""focus"",""19"",""331452""
""focus"",""52"",""549152""
","""event"",""trial"",""time""
""fullscreenenter"",""1"",""3972""
","""event"",""trial"",""time""
""fullscreenexit"",""7"",""41170""
","","","631","","","23","1299","400","&#9761;","elianto","#3366ff99","-1"," ","0","0","[1484]","1","0","2",""
"pit-trial","84","684594","0.0-2.0-11.11-1.11","battery-v0.2","","""event"",""trial"",""time""
""focus"",""0"",""0""
""fullscreenenter"",""1"",""3972""
""fullscreenexit"",""7"",""41170""
""blur"",""7"",""42956""
""focus"",""7"",""45122""
""blur"",""7"",""105084""
""focus"",""7"",""106482""
""blur"",""13"",""200813""
""focus"",""13"",""204218""
""blur"",""19"",""287537""
""focus"",""19"",""289561""
""blur"",""19"",""329690""
""focus"",""19"",""331452""
""blur"",""52"",""547287""
""focus"",""52"",""549152""
","""event"",""trial"",""time""
""blur"",""7"",""42956""
""blur"",""7"",""105084""
""blur"",""13"",""200813""
""blur"",""19"",""287537""
""blur"",""19"",""329690""
""blur"",""52"",""547287""
","""event"",""trial"",""time""
""focus"",""0"",""0""
""focus"",""7"",""45122""
""focus"",""7"",""106482""
""focus"",""13"",""204218""
""focus"",""19"",""289561""
""focus"",""19"",""331452""
""focus"",""52"",""549152""
","""event"",""trial"",""time""
""fullscreenenter"",""1"",""3972""
","""event"",""trial"",""time""
""fullscreenexit"",""7"",""41170""
","","","648","","","23","1299","400","&#9761;","elianto","#3366ff99","-1"," ","0","0","[1512]","1","0","2",""
"pit-trial","85","688599","0.0-2.0-11.11-2.11","battery-v0.2","","""event"",""trial"",""time""
""focus"",""0"",""0""
""fullscreenenter"",""1"",""3972""
""fullscreenexit"",""7"",""41170""
""blur"",""7"",""42956""
""focus"",""7"",""45122""
""blur"",""7"",""105084""
""focus"",""7"",""106482""
""blur"",""13"",""200813""
""focus"",""13"",""204218""
""blur"",""19"",""287537""
""focus"",""19"",""289561""
""blur"",""19"",""329690""
""focus"",""19"",""331452""
""blur"",""52"",""547287""
""focus"",""52"",""549152""
","""event"",""trial"",""time""
""blur"",""7"",""42956""
""blur"",""7"",""105084""
""blur"",""13"",""200813""
""blur"",""19"",""287537""
""blur"",""19"",""329690""
""blur"",""52"",""547287""
","""event"",""trial"",""time""
""focus"",""0"",""0""
""focus"",""7"",""45122""
""focus"",""7"",""106482""
""focus"",""13"",""204218""
""focus"",""19"",""289561""
""focus"",""19"",""331452""
""focus"",""52"",""549152""
","""event"",""trial"",""time""
""fullscreenenter"",""1"",""3972""
","""event"",""trial"",""time""
""fullscreenexit"",""7"",""41170""
","","","1137","","","23","1299","400","&#9761;","elianto","#3366ff99","-1"," ","0","0","[2001]","1","0","2",""
"pit-trial","86","692624","0.0-2.0-11.11-3.11","battery-v0.2","","""event"",""trial"",""time""
""focus"",""0"",""0""
""fullscreenenter"",""1"",""3972""
""fullscreenexit"",""7"",""41170""
""blur"",""7"",""42956""
""focus"",""7"",""45122""
""blur"",""7"",""105084""
""focus"",""7"",""106482""
""blur"",""13"",""200813""
""focus"",""13"",""204218""
""blur"",""19"",""287537""
""focus"",""19"",""289561""
""blur"",""19"",""329690""
""focus"",""19"",""331452""
""blur"",""52"",""547287""
""focus"",""52"",""549152""
","""event"",""trial"",""time""
""blur"",""7"",""42956""
""blur"",""7"",""105084""
""blur"",""13"",""200813""
""blur"",""19"",""287537""
""blur"",""19"",""329690""
""blur"",""52"",""547287""
","""event"",""trial"",""time""
""focus"",""0"",""0""
""focus"",""7"",""45122""
""focus"",""7"",""106482""
""focus"",""13"",""204218""
""focus"",""19"",""289561""
""focus"",""19"",""331452""
""focus"",""52"",""549152""
","""event"",""trial"",""time""
""fullscreenenter"",""1"",""3972""
","""event"",""trial"",""time""
""fullscreenexit"",""7"",""41170""
","","","1154","","","23","1299","400","&#9761;","elianto","#3366ff99","-1"," ","0","+10","[2019]","1","0","2",""
"pit-trial","87","697130","0.0-2.0-11.11-4.11","battery-v0.2","","""event"",""trial"",""time""
""focus"",""0"",""0""
""fullscreenenter"",""1"",""3972""
""fullscreenexit"",""7"",""41170""
""blur"",""7"",""42956""
""focus"",""7"",""45122""
""blur"",""7"",""105084""
""focus"",""7"",""106482""
""blur"",""13"",""200813""
""focus"",""13"",""204218""
""blur"",""19"",""287537""
""focus"",""19"",""289561""
""blur"",""19"",""329690""
""focus"",""19"",""331452""
""blur"",""52"",""547287""
""focus"",""52"",""549152""
","""event"",""trial"",""time""
""blur"",""7"",""42956""
""blur"",""7"",""105084""
""blur"",""13"",""200813""
""blur"",""19"",""287537""
""blur"",""19"",""329690""
""blur"",""52"",""547287""
","""event"",""trial"",""time""
""focus"",""0"",""0""
""focus"",""7"",""45122""
""focus"",""7"",""106482""
""focus"",""13"",""204218""
""focus"",""19"",""289561""
""focus"",""19"",""331452""
""focus"",""52"",""549152""
","""event"",""trial"",""time""
""fullscreenenter"",""1"",""3972""
","""event"",""trial"",""time""
""fullscreenexit"",""7"",""41170""
","","","1634","","","23","1299","400","&#9761;","elianto","#3366ff99","-1"," ","0","0","[2499]","1","0","2",""
"pit-trial","88","701993","0.0-2.0-11.12-0.12","battery-v0.2","","""event"",""trial"",""time""
""focus"",""0"",""0""
""fullscreenenter"",""1"",""3972""
""fullscreenexit"",""7"",""41170""
""blur"",""7"",""42956""
""focus"",""7"",""45122""
""blur"",""7"",""105084""
""focus"",""7"",""106482""
""blur"",""13"",""200813""
""focus"",""13"",""204218""
""blur"",""19"",""287537""
""focus"",""19"",""289561""
""blur"",""19"",""329690""
""focus"",""19"",""331452""
""blur"",""52"",""547287""
""focus"",""52"",""549152""
","""event"",""trial"",""time""
""blur"",""7"",""42956""
""blur"",""7"",""105084""
""blur"",""13"",""200813""
""blur"",""19"",""287537""
""blur"",""19"",""329690""
""blur"",""52"",""547287""
","""event"",""trial"",""time""
""focus"",""0"",""0""
""focus"",""7"",""45122""
""focus"",""7"",""106482""
""focus"",""13"",""204218""
""focus"",""19"",""289561""
""focus"",""19"",""331452""
""focus"",""52"",""549152""
","""event"",""trial"",""time""
""fullscreenenter"",""1"",""3972""
","""event"",""trial"",""time""
""fullscreenexit"",""7"",""41170""
","","","-1","","","23","1299","400","&#9761;","elianto","#3366ff99","-1","-1","1","+10","[]","0","0","2",""
"pit-trial","89","706852","0.0-2.0-11.12-1.12","battery-v0.2","","""event"",""trial"",""time""
""focus"",""0"",""0""
""fullscreenenter"",""1"",""3972""
""fullscreenexit"",""7"",""41170""
""blur"",""7"",""42956""
""focus"",""7"",""45122""
""blur"",""7"",""105084""
""focus"",""7"",""106482""
""blur"",""13"",""200813""
""focus"",""13"",""204218""
""blur"",""19"",""287537""
""focus"",""19"",""289561""
""blur"",""19"",""329690""
""focus"",""19"",""331452""
""blur"",""52"",""547287""
""focus"",""52"",""549152""
","""event"",""trial"",""time""
""blur"",""7"",""42956""
""blur"",""7"",""105084""
""blur"",""13"",""200813""
""blur"",""19"",""287537""
""blur"",""19"",""329690""
""blur"",""52"",""547287""
","""event"",""trial"",""time""
""focus"",""0"",""0""
""focus"",""7"",""45122""
""focus"",""7"",""106482""
""focus"",""13"",""204218""
""focus"",""19"",""289561""
""focus"",""19"",""331452""
""focus"",""52"",""549152""
","""event"",""trial"",""time""
""fullscreenenter"",""1"",""3972""
","""event"",""trial"",""time""
""fullscreenexit"",""7"",""41170""
","","","-1","","","23","1299","400","&#9761;","elianto","#3366ff99","-1","-1","1","+10","[]","0","0","2",""
"pit-trial","90","710538","0.0-2.0-11.12-2.12","battery-v0.2","","""event"",""trial"",""time""
""focus"",""0"",""0""
""fullscreenenter"",""1"",""3972""
""fullscreenexit"",""7"",""41170""
""blur"",""7"",""42956""
""focus"",""7"",""45122""
""blur"",""7"",""105084""
""focus"",""7"",""106482""
""blur"",""13"",""200813""
""focus"",""13"",""204218""
""blur"",""19"",""287537""
""focus"",""19"",""289561""
""blur"",""19"",""329690""
""focus"",""19"",""331452""
""blur"",""52"",""547287""
""focus"",""52"",""549152""
","""event"",""trial"",""time""
""blur"",""7"",""42956""
""blur"",""7"",""105084""
""blur"",""13"",""200813""
""blur"",""19"",""287537""
""blur"",""19"",""329690""
""blur"",""52"",""547287""
","""event"",""trial"",""time""
""focus"",""0"",""0""
""focus"",""7"",""45122""
""focus"",""7"",""106482""
""focus"",""13"",""204218""
""focus"",""19"",""289561""
""focus"",""19"",""331452""
""focus"",""52"",""549152""
","""event"",""trial"",""time""
""fullscreenenter"",""1"",""3972""
","""event"",""trial"",""time""
""fullscreenexit"",""7"",""41170""
","","","829","","","23","1299","400","&#9761;","elianto","#3366ff99","-1"," ","0","0","[1680]","1","0","2",""
"pit-trial","91","713942","0.0-2.0-11.12-3.12","battery-v0.2","","""event"",""trial"",""time""
""focus"",""0"",""0""
""fullscreenenter"",""1"",""3972""
""fullscreenexit"",""7"",""41170""
""blur"",""7"",""42956""
""focus"",""7"",""45122""
""blur"",""7"",""105084""
""focus"",""7"",""106482""
""blur"",""13"",""200813""
""focus"",""13"",""204218""
""blur"",""19"",""287537""
""focus"",""19"",""289561""
""blur"",""19"",""329690""
""focus"",""19"",""331452""
""blur"",""52"",""547287""
""focus"",""52"",""549152""
","""event"",""trial"",""time""
""blur"",""7"",""42956""
""blur"",""7"",""105084""
""blur"",""13"",""200813""
""blur"",""19"",""287537""
""blur"",""19"",""329690""
""blur"",""52"",""547287""
","""event"",""trial"",""time""
""focus"",""0"",""0""
""focus"",""7"",""45122""
""focus"",""7"",""106482""
""focus"",""13"",""204218""
""focus"",""19"",""289561""
""focus"",""19"",""331452""
""focus"",""52"",""549152""
","""event"",""trial"",""time""
""fullscreenenter"",""1"",""3972""
","""event"",""trial"",""time""
""fullscreenexit"",""7"",""41170""
","","","547","","","23","1299","400","&#9761;","elianto","#3366ff99","-1"," ","0","+10","[1401]","1","0","2",""
"pit-trial","92","717275","0.0-2.0-11.12-4.12","battery-v0.2","","""event"",""trial"",""time""
""focus"",""0"",""0""
""fullscreenenter"",""1"",""3972""
""fullscreenexit"",""7"",""41170""
""blur"",""7"",""42956""
""focus"",""7"",""45122""
""blur"",""7"",""105084""
""focus"",""7"",""106482""
""blur"",""13"",""200813""
""focus"",""13"",""204218""
""blur"",""19"",""287537""
""focus"",""19"",""289561""
""blur"",""19"",""329690""
""focus"",""19"",""331452""
""blur"",""52"",""547287""
""focus"",""52"",""549152""
","""event"",""trial"",""time""
""blur"",""7"",""42956""
""blur"",""7"",""105084""
""blur"",""13"",""200813""
""blur"",""19"",""287537""
""blur"",""19"",""329690""
""blur"",""52"",""547287""
","""event"",""trial"",""time""
""focus"",""0"",""0""
""focus"",""7"",""45122""
""focus"",""7"",""106482""
""focus"",""13"",""204218""
""focus"",""19"",""289561""
""focus"",""19"",""331452""
""focus"",""52"",""549152""
","""event"",""trial"",""time""
""fullscreenenter"",""1"",""3972""
","""event"",""trial"",""time""
""fullscreenexit"",""7"",""41170""
