"trial_type","trial_index","time_elapsed","internal_node_id","task_version","rune","rune_set","hex","correct","choice","rt","accuracy","outcome","keys","total_keys","sub","block","trial","stimulus","robot","valence","action","sham"
"pavlovia","0","13","0.0-0.0","battery-v0.2","","","","","","","","","","","","","","","","","",""
"pit-trial","1","4872","0.0-1.0","battery-v0.2","q","elianto","#d1e6df","-1","-1","-1","1","+10","[]","0","3&age=8&participant_ID=5&order=1","2","21","0","2","win","no-go","0"
"pit-trial","2","9732","0.0-2.0","battery-v0.2","f","elianto","#d1e6df","32","-1","-1","0","0","[]","0","3&age=8&participant_ID=5&order=1","2","22","2","1","win","go","0"
"pit-trial","3","14595","0.0-3.0","battery-v0.2","x","elianto","#d1e6df","32","-1","-1","0","-10","[]","0","3&age=8&participant_ID=5&order=1","2","23","3","3","lose","go","0"
"pit-trial","4","19454","0.0-4.0","battery-v0.2","n","elianto","#d1e6df","-1","-1","-1","1","+10","[]","0","3&age=8&participant_ID=5&order=1","2","24","1","2","win","no-go","0"
"pit-trial","5","24309","0.0-5.0","battery-v0.2","f","elianto","#d1e6df","32","-1","-1","0","0","[]","0","3&age=8&participant_ID=5&order=1","2","25","2","1","win","go","0"
"pit-trial","6","29168","0.0-6.0","battery-v0.2","x","elianto","#d1e6df","32","-1","-1","0","-10","[]","0","3&age=8&participant_ID=5&order=1","2","26","3","3","lose","go","0"
"pit-trial","7","34029","0.0-7.0","battery-v0.2","n","elianto","#d1e6df","-1","-1","-1","1","+10","[]","0","3&age=8&participant_ID=5&order=1","2","27","1","2","win","no-go","0"
"pit-trial","8","38891","0.0-8.0","battery-v0.2","q","elianto","#d1e6df","-1","-1","-1","1","0","[]","0","3&age=8&participant_ID=5&order=1","2","28","0","2","win","no-go","1"
"pit-trial","9","43753","0.0-9.0","battery-v0.2","q","elianto","#d1e6df","-1","-1","-1","1","+10","[]","0","3&age=8&participant_ID=5&order=1","2","29","0","2","win","no-go","0"
"pit-trial","10","48612","0.0-10.0","battery-v0.2","n","elianto","#d1e6df","-1","-1","-1","1","+10","[]","0","3&age=8&participant_ID=5&order=1","2","30","1","2","win","no-go","0"
"pit-trial","11","53466","0.0-11.0","battery-v0.2","f","elianto","#d1e6df","32","-1","-1","0","0","[]","0","3&age=8&participant_ID=5&order=1","2","31","2","1","win","go","0"
"pit-trial","12","58327","0.0-12.0","battery-v0.2","x","elianto","#d1e6df","32","-1","-1","0","0","[]","0","3&age=8&participant_ID=5&order=1","2","32","3","3","lose","go","1"
"pit-trial","13","63186","0.0-13.0","battery-v0.2","n","elianto","#d1e6df","-1","-1","-1","1","0","[]","0","3&age=8&participant_ID=5&order=1","2","33","1","2","win","no-go","1"
"pit-trial","14","68041","0.0-14.0","battery-v0.2","f","elianto","#d1e6df","32","-1","-1","0","0","[]","0","3&age=8&participant_ID=5&order=1","2","34","2","1","win","go","0"
"pit-trial","15","72901","0.0-15.0","battery-v0.2","x","elianto","#d1e6df","32","-1","-1","0","-10","[]","0","3&age=8&participant_ID=5&order=1","2","35","3","3","lose","go","0"
"pit-trial","16","77760","0.0-16.0","battery-v0.2","q","elianto","#d1e6df","-1","-1","-1","1","+10","[]","0","3&age=8&participant_ID=5&order=1","2","36","0","2","win","no-go","0"
"pit-trial","17","82619","0.0-17.0","battery-v0.2","n","elianto","#d1e6df","-1","-1","-1","1","+10","[]","0","3&age=8&participant_ID=5&order=1","2","37","1","2","win","no-go","0"
"pit-trial","18","87481","0.0-18.0","battery-v0.2","f","elianto","#d1e6df","32","-1","-1","0","+10","[]","0","3&age=8&participant_ID=5&order=1","2","38","2","1","win","go","1"
"pit-trial","19","92338","0.0-19.0","battery-v0.2","q","elianto","#d1e6df","-1","-1","-1","1","0","[]","0","3&age=8&participant_ID=5&order=1","2","39","0","2","win","no-go","1"
"pit-trial","20","97194","0.0-20.0","battery-v0.2","x","elianto","#d1e6df","32","-1","-1","0","0","[]","0","3&age=8&participant_ID=5&order=1","2","40","3","3","lose","go","1"
"pit-trial","21","102056","0.0-21.0","battery-v0.2","x","elianto","#d1e6df","32","-1","-1","0","-10","[]","0","3&age=8&participant_ID=5&order=1","2","41","3","3","lose","go","0"
"pit-trial","22","106914","0.0-22.0","battery-v0.2","n","elianto","#d1e6df","-1","-1","-1","1","0","[]","0","3&age=8&participant_ID=5&order=1","2","42","1","2","win","no-go","1"
"pit-trial","23","111776","0.0-23.0","battery-v0.2","q","elianto","#d1e6df","-1","-1","-1","1","+10","[]","0","3&age=8&participant_ID=5&order=1","2","43","0","2","win","no-go","0"
"pit-trial","24","116634","0.0-24.0","battery-v0.2","f","elianto","#d1e6df","32","-1","-1","0","0","[]","0","3&age=8&participant_ID=5&order=1","2","44","2","1","win","go","0"
"pit-trial","25","121493","0.0-25.0","battery-v0.2","n","elianto","#d1e6df","-1","-1","-1","1","+10","[]","0","3&age=8&participant_ID=5&order=1","2","45","1","2","win","no-go","0"
"pit-trial","26","126351","0.0-26.0","battery-v0.2","q","elianto","#d1e6df","-1","-1","-1","1","+10","[]","0","3&age=8&participant_ID=5&order=1","2","46","0","2","win","no-go","0"
"pit-trial","27","131212","0.0-27.0","battery-v0.2","x","elianto","#d1e6df","32","-1","-1","0","-10","[]","0","3&age=8&participant_ID=5&order=1","2","47","3","3","lose","go","0"
"pit-trial","28","136069","0.0-28.0","battery-v0.2","f","elianto","#d1e6df","32","-1","-1","0","0","[]","0","3&age=8&participant_ID=5&order=1","2","48","2","1","win","go","0"
"pit-trial","29","140928","0.0-29.0","battery-v0.2","n","elianto","#d1e6df","-1","-1","-1","1","0","[]","0","3&age=8&participant_ID=5&order=1","2","49","1","2","win","no-go","1"
"pit-trial","30","145786","0.0-30.0","battery-v0.2","x","elianto","#d1e6df","32","-1","-1","0","-10","[]","0","3&age=8&participant_ID=5&order=1","2","50","3","3","lose","go","0"
"pit-trial","31","150644","0.0-31.0","battery-v0.2","q","elianto","#d1e6df","-1","-1","-1","1","+10","[]","0","3&age=8&participant_ID=5&order=1","2","51","0","2","win","no-go","0"
"pit-trial","32","155498","0.0-32.0","battery-v0.2","f","elianto","#d1e6df","32","-1","-1","0","+10","[]","0","3&age=8&participant_ID=5&order=1","2","52","2","1","win","go","1"
"pit-trial","33","160353","0.0-33.0","battery-v0.2","b","elianto","#d1e6df","32","-1","-1","0","-10","[]","0","3&age=8&participant_ID=5&order=1","2","53","5","3","lose","go","0"
"pit-trial","34","165213","0.0-34.0","battery-v0.2","t","elianto","#d1e6df","-1","-1","-1","1","0","[]","0","3&age=8&participant_ID=5&order=1","2","54","4","4","lose","no-go","0"
"pit-trial","35","170071","0.0-35.0","battery-v0.2","f","elianto","#d1e6df","32","-1","-1","0","0","[]","0","3&age=8&participant_ID=5&order=1","2","55","2","1","win","go","0"
"pit-trial","36","174932","0.0-36.0","battery-v0.2","q","elianto","#d1e6df","-1","-1","-1","1","+10","[]","0","3&age=8&participant_ID=5&order=1","2","56","0","2","win","no-go","0"
"pit-trial","37","179794","0.0-37.0","battery-v0.2","q","elianto","#d1e6df","-1","-1","-1","1","+10","[]","0","3&age=8&participant_ID=5&order=1","2","57","0","2","win","no-go","0"
"pit-trial","38","184654","0.0-38.0","battery-v0.2","t","elianto","#d1e6df","-1","-1","-1","1","-10","[]","0","3&age=8&participant_ID=5&order=1","2","58","4","4","lose","no-go","1"
"pit-trial","39","189513","0.0-39.0","battery-v0.2","b","elianto","#d1e6df","32","-1","-1","0","0","[]","0","3&age=8&participant_ID=5&order=1","2","59","5","3","lose","go","1"
"pit-trial","40","194371","0.0-40.0","battery-v0.2","f","elianto","#d1e6df","32","-1","-1","0","0","[]","0","3&age=8&participant_ID=5&order=1","2","60","2","1","win","go","0"
"pit-trial","41","199233","0.0-41.0","battery-v0.2","f","elianto","#d1e6df","32","-1","-1","0","0","[]","0","3&age=8&participant_ID=5&order=1","2","61","2","1","win","go","0"
"pit-trial","42","204093","0.0-42.0","battery-v0.2","b","elianto","#d1e6df","32","-1","-1","0","-10","[]","0","3&age=8&participant_ID=5&order=1","2","62","5","3","lose","go","0"
"pit-trial","43","208953","0.0-43.0","battery-v0.2","t","elianto","#d1e6df","-1","-1","-1","1","-10","[]","0","3&age=8&participant_ID=5&order=1","2","63","4","4","lose","no-go","1"
"pit-trial","44","213813","0.0-44.0","battery-v0.2","c","elianto","#d1e6df","-1","-1","-1","1","+10","[]","0","3&age=8&participant_ID=5&order=1","2","64","6","2","win","no-go","0"
"pit-trial","45","218678","0.0-45.0","battery-v0.2","b","elianto","#d1e6df","32","-1","-1","0","-10","[]","0","3&age=8&participant_ID=5&order=1","2","65","5","3","lose","go","0"
"pit-trial","46","223536","0.0-46.0","battery-v0.2","f","elianto","#d1e6df","32","-1","-1","0","0","[]","0","3&age=8&participant_ID=5&order=1","2","66","2","1","win","go","0"
"pit-trial","47","228397","0.0-47.0","battery-v0.2","c","elianto","#d1e6df","-1","-1","-1","1","+10","[]","0","3&age=8&participant_ID=5&order=1","2","67","6","2","win","no-go","0"
"pit-trial","48","233257","0.0-48.0","battery-v0.2","t","elianto","#d1e6df","-1","-1","-1","1","0","[]","0","3&age=8&participant_ID=5&order=1","2","68","4","4","lose","no-go","0"
"pit-trial","49","238115","0.0-49.0","battery-v0.2","c","elianto","#d1e6df","-1","-1","-1","1","+10","[]","0","3&age=8&participant_ID=5&order=1","2","69","6","2","win","no-go","0"
"pit-trial","50","242978","0.0-50.0","battery-v0.2","z","elianto","#d1e6df","-1","-1","-1","1","-10","[]","0","3&age=8&participant_ID=5&order=1","2","70","7","4","lose","no-go","1"
"pit-trial","51","247840","0.0-51.0","battery-v0.2","t","elianto","#d1e6df","-1","-1","-1","1","0","[]","0","3&age=8&participant_ID=5&order=1","2","71","4","4","lose","no-go","0"
"pit-trial","52","252702","0.0-52.0","battery-v0.2","b","elianto","#d1e6df","32","-1","-1","0","-10","[]","0","3&age=8&participant_ID=5&order=1","2","72","5","3","lose","go","0"
"pit-trial","53","257561","0.0-53.0","battery-v0.2","t","elianto","#d1e6df","-1","-1","-1","1","0","[]","0","3&age=8&participant_ID=5&order=1","2","73","4","4","lose","no-go","0"
"pit-trial","54","262420","0.0-54.0","battery-v0.2","b","elianto","#d1e6df","32","-1","-1","0","-10","[]","0","3&age=8&participant_ID=5&order=1","2","74","5","3","lose","go","0"
"pit-trial","55","267278","0.0-55.0","battery-v0.2","c","elianto","#d1e6df","-1","-1","-1","1","+10","[]","0","3&age=8&participant_ID=5&order=1","2","75","6","2","win","no-go","0"
"pit-trial","56","272135","0.0-56.0","battery-v0.2","z","elianto","#d1e6df","-1","-1","-1","1","0","[]","0","3&age=8&participant_ID=5&order=1","2","76","7","4","lose","no-go","0"
"pit-trial","57","276996","0.0-57.0","battery-v0.2","c","elianto","#d1e6df","-1","-1","-1","1","+10","[]","0","3&age=8&participant_ID=5&order=1","2","77","6","2","win","no-go","0"
"pit-trial","58","281854","0.0-58.0","battery-v0.2","t","elianto","#d1e6df","-1","-1","-1","1","-10","[]","0","3&age=8&participant_ID=5&order=1","2","78","4","4","lose","no-go","1"
"pit-trial","59","286714","0.0-59.0","battery-v0.2","z","elianto","#d1e6df","-1","-1","-1","1","0","[]","0","3&age=8&participant_ID=5&order=1","2","79","7","4","lose","no-go","0"
"pit-trial","60","291573","0.0-60.0","battery-v0.2","b","elianto","#d1e6df","32","-1","-1","0","-10","[]","0","3&age=8&participant_ID=5&order=1","2","80","5","3","lose","go","0"
"pit-trial","61","296434","0.0-61.0","battery-v0.2","z","elianto","#d1e6df","-1","-1","-1","1","0","[]","0","3&age=8&participant_ID=5&order=1","2","81","7","4","lose","no-go","0"
"pit-trial","62","301293","0.0-62.0","battery-v0.2","c","elianto","#d1e6df","-1","-1","-1","1","+10","[]","0","3&age=8&participant_ID=5&order=1","2","82","6","2","win","no-go","0"
"pit-trial","63","306148","0.0-63.0","battery-v0.2","b","elianto","#d1e6df","32","-1","-1","0","-10","[]","0","3&age=8&participant_ID=5&order=1","2","83","5","3","lose","go","0"
"pit-trial","64","311007","0.0-64.0","battery-v0.2","t","elianto","#d1e6df","-1","-1","-1","1","0","[]","0","3&age=8&participant_ID=5&order=1","2","84","4","4","lose","no-go","0"
"pit-trial","65","315866","0.0-65.0","battery-v0.2","b","elianto","#d1e6df","32","-1","-1","0","0","[]","0","3&age=8&participant_ID=5&order=1","2","85","5","3","lose","go","1"
"pit-trial","66","320727","0.0-66.0","battery-v0.2","c","elianto","#d1e6df","-1","-1","-1","1","+10","[]","0","3&age=8&participant_ID=5&order=1","2","86","6","2","win","no-go","0"
"pit-trial","67","325588","0.0-67.0","battery-v0.2","t","elianto","#d1e6df","-1","-1","-1","1","0","[]","0","3&age=8&participant_ID=5&order=1","2","87","4","4","lose","no-go","0"
"pit-trial","68","330447","0.0-68.0","battery-v0.2","z","elianto","#d1e6df","-1","-1","-1","1","0","[]","0","3&age=8&participant_ID=5&order=1","2","88","7","4","lose","no-go","0"
"pit-trial","69","335307","0.0-69.0","battery-v0.2","c","elianto","#d1e6df","-1","-1","-1","1","+10","[]","0","3&age=8&participant_ID=5&order=1","2","89","6","2","win","no-go","0"
"pit-trial","70","340168","0.0-70.0","battery-v0.2","b","elianto","#d1e6df","32","-1","-1","0","0","[]","0","3&age=8&participant_ID=5&order=1","2","90","5","3","lose","go","1"
"pit-trial","71","345026","0.0-71.0","battery-v0.2","t","elianto","#d1e6df","-1","-1","-1","1","0","[]","0","3&age=8&participant_ID=5&order=1","2","91","4","4","lose","no-go","0"
"pit-trial","72","349885","0.0-72.0","battery-v0.2","z","elianto","#d1e6df","-1","-1","-1","1","0","[]","0","3&age=8&participant_ID=5&order=1","2","92","7","4","lose","no-go","0"
"pit-trial","73","354742","0.0-73.0","battery-v0.2","z","elianto","#d1e6df","-1","-1","-1","1","0","[]","0","3&age=8&participant_ID=5&order=1","2","93","7","4","lose","no-go","0"
"pit-trial","74","359601","0.0-74.0","battery-v0.2","c","elianto","#d1e6df","-1","-1","-1","1","+10","[]","0","3&age=8&participant_ID=5&order=1","2","94","6","2","win","no-go","0"
"pit-trial","75","364463","0.0-75.0","battery-v0.2","h","elianto","#d1e6df","-1","-1","-1","1","0","[]","0","3&age=8&participant_ID=5&order=1","2","95","8","4","lose","no-go","0"
"pit-trial","76","369321","0.0-76.0","battery-v0.2","b","elianto","#d1e6df","32","-1","-1","0","-10","[]","0","3&age=8&participant_ID=5&order=1","2","96","5","3","lose","go","0"
"pit-trial","77","374179","0.0-77.0","battery-v0.2","b","elianto","#d1e6df","32","-1","-1","0","0","[]","0","3&age=8&participant_ID=5&order=1","2","97","5","3","lose","go","1"
"pit-trial","78","379039","0.0-78.0","battery-v0.2","z","elianto","#d1e6df","-1","-1","-1","1","0","[]","0","3&age=8&participant_ID=5&order=1","2","98","7","4","lose","no-go","0"
"pit-trial","79","383900","0.0-79.0","battery-v0.2","c","elianto","#d1e6df","-1","-1","-1","1","+10","[]","0","3&age=8&participant_ID=5&order=1","2","99","6","2","win","no-go","0"
"pit-trial","80","388757","0.0-80.0","battery-v0.2","h","elianto","#d1e6df","-1","-1","-1","1","-10","[]","0","3&age=8&participant_ID=5&order=1","2","100","8","4","lose","no-go","1"
"pit-trial","81","393618","0.0-81.0","battery-v0.2","h","elianto","#d1e6df","-1","-1","-1","1","0","[]","0","3&age=8&participant_ID=5&order=1","2","101","8","4","lose","no-go","0"
"pit-trial","82","398478","0.0-82.0","battery-v0.2","c","elianto","#d1e6df","-1","-1","-1","1","+10","[]","0","3&age=8&participant_ID=5&order=1","2","102","6","2","win","no-go","0"
"pit-trial","83","403337","0.0-83.0","battery-v0.2","r","elianto","#d1e6df","32","-1","-1","0","-10","[]","0","3&age=8&participant_ID=5&order=1","2","103","10","3","lose","go","0"
"pit-trial","84","408200","0.0-84.0","battery-v0.2","y","elianto","#d1e6df","32","-1","-1","0","0","[]","0","3&age=8&participant_ID=5&order=1","2","104","9","1","win","go","0"
"pit-trial","85","413058","0.0-85.0","battery-v0.2","h","elianto","#d1e6df","-1","-1","-1","1","-10","[]","0","3&age=8&participant_ID=5&order=1","2","105","8","4","lose","no-go","1"
"pit-trial","86","417916","0.0-86.0","battery-v0.2","r","elianto","#d1e6df","32","-1","-1","0","-10","[]","0","3&age=8&participant_ID=5&order=1","2","106","10","3","lose","go","0"
"pit-trial","87","422775","0.0-87.0","battery-v0.2","y","elianto","#d1e6df","32","-1","-1","0","0","[]","0","3&age=8&participant_ID=5&order=1","2","107","9","1","win","go","0"
"pit-trial","88","427636","0.0-88.0","battery-v0.2","c","elianto","#d1e6df","-1","-1","-1","1","0","[]","0","3&age=8&participant_ID=5&order=1","2","108","6","2","win","no-go","1"
"pit-trial","89","432496","0.0-89.0","battery-v0.2","y","elianto","#d1e6df","32","-1","-1","0","0","[]","0","3&age=8&participant_ID=5&order=1","2","109","9","1","win","go","0"
"pit-trial","90","437359","0.0-90.0","battery-v0.2","r","elianto","#d1e6df","32","-1","-1","0","-10","[]","0","3&age=8&participant_ID=5&order=1","2","110","10","3","lose","go","0"
"pit-trial","91","442222","0.0-91.0","battery-v0.2","h","elianto","#d1e6df","-1","-1","-1","1","-10","[]","0","3&age=8&participant_ID=5&order=1","2","111","8","4","lose","no-go","1"
"pit-trial","92","447086","0.0-92.0","battery-v0.2","m","elianto","#d1e6df","32","-1","-1","0","0","[]","0","3&age=8&participant_ID=5&order=1","2","112","11","1","win","go","0"
"pit-trial","93","451953","0.0-93.0","battery-v0.2","m","elianto","#d1e6df","32","-1","-1","0","+10","[]","0","3&age=8&participant_ID=5&order=1","2","113","11","1","win","go","1"
"pit-trial","94","456821","0.0-94.0","battery-v0.2","y","elianto","#d1e6df","32","-1","-1","0","0","[]","0","3&age=8&participant_ID=5&order=1","2","114","9","1","win","go","0"
"pit-trial","95","461674","0.0-95.0","battery-v0.2","r","elianto","#d1e6df","32","-1","-1","0","0","[]","0","3&age=8&participant_ID=5&order=1","2","115","10","3","lose","go","1"
"pit-trial","96","466531","0.0-96.0","battery-v0.2","h","elianto","#d1e6df","-1","-1","-1","1","0","[]","0","3&age=8&participant_ID=5&order=1","2","116","8","4","lose","no-go","0"
"pit-trial","97","471387","0.0-97.0","battery-v0.2","h","elianto","#d1e6df","-1","-1","-1","1","0","[]","0","3&age=8&participant_ID=5&order=1","2","117","8","4","lose","no-go","0"
"pit-trial","98","476256","0.0-98.0","battery-v0.2","r","elianto","#d1e6df","32","-1","-1","0","-10","[]","0","3&age=8&participant_ID=5&order=1","2","118","10","3","lose","go","0"
"pit-trial","99","481117","0.0-99.0","battery-v0.2","m","elianto","#d1e6df","32","-1","-1","0","0","[]","0","3&age=8&participant_ID=5&order=1","2","119","11","1","win","go","0"
"pit-trial","100","485985","0.0-100.0","battery-v0.2","y","elianto","#d1e6df","32","-1","-1","0","+10","[]","0","3&age=8&participant_ID=5&order=1","2","120","9","1","win","go","1"
"pit-trial","101","491789","0.0-101.0","battery-v0.2","r","elianto","#d1e6df","32","-1","-1","0","-10","[]","0","3&age=8&participant_ID=5&order=1","2","121","10","3","lose","go","0"
"pit-trial","102","498799","0.0-102.0","battery-v0.2","m","elianto","#d1e6df","32","-1","-1","0","0","[]","0","3&age=8&participant_ID=5&order=1","2","122","11","1","win","go","0"
"pit-trial","103","505768","0.0-103.0","battery-v0.2","h","elianto","#d1e6df","-1","-1","-1","1","0","[]","0","3&age=8&participant_ID=5&order=1","2","123","8","4","lose","no-go","0"
"pit-trial","104","512123","0.0-104.0","battery-v0.2","y","elianto","#d1e6df","32","-1","-1","0","0","[]","0","3&age=8&participant_ID=5&order=1","2","124","9","1","win","go","0"
"pit-trial","105","516975","0.0-105.0","battery-v0.2","h","elianto","#d1e6df","-1","-1","-1","1","-10","[]","0","3&age=8&participant_ID=5&order=1","2","125","8","4","lose","no-go","1"
"pit-trial","106","521831","0.0-106.0","battery-v0.2","r","elianto","#d1e6df","32","-1","-1","0","0","[]","0","3&age=8&participant_ID=5&order=1","2","126","10","3","lose","go","1"
"pit-trial","107","526688","0.0-107.0","battery-v0.2","m","elianto","#d1e6df","32","-1","-1","0","0","[]","0","3&age=8&participant_ID=5&order=1","2","127","11","1","win","go","0"
"pit-trial","108","531549","0.0-108.0","battery-v0.2","y","elianto","#d1e6df","32","-1","-1","0","0","[]","0","3&age=8&participant_ID=5&order=1","2","128","9","1","win","go","0"
"pit-trial","109","536408","0.0-109.0","battery-v0.2","m","elianto","#d1e6df","32","-1","-1","0","+10","[]","0","3&age=8&participant_ID=5&order=1","2","129","11","1","win","go","1"
"pit-trial","110","541265","0.0-110.0","battery-v0.2","r","elianto","#d1e6df","32","-1","-1","0","-10","[]","0","3&age=8&participant_ID=5&order=1","2","130","10","3","lose","go","0"
"pit-trial","111","546122","0.0-111.0","battery-v0.2","y","elianto","#d1e6df","32","-1","-1","0","0","[]","0","3&age=8&participant_ID=5&order=1","2","131","9","1","win","go","0"
"pit-trial","112","550980","0.0-112.0","battery-v0.2","h","elianto","#d1e6df","-1","-1","-1","1","0","[]","0","3&age=8&participant_ID=5&order=1","2","132","8","4","lose","no-go","0"
"pit-trial","113","555841","0.0-113.0","battery-v0.2","y","elianto","#d1e6df","32","-1","-1","0","+10","[]","0","3&age=8&participant_ID=5&order=1","2","133","9","1","win","go","1"
"pit-trial","114","560698","0.0-114.0","battery-v0.2","h","elianto","#d1e6df","-1","-1","-1","1","-10","[]","0","3&age=8&participant_ID=5&order=1","2","134","8","4","lose","no-go","1"
"pit-trial","115","565557","0.0-115.0","battery-v0.2","r","elianto","#d1e6df","32","-1","-1","0","0","[]","0","3&age=8&participant_ID=5&order=1","2","135","10","3","lose","go","1"
"pit-trial","116","570418","0.0-116.0","battery-v0.2","m","elianto","#d1e6df","32","-1","-1","0","0","[]","0","3&age=8&participant_ID=5&order=1","2","136","11","1","win","go","0"
"pit-trial","117","575278","0.0-117.0","battery-v0.2","r","elianto","#d1e6df","32","-1","-1","0","-10","[]","0","3&age=8&participant_ID=5&order=1","2","137","10","3","lose","go","0"
"pit-trial","118","580141","0.0-118.0","battery-v0.2","h","elianto","#d1e6df","-1","-1","-1","1","-10","[]","0","3&age=8&participant_ID=5&order=1","2","138","8","4","lose","no-go","1"
"pit-trial","119","585003","0.0-119.0","battery-v0.2","y","elianto","#d1e6df","32","-1","-1","0","+10","[]","0","3&age=8&participant_ID=5&order=1","2","139","9","1","win","go","1"
"pit-trial","120","589861","0.0-120.0","battery-v0.2","m","elianto","#d1e6df","32","-1","-1","0","0","[]","0","3&age=8&participant_ID=5&order=1","2","140","11","1","win","go","0"
"pit-trial","121","594718","0.0-121.0","battery-v0.2","d","elianto","#d1e6df","-1","-1","-1","1","0","[]","0","3&age=8&participant_ID=5&order=1","3","141","2","4","lose","no-go","0"
"pit-trial","122","599578","0.0-122.0","battery-v0.2","v","elianto","#d1e6df","-1","-1","-1","1","+10","[]","0","3&age=8&participant_ID=5&order=1","3","142","0","2","win","no-go","0"
"pit-trial","123","604438","0.0-123.0","battery-v0.2","k","elianto","#d1e6df","32","-1","-1","0","0","[]","0","3&age=8&participant_ID=5&order=1","3","143","3","1","win","go","0"
"pit-trial","124","609298","0.0-124.0","battery-v0.2","j","elianto","#d1e6df","32","-1","-1","0","-10","[]","0","3&age=8&participant_ID=5&order=1","3","144","1","3","lose","go","0"
"pit-trial","125","614156","0.0-125.0","battery-v0.2","d","elianto","#d1e6df","-1","-1","-1","1","-10","[]","0","3&age=8&participant_ID=5&order=1","3","145","2","4","lose","no-go","1"
"pit-trial","126","619015","0.0-126.0","battery-v0.2","v","elianto","#d1e6df","-1","-1","-1","1","0","[]","0","3&age=8&participant_ID=5&order=1","3","146","0","2","win","no-go","1"
"pit-trial","127","623876","0.0-127.0","battery-v0.2","j","elianto","#d1e6df","32","-1","-1","0","-10","[]","0","3&age=8&participant_ID=5&order=1","3","147","1","3","lose","go","0"
"pit-trial","128","628738","0.0-128.0","battery-v0.2","k","elianto","#d1e6df","32","-1","-1","0","0","[]","0","3&age=8&participant_ID=5&order=1","3","148","3","1","win","go","0"
"pit-trial","129","633596","0.0-129.0","battery-v0.2","j","elianto","#d1e6df","32","-1","-1","0","-10","[]","0","3&age=8&participant_ID=5&order=1","3","149","1","3","lose","go","0"
"pit-trial","130","638458","0.0-130.0","battery-v0.2","d","elianto","#d1e6df","-1","-1","-1","1","0","[]","0","3&age=8&participant_ID=5&order=1","3","150","2","4","lose","no-go","0"
"pit-trial","131","643316","0.0-131.0","battery-v0.2","k","elianto","#d1e6df","32","-1","-1","0","+10","[]","0","3&age=8&participant_ID=5&order=1","3","151","3","1","win","go","1"
"pit-trial","132","648175","0.0-132.0","battery-v0.2","v","elianto","#d1e6df","-1","-1","-1","1","+10","[]","0","3&age=8&participant_ID=5&order=1","3","152","0","2","win","no-go","0"
"pit-trial","133","653032","0.0-133.0","battery-v0.2","d","elianto","#d1e6df","-1","-1","-1","1","0","[]","0","3&age=8&participant_ID=5&order=1","3","153","2","4","lose","no-go","0"
"pit-trial","134","657889","0.0-134.0","battery-v0.2","k","elianto","#d1e6df","32","-1","-1","0","0","[]","0","3&age=8&participant_ID=5&order=1","3","154","3","1","win","go","0"
"pit-trial","135","662744","0.0-135.0","battery-v0.2","v","elianto","#d1e6df","-1","-1","-1","1","+10","[]","0","3&age=8&participant_ID=5&order=1","3","155","0","2","win","no-go","0"
"pit-trial","136","667603","0.0-136.0","battery-v0.2","j","elianto","#d1e6df","32","-1","-1","0","-10","[]","0","3&age=8&participant_ID=5&order=1","3","156","1","3","lose","go","0"
"pit-trial","137","672463","0.0-137.0","battery-v0.2","v","elianto","#d1e6df","-1","-1","-1","1","0","[]","0","3&age=8&participant_ID=5&order=1","3","157","0","2","win","no-go","1"
"pit-trial","138","677323","0.0-138.0","battery-v0.2","d","elianto","#d1e6df","-1","-1","-1","1","0","[]","0","3&age=8&participant_ID=5&order=1","3","158","2","4","lose","no-go","0"
"pit-trial","139","682182","0.0-139.0","battery-v0.2","j","elianto","#d1e6df","32","-1","-1","0","-10","[]","0","3&age=8&participant_ID=5&order=1","3","159","1","3","lose","go","0"
"pit-trial","140","687041","0.0-140.0","battery-v0.2","k","elianto","#d1e6df","32","-1","-1","0","+10","[]","0","3&age=8&participant_ID=5&order=1","3","160","3","1","win","go","1"
"pit-trial","141","691900","0.0-141.0","battery-v0.2","k","elianto","#d1e6df","32","-1","-1","0","0","[]","0","3&age=8&participant_ID=5&order=1","3","161","3","1","win","go","0"
"pit-trial","142","696759","0.0-142.0","battery-v0.2","j","elianto","#d1e6df","32","-1","-1","0","-10","[]","0","3&age=8&participant_ID=5&order=1","3","162","1","3","lose","go","0"
"pit-trial","143","701618","0.0-143.0","battery-v0.2","d","elianto","#d1e6df","-1","-1","-1","1","0","[]","0","3&age=8&participant_ID=5&order=1","3","163","2","4","lose","no-go","0"
"pit-trial","144","706475","0.0-144.0","battery-v0.2","v","elianto","#d1e6df","-1","-1","-1","1","0","[]","0","3&age=8&participant_ID=5&order=1","3","164","0","2","win","no-go","1"
"pit-trial","145","711335","0.0-145.0","battery-v0.2","j","elianto","#d1e6df","32","-1","-1","0","-10","[]","0","3&age=8&participant_ID=5&order=1","3","165","1","3","lose","go","0"
"pit-trial","146","716194","0.0-146.0","battery-v0.2","v","elianto","#d1e6df","-1","-1","-1","1","0","[]","0","3&age=8&participant_ID=5&order=1","3","166","0","2","win","no-go","1"
"pit-trial","147","721053","0.0-147.0","battery-v0.2","d","elianto","#d1e6df","-1","-1","-1","1","0","[]","0","3&age=8&participant_ID=5&order=1","3","167","2","4","lose","no-go","0"
"pit-trial","148","725916","0.0-148.0","battery-v0.2","k","elianto","#d1e6df","32","-1","-1","0","0","[]","0","3&age=8&participant_ID=5&order=1","3","168","3","1","win","go","0"
"pit-trial","149","730775","0.0-149.0","battery-v0.2","j","elianto","#d1e6df","32","-1","-1","0","-10","[]","0","3&age=8&participant_ID=5&order=1","3","169","1","3","lose","go","0"
"pit-trial","150","735635","0.0-150.0","battery-v0.2","v","elianto","#d1e6df","-1","-1","-1","1","0","[]","0","3&age=8&participant_ID=5&order=1","3","170","0","2","win","no-go","1"
"pit-trial","151","740494","0.0-151.0","battery-v0.2","d","elianto","#d1e6df","-1","-1","-1","1","0","[]","0","3&age=8&participant_ID=5&order=1","3","171","2","4","lose","no-go","0"
"pit-trial","152","745354","0.0-152.0","battery-v0.2","k","elianto","#d1e6df","32","-1","-1","0","0","[]","0","3&age=8&participant_ID=5&order=1","3","172","3","1","win","go","0"
"pit-trial","153","750212","0.0-153.0","battery-v0.2","d","elianto","#d1e6df","-1","-1","-1","1","-10","[]","0","3&age=8&participant_ID=5&order=1","3","173","2","4","lose","no-go","1"
"pit-trial","154","755069","0.0-154.0","battery-v0.2","e","elianto","#d1e6df","32","-1","-1","0","-10","[]","0","3&age=8&participant_ID=5&order=1","3","174","4","3","lose","go","0"
"pit-trial","155","759927","0.0-155.0","battery-v0.2","w","elianto","#d1e6df","-1","-1","-1","1","0","[]","0","3&age=8&participant_ID=5&order=1","3","175","5","4","lose","no-go","0"
"pit-trial","156","764784","0.0-156.0","battery-v0.2","j","elianto","#d1e6df","32","-1","-1","0","-10","[]","0","3&age=8&participant_ID=5&order=1","3","176","1","3","lose","go","0"
"pit-trial","157","769642","0.0-157.0","battery-v0.2","e","elianto","#d1e6df","32","-1","-1","0","-10","[]","0","3&age=8&participant_ID=5&order=1","3","177","4","3","lose","go","0"
"pit-trial","158","774500","0.0-158.0","battery-v0.2","w","elianto","#d1e6df","-1","-1","-1","1","0","[]","0","3&age=8&participant_ID=5&order=1","3","178","5","4","lose","no-go","0"
"pit-trial","159","779358","0.0-159.0","battery-v0.2","j","elianto","#d1e6df","32","-1","-1","0","-10","[]","0","3&age=8&participant_ID=5&order=1","3","179","1","3","lose","go","0"
"pit-trial","160","784217","0.0-160.0","battery-v0.2","d","elianto","#d1e6df","-1","-1","-1","1","-10","[]","0","3&age=8&participant_ID=5&order=1","3","180","2","4","lose","no-go","1"
"pit-trial","161","789075","0.0-161.0","battery-v0.2","e","elianto","#d1e6df","32","-1","-1","0","-10","[]","0","3&age=8&participant_ID=5&order=1","3","181","4","3","lose","go","0"
"pit-trial","162","793932","0.0-162.0","battery-v0.2","w","elianto","#d1e6df","-1","-1","-1","1","0","[]","0","3&age=8&participant_ID=5&order=1","3","182","5","4","lose","no-go","0"
"pit-trial","163","798790","0.0-163.0","battery-v0.2","s","elianto","#d1e6df","-1","-1","-1","1","+10","[]","0","3&age=8&participant_ID=5&order=1","3","183","6","2","win","no-go","0"
"pit-trial","164","803646","0.0-164.0","battery-v0.2","d","elianto","#d1e6df","-1","-1","-1","1","-10","[]","0","3&age=8&participant_ID=5&order=1","3","184","2","4","lose","no-go","1"
"pit-trial","165","808509","0.0-165.0","battery-v0.2","d","elianto","#d1e6df","-1","-1","-1","1","0","[]","0","3&age=8&participant_ID=5&order=1","3","185","2","4","lose","no-go","0"
"pit-trial","166","813369","0.0-166.0","battery-v0.2","w","elianto","#d1e6df","-1","-1","-1","1","-10","[]","0","3&age=8&participant_ID=5&order=1","3","186","5","4","lose","no-go","1"
"pit-trial","167","818228","0.0-167.0","battery-v0.2","s","elianto","#d1e6df","-1","-1","-1","1","+10","[]","0","3&age=8&participant_ID=5&order=1","3","187","6","2","win","no-go","0"
"pit-trial","168","823085","0.0-168.0","battery-v0.2","e","elianto","#d1e6df","32","-1","-1","0","-10","[]","0","3&age=8&participant_ID=5&order=1","3","188","4","3","lose","go","0"
"pit-trial","169","827943","0.0-169.0","battery-v0.2","p","elianto","#d1e6df","32","-1","-1","0","0","[]","0","3&age=8&participant_ID=5&order=1","3","189","7","1","win","go","0"
"pit-trial","170","832807","0.0-170.0","battery-v0.2","e","elianto","#d1e6df","32","-1","-1","0","-10","[]","0","3&age=8&participant_ID=5&order=1","3","190","4","3","lose","go","0"
"pit-trial","171","837664","0.0-171.0","battery-v0.2","w","elianto","#d1e6df","-1","-1","-1","1","0","[]","0","3&age=8&participant_ID=5&order=1","3","191","5","4","lose","no-go","0"
"pit-trial","172","842520","0.0-172.0","battery-v0.2","s","elianto","#d1e6df","-1","-1","-1","1","+10","[]","0","3&age=8&participant_ID=5&order=1","3","192","6","2","win","no-go","0"
"pit-trial","173","847381","0.0-173.0","battery-v0.2","s","elianto","#d1e6df","-1","-1","-1","1","+10","[]","0","3&age=8&participant_ID=5&order=1","3","193","6","2","win","no-go","0"
"pit-trial","174","852243","0.0-174.0","battery-v0.2","w","elianto","#d1e6df","-1","-1","-1","1","0","[]","0","3&age=8&participant_ID=5&order=1","3","194","5","4","lose","no-go","0"
"pit-trial","175","857105","0.0-175.0","battery-v0.2","e","elianto","#d1e6df","32","-1","-1","0","-10","[]","0","3&age=8&participant_ID=5&order=1","3","195","4","3","lose","go","0"
"pit-trial","176","861966","0.0-176.0","battery-v0.2","p","elianto","#d1e6df","32","-1","-1","0","0","[]","0","3&age=8&participant_ID=5&order=1","3","196","7","1","win","go","0"
"pit-trial","177","866825","0.0-177.0","battery-v0.2","w","elianto","#d1e6df","-1","-1","-1","1","0","[]","0","3&age=8&participant_ID=5&order=1","3","197","5","4","lose","no-go","0"
"pit-trial","178","871685","0.0-178.0","battery-v0.2","p","elianto","#d1e6df","32","-1","-1","0","0","[]","0","3&age=8&participant_ID=5&order=1","3","198","7","1","win","go","0"
"pit-trial","179","876545","0.0-179.0","battery-v0.2","s","elianto","#d1e6df","-1","-1","-1","1","+10","[]","0","3&age=8&participant_ID=5&order=1","3","199","6","2","win","no-go","0"
"pit-trial","180","881405","0.0-180.0","battery-v0.2","e","elianto","#d1e6df","32","-1","-1","0","-10","[]","0","3&age=8&participant_ID=5&order=1","3","200","4","3","lose","go","0"
"pit-trial","181","886265","0.0-181.0","battery-v0.2","w","elianto","#d1e6df","-1","-1","-1","1","0","[]","0","3&age=8&participant_ID=5&order=1","3","201","5","4","lose","no-go","0"
"pit-trial","182","891124","0.0-182.0","battery-v0.2","s","elianto","#d1e6df","-1","-1","-1","1","+10","[]","0","3&age=8&participant_ID=5&order=1","3","202","6","2","win","no-go","0"
"pit-trial","183","895981","0.0-183.0","battery-v0.2","e","elianto","#d1e6df","32","-1","-1","0","0","[]","0","3&age=8&participant_ID=5&order=1","3","203","4","3","lose","go","1"
"pit-trial","184","900836","0.0-184.0","battery-v0.2","p","elianto","#d1e6df","32","-1","-1","0","0","[]","0","3&age=8&participant_ID=5&order=1","3","204","7","1","win","go","0"
"pit-trial","185","905692","0.0-185.0","battery-v0.2","e","elianto","#d1e6df","32","-1","-1","0","0","[]","0","3&age=8&participant_ID=5&order=1","3","205","4","3","lose","go","1"
"pit-trial","186","910551","0.0-186.0","battery-v0.2","w","elianto","#d1e6df","-1","-1","-1","1","0","[]","0","3&age=8&participant_ID=5&order=1","3","206","5","4","lose","no-go","0"
"pit-trial","187","915407","0.0-187.0","battery-v0.2","s","elianto","#d1e6df","-1","-1","-1","1","+10","[]","0","3&age=8&participant_ID=5&order=1","3","207","6","2","win","no-go","0"
"pit-trial","188","920265","0.0-188.0","battery-v0.2","p","elianto","#d1e6df","32","-1","-1","0","0","[]","0","3&age=8&participant_ID=5&order=1","3","208","7","1","win","go","0"
"pit-trial","189","925125","0.0-189.0","battery-v0.2","w","elianto","#d1e6df","-1","-1","-1","1","0","[]","0","3&age=8&participant_ID=5&order=1","3","209","5","4","lose","no-go","0"
"pit-trial","190","929985","0.0-190.0","battery-v0.2","e","elianto","#d1e6df","32","-1","-1","0","-10","[]","0","3&age=8&participant_ID=5&order=1","3","210","4","3","lose","go","0"
"pit-trial","191","934842","0.0-191.0","battery-v0.2","p","elianto","#d1e6df","32","-1","-1","0","0","[]","0","3&age=8&participant_ID=5&order=1","3","211","7","1","win","go","0"
"pit-trial","192","939701","0.0-192.0","battery-v0.2","s","elianto","#d1e6df","-1","-1","-1","1","+10","[]","0","3&age=8&participant_ID=5&order=1","3","212","6","2","win","no-go","0"
"pit-trial","193","944555","0.0-193.0","battery-v0.2","s","elianto","#d1e6df","-1","-1","-1","1","+10","[]","0","3&age=8&participant_ID=5&order=1","3","213","6","2","win","no-go","0"
"pit-trial","194","949413","0.0-194.0","battery-v0.2","g","elianto","#d1e6df","32","-1","-1","0","0","[]","0","3&age=8&participant_ID=5&order=1","3","214","8","1","win","go","0"
"pit-trial","195","954275","0.0-195.0","battery-v0.2","e","elianto","#d1e6df","32","-1","-1","0","-10","[]","0","3&age=8&participant_ID=5&order=1","3","215","4","3","lose","go","0"
"pit-trial","196","959132","0.0-196.0","battery-v0.2","p","elianto","#d1e6df","32","-1","-1","0","0","[]","0","3&age=8&participant_ID=5&order=1","3","216","7","1","win","go","0"
"pit-trial","197","963992","0.0-197.0","battery-v0.2","e","elianto","#d1e6df","32","-1","-1","0","-10","[]","0","3&age=8&participant_ID=5&order=1","3","217","4","3","lose","go","0"
"pit-trial","198","968851","0.0-198.0","battery-v0.2","p","elianto","#d1e6df","32","-1","-1","0","+10","[]","0","3&age=8&participant_ID=5&order=1","3","218","7","1","win","go","1"
"pit-trial","199","973712","0.0-199.0","battery-v0.2","s","elianto","#d1e6df","-1","-1","-1","1","0","[]","0","3&age=8&participant_ID=5&order=1","3","219","6","2","win","no-go","1"
"pit-trial","200","978570","0.0-200.0","battery-v0.2","g","elianto","#d1e6df","32","-1","-1","0","0","[]","0","3&age=8&participant_ID=5&order=1","3","220","8","1","win","go","0"
"pit-trial","201","983426","0.0-201.0","battery-v0.2","a","elianto","#d1e6df","-1","-1","-1","1","+10","[]","0","3&age=8&participant_ID=5&order=1","3","221","9","2","win","no-go","0"
"pit-trial","202","988286","0.0-202.0","battery-v0.2","s","elianto","#d1e6df","-1","-1","-1","1","+10","[]","0","3&age=8&participant_ID=5&order=1","3","222","6","2","win","no-go","0"
"pit-trial","203","993146","0.0-203.0","battery-v0.2","g","elianto","#d1e6df","32","-1","-1","0","0","[]","0","3&age=8&participant_ID=5&order=1","3","223","8","1","win","go","0"
"pit-trial","204","998005","0.0-204.0","battery-v0.2","p","elianto","#d1e6df","32","-1","-1","0","0","[]","0","3&age=8&participant_ID=5&order=1","3","224","7","1","win","go","0"
"pit-trial","205","1002866","0.0-205.0","battery-v0.2","g","elianto","#d1e6df","32","-1","-1","0","0","[]","0","3&age=8&participant_ID=5&order=1","3","225","8","1","win","go","0"
"pit-trial","206","1007725","0.0-206.0","battery-v0.2","a","elianto","#d1e6df","-1","-1","-1","1","+10","[]","0","3&age=8&participant_ID=5&order=1","3","226","9","2","win","no-go","0"
"pit-trial","207","1012586","0.0-207.0","battery-v0.2","s","elianto","#d1e6df","-1","-1","-1","1","+10","[]","0","3&age=8&participant_ID=5&order=1","3","227","6","2","win","no-go","0"
"pit-trial","208","1017446","0.0-208.0","battery-v0.2","p","elianto","#d1e6df","32","-1","-1","0","0","[]","0","3&age=8&participant_ID=5&order=1","3","228","7","1","win","go","0"
"pit-trial","209","1022306","0.0-209.0","battery-v0.2","u","elianto","#d1e6df","-1","-1","-1","1","0","[]","0","3&age=8&participant_ID=5&order=1","3","229","11","4","lose","no-go","0"
"pit-trial","210","1027165","0.0-210.0","battery-v0.2","a","elianto","#d1e6df","-1","-1","-1","1","+10","[]","0","3&age=8&participant_ID=5&order=1","3","230","9","2","win","no-go","0"
"pit-trial","211","1032024","0.0-211.0","battery-v0.2","g","elianto","#d1e6df","32","-1","-1","0","0","[]","0","3&age=8&participant_ID=5&order=1","3","231","8","1","win","go","0"
"pit-trial","212","1036883","0.0-212.0","battery-v0.2","l","elianto","#d1e6df","32","-1","-1","0","-10","[]","0","3&age=8&participant_ID=5&order=1","3","232","10","3","lose","go","0"
"pit-trial","213","1041744","0.0-213.0","battery-v0.2","g","elianto","#d1e6df","32","-1","-1","0","+10","[]","0","3&age=8&participant_ID=5&order=1","3","233","8","1","win","go","1"
"pit-trial","214","1046598","0.0-214.0","battery-v0.2","l","elianto","#d1e6df","32","-1","-1","0","-10","[]","0","3&age=8&participant_ID=5&order=1","3","234","10","3","lose","go","0"
"pit-trial","215","1051453","0.0-215.0","battery-v0.2","a","elianto","#d1e6df","-1","-1","-1","1","+10","[]","0","3&age=8&participant_ID=5&order=1","3","235","9","2","win","no-go","0"
"pit-trial","216","1056314","0.0-216.0","battery-v0.2","u","elianto","#d1e6df","-1","-1","-1","1","0","[]","0","3&age=8&participant_ID=5&order=1","3","236","11","4","lose","no-go","0"
"pit-trial","217","1061171","0.0-217.0","battery-v0.2","g","elianto","#d1e6df","32","-1","-1","0","0","[]","0","3&age=8&participant_ID=5&order=1","3","237","8","1","win","go","0"
"pit-trial","218","1066032","0.0-218.0","battery-v0.2","l","elianto","#d1e6df","32","-1","-1","0","-10","[]","0","3&age=8&participant_ID=5&order=1","3","238","10","3","lose","go","0"
"pit-trial","219","1070893","0.0-219.0","battery-v0.2","a","elianto","#d1e6df","-1","-1","-1","1","+10","[]","0","3&age=8&participant_ID=5&order=1","3","239","9","2","win","no-go","0"
"pit-trial","220","1075748","0.0-220.0","battery-v0.2","u","elianto","#d1e6df","-1","-1","-1","1","-10","[]","0","3&age=8&participant_ID=5&order=1","3","240","11","4","lose","no-go","1"
"pit-trial","221","1080605","0.0-221.0","battery-v0.2","l","elianto","#d1e6df","32","-1","-1","0","-10","[]","0","3&age=8&participant_ID=5&order=1","3","241","10","3","lose","go","0"
"pit-trial","222","1085466","0.0-222.0","battery-v0.2","a","elianto","#d1e6df","-1","-1","-1","1","+10","[]","0","3&age=8&participant_ID=5&order=1","3","242","9","2","win","no-go","0"
"pit-trial","223","1090326","0.0-223.0","battery-v0.2","g","elianto","#d1e6df","32","-1","-1","0","0","[]","0","3&age=8&participant_ID=5&order=1","3","243","8","1","win","go","0"
"pit-trial","224","1095186","0.0-224.0","battery-v0.2","u","elianto","#d1e6df","-1","-1","-1","1","0","[]","0","3&age=8&participant_ID=5&order=1","3","244","11","4","lose","no-go","0"
"pit-trial","225","1100045","0.0-225.0","battery-v0.2","u","elianto","#d1e6df","-1","-1","-1","1","0","[]","0","3&age=8&participant_ID=5&order=1","3","245","11","4","lose","no-go","0"
"pit-trial","226","1104907","0.0-226.0","battery-v0.2","l","elianto","#d1e6df","32","-1","-1","0","-10","[]","0","3&age=8&participant_ID=5&order=1","3","246","10","3","lose","go","0"
"pit-trial","227","1109767","0.0-227.0","battery-v0.2","a","elianto","#d1e6df","-1","-1","-1","1","+10","[]","0","3&age=8&participant_ID=5&order=1","3","247","9","2","win","no-go","0"
"pit-trial","228","1114627","0.0-228.0","battery-v0.2","g","elianto","#d1e6df","32","-1","-1","0","0","[]","0","3&age=8&participant_ID=5&order=1","3","248","8","1","win","go","0"
"pit-trial","229","1119485","0.0-229.0","battery-v0.2","u","elianto","#d1e6df","-1","-1","-1","1","-10","[]","0","3&age=8&participant_ID=5&order=1","3","249","11","4","lose","no-go","1"
"pit-trial","230","1124341","0.0-230.0","battery-v0.2","g","elianto","#d1e6df","32","-1","-1","0","0","[]","0","3&age=8&participant_ID=5&order=1","3","250","8","1","win","go","0"
"pit-trial","231","1129200","0.0-231.0","battery-v0.2","l","elianto","#d1e6df","32","-1","-1","0","-10","[]","0","3&age=8&participant_ID=5&order=1","3","251","10","3","lose","go","0"
"pit-trial","232","1134059","0.0-232.0","battery-v0.2","a","elianto","#d1e6df","-1","-1","-1","1","+10","[]","0","3&age=8&participant_ID=5&order=1","3","252","9","2","win","no-go","0"
"pit-trial","233","1138917","0.0-233.0","battery-v0.2","a","elianto","#d1e6df","-1","-1","-1","1","+10","[]","0","3&age=8&participant_ID=5&order=1","3","253","9","2","win","no-go","0"
"pit-trial","234","1143776","0.0-234.0","battery-v0.2","l","elianto","#d1e6df","32","-1","-1","0","0","[]","0","3&age=8&participant_ID=5&order=1","3","254","10","3","lose","go","1"
"pit-trial","235","1148635","0.0-235.0","battery-v0.2","u","elianto","#d1e6df","-1","-1","-1","1","0","[]","0","3&age=8&participant_ID=5&order=1","3","255","11","4","lose","no-go","0"
"pit-trial","236","1153497","0.0-236.0","battery-v0.2","g","elianto","#d1e6df","32","-1","-1","0","0","[]","0","3&age=8&participant_ID=5&order=1","3","256","8","1","win","go","0"
"pit-trial","237","1158354","0.0-237.0","battery-v0.2","l","elianto","#d1e6df","32","-1","-1","0","0","[]","0","3&age=8&participant_ID=5&order=1","3","257","10","3","lose","go","1"
"pit-trial","238","1163211","0.0-238.0","battery-v0.2","a","elianto","#d1e6df","-1","-1","-1","1","0","[]","0","3&age=8&participant_ID=5&order=1","3","258","9","2","win","no-go","1"
"pit-trial","239","1168070","0.0-239.0","battery-v0.2","u","elianto","#d1e6df","-1","-1","-1","1","0","[]","0","3&age=8&participant_ID=5&order=1","3","259","11","4","lose","no-go","0"
"pit-trial","240","1172930","0.0-240.0","battery-v0.2","g","elianto","#d1e6df","32","-1","-1","0","0","[]","0","3&age=8&participant_ID=5&order=1","3","260","8","1","win","go","0"
