"trial_type","trial_index","time_elapsed","internal_node_id","task_version","view_history","rt","rune","rune_set","hex","correct","choice","accuracy","outcome","keys","total_keys","block","practice","value","responses","num_errors","sub","trial","stimulus","robot","valence","action","sham"
"pavlovia","0","44","0.0-0.0","battery-v0.2","","","","","","","","","","","","","","","","","","","","","","",""
"pit-instructions","1","100347","0.0-1.0-0.0","battery-v0.2","[{""page_index"":0,""viewing_time"":25959.900000016205},{""page_index"":1,""viewing_time"":16383.325000060722},{""page_index"":2,""viewing_time"":7624.119999934919},{""page_index"":3,""viewing_time"":7023.730000015348},{""page_index"":4,""viewing_time"":7831.955000059679},{""page_index"":5,""viewing_time"":4400.0649999361485},{""page_index"":6,""viewing_time"":5591.735000023618},{""page_index"":7,""viewing_time"":11656.034999992698},{""page_index"":8,""viewing_time"":7631.79500005208},{""page_index"":9,""viewing_time"":6192.214999930002}]","100296.27000004984","","","","","","","","","","","","","","","","","","","","",""
"pit-trial","2","104354","0.0-1.0-1.0-0.0","battery-v0.2","","-1","1","elianto","#3366ff99","32","-1","0","+1","","0","0","1","","","","","","","","","",""
"pit-trial","3","107667","0.0-1.0-1.1-0.1","battery-v0.2","","607.5000000419095","1","elianto","#3366ff99","32","32","1","+10","2107.7799999620765","1","0","1","","","","","","","","","",""
"pit-trial","4","111673","0.0-1.0-1.2-0.2","battery-v0.2","","-1","1","elianto","#3366ff99","32","-1","0","+1","3579.6400000108406","1","0","1","","","","","","","","","",""
"pit-trial","5","114955","0.0-1.0-1.3-0.3","battery-v0.2","","577.5449998909608","1","elianto","#3366ff99","32","32","1","+10","2077.6649999897927","1","0","1","","","","","","","","","",""
"pit-trial","6","118690","0.0-1.0-1.4-0.4","battery-v0.2","","1029.0449999738485","1","elianto","#3366ff99","32","32","1","+10","2529.5949999708682","1","0","1","","","","","","","","","",""
"pit-trial","7","122563","0.0-1.0-1.5-0.5","battery-v0.2","","1168.8700000522658","1","elianto","#3366ff99","32","32","1","+10","2669.065000023693","1","0","1","","","","","","","","","",""
"call-function","8","122565","0.0-1.0-2.0","battery-v0.2","","","","","","","","","","","","","","","","","","","","","","",""
"pit-instructions","9","133281","0.0-1.0-3.0","battery-v0.2","[{""page_index"":0,""viewing_time"":6690.2850000187755},{""page_index"":1,""viewing_time"":4023.934999946505}]","10714.70499993302","","","","","","","","","","","","","","","","","","","","",""
"pit-trial","10","137286","0.0-1.0-4.0-0.0","battery-v0.2","","-1","2","elianto","#3366ff99","-1","-1","1","+10","","0","0","2","","","","","","","","","",""
"pit-trial","11","141290","0.0-1.0-4.1-0.1","battery-v0.2","","-1","2","elianto","#3366ff99","-1","-1","1","+10","","0","0","2","","","","","","","","","",""
"pit-trial","12","145294","0.0-1.0-4.2-0.2","battery-v0.2","","-1","2","elianto","#3366ff99","-1","-1","1","+10","","0","0","2","","","","","","","","","",""
"pit-trial","13","149297","0.0-1.0-4.3-0.3","battery-v0.2","","-1","2","elianto","#3366ff99","-1","-1","1","+10","","0","0","2","","","","","","","","","",""
"call-function","14","149299","0.0-1.0-5.0","battery-v0.2","","","","","","","","","","","","","","","","","","","","","","",""
"pit-instructions","15","161881","0.0-1.0-6.0","battery-v0.2","[{""page_index"":0,""viewing_time"":7508.215000038035},{""page_index"":1,""viewing_time"":5071.8549999874085}]","12580.550000071526","","","","","","","","","","","","","","","","","","","","",""
"pit-trial","16","165886","0.0-1.0-7.0-0.0","battery-v0.2","","-1","3","elianto","#f73b6a7A","-1","-1","1","-1","3301.420000032522","1","0","3","","","","","","","","","",""
"pit-trial","17","169026","0.0-1.0-7.1-0.1","battery-v0.2","","433.6050000274554","3","elianto","#f73b6a7A","-1","32","0","-10","1935.440000030212","1","0","3","","","","","","","","","",""
"pit-trial","18","173030","0.0-1.0-7.2-0.2","battery-v0.2","","-1","3","elianto","#f73b6a7A","-1","-1","1","-1","","0","0","3","","","","","","","","","",""
"pit-trial","19","176745","0.0-1.0-7.3-0.3","battery-v0.2","","1010.8649999601766","3","elianto","#f73b6a7A","-1","32","0","-10","2511.030000052415","1","0","3","","","","","","","","","",""
"pit-trial","20","180562","0.0-1.0-7.4-0.4","battery-v0.2","","1112.3999999836087","3","elianto","#f73b6a7A","-1","32","0","-10","2612.72000009194","1","0","3","","","","","","","","","",""
"pit-trial","21","184567","0.0-1.0-7.5-0.5","battery-v0.2","","-1","3","elianto","#f73b6a7A","-1","-1","1","-1","","0","0","3","","","","","","","","","",""
"pit-trial","22","187400","0.0-1.0-7.6-0.6","battery-v0.2","","129.8550000647083","3","elianto","#f73b6a7A","-1","32","0","-10","1630.4199999431148","1","0","3","","","","","","","","","",""
"pit-trial","23","190641","0.0-1.0-7.7-0.7","battery-v0.2","","535.9600000083447","3","elianto","#f73b6a7A","-1","32","0","-10","1040.140000055544,2037.1300000697374","2","0","3","","","","","","","","","",""
"pit-trial","24","193858","0.0-1.0-7.8-0.8","battery-v0.2","","511.00999990012497","3","elianto","#f73b6a7A","-1","32","0","-10","2012.324999901466","1","0","3","","","","","","","","","",""
"pit-trial","25","197273","0.0-1.0-7.9-0.9","battery-v0.2","","709.4050000887364","3","elianto","#f73b6a7A","-1","32","0","-10","2211.2649999326095","1","0","3","","","","","","","","","",""
"pit-trial","26","201278","0.0-1.0-7.10-0.10","battery-v0.2","","-1","3","elianto","#f73b6a7A","-1","-1","1","-1","","0","0","3","","","","","","","","","",""
"pit-trial","27","204572","0.0-1.0-7.11-0.11","battery-v0.2","","589.159999974072","3","elianto","#f73b6a7A","-1","32","0","-10","2089.795000036247","1","0","3","","","","","","","","","",""
"pit-trial","28","208441","0.0-1.0-7.12-0.12","battery-v0.2","","1163.6550000403076","3","elianto","#f73b6a7A","-1","32","0","-10","2665.4249998973683","1","0","3","","","","","","","","","",""
"pit-trial","29","212445","0.0-1.0-7.13-0.13","battery-v0.2","","-1","3","elianto","#f73b6a7A","-1","-1","1","-1","","0","0","3","","","","","","","","","",""
"pit-trial","30","215355","0.0-1.0-7.14-0.14","battery-v0.2","","203.60499992966652","3","elianto","#f73b6a7A","-1","32","0","-10","1705.03000007011","1","0","3","","","","","","","","","",""
"pit-trial","31","218561","0.0-1.0-7.15-0.15","battery-v0.2","","500.27999992016703","3","elianto","#f73b6a7A","-1","32","0","-10","851.8150000600144,1490.455000079237,2002.1750000305474","3","0","3","","","","","","","","","",""
"pit-trial","32","222566","0.0-1.0-7.16-0.16","battery-v0.2","","-1","3","elianto","#f73b6a7A","-1","-1","1","-1","1492.714999942109","1","0","3","","","","","","","","","",""
"pit-trial","33","226571","0.0-1.0-7.17-0.17","battery-v0.2","","-1","3","elianto","#f73b6a7A","-1","-1","1","-1","","0","0","3","","","","","","","","","",""
"pit-trial","34","230576","0.0-1.0-7.18-0.18","battery-v0.2","","-1","3","elianto","#f73b6a7A","-1","-1","1","-1","","0","0","3","","","","","","","","","",""
"call-function","35","230577","0.0-1.0-8.0","battery-v0.2","","","","","","","","","","","","","","","","","","","","","","",""
"pit-instructions","36","249464","0.0-1.0-9.0","battery-v0.2","[{""page_index"":0,""viewing_time"":8733.155000023544},{""page_index"":1,""viewing_time"":10151.975000044331}]","18885.624999995343","","","","","","","","","","","","","","","","","","","","",""
"pit-trial","37","253467","0.0-1.0-10.0-0.0","battery-v0.2","","-1","4","elianto","#f73b6a7A","32","-1","0","-10","","0","0","4","","","","","","","","","",""
"pit-trial","38","256528","0.0-1.0-10.1-0.1","battery-v0.2","","355.66999996080995","4","elianto","#f73b6a7A","32","32","1","-1","1857.2700000368059","1","0","4","","","","","","","","","",""
"pit-trial","39","260533","0.0-1.0-10.2-0.2","battery-v0.2","","-1","4","elianto","#f73b6a7A","32","-1","0","-10","1436.5499999839813","1","0","4","","","","","","","","","",""
"pit-trial","40","263464","0.0-1.0-10.3-0.3","battery-v0.2","","227.6350000174716","4","elianto","#f73b6a7A","32","32","1","-1","1727.989999926649","1","0","4","","","","","","","","","",""
"pit-trial","41","266672","0.0-1.0-10.4-0.4","battery-v0.2","","503.3500000135973","4","elianto","#f73b6a7A","32","32","1","-1","2003.385000047274","1","0","4","","","","","","","","","",""
"pit-trial","42","269504","0.0-1.0-10.5-0.5","battery-v0.2","","127.779999980703","4","elianto","#f73b6a7A","32","32","1","-1","1628.2800000626594","1","0","4","","","","","","","","","",""
"call-function","43","269506","0.0-1.0-11.0","battery-v0.2","","","","","","","","","","","","","","","","","","","","","","",""
"pit-instructions","44","303271","0.0-1.0-12.0","battery-v0.2","[{""page_index"":0,""viewing_time"":3532.6399999903515},{""page_index"":1,""viewing_time"":4695.9299999289215},{""page_index"":2,""viewing_time"":10383.905000053346},{""page_index"":3,""viewing_time"":5767.735000001267},{""page_index"":4,""viewing_time"":6280.090000014752},{""page_index"":5,""viewing_time"":3103.6999999778345}]","33764.480000012554","","","","","","","","","","","","","","","","","","","","",""
"pit-comprehension","45","330168","0.0-1.0-13.0","battery-v0.2","","26893.38499994483","","","","","","","","","","","","","Press SPACE,+10,-1,True,True","0","","","","","","",""
"pit-instructions","46","339110","0.0-2.0","battery-v0.2","[{""page_index"":0,""viewing_time"":2897.6100001018494},{""page_index"":1,""viewing_time"":6039.909999934025}]","8938.020000001416","","","","","","","","","","","","","","","","","","","","",""
"pit-trial","47","342847","0.0-3.0","battery-v0.2","","1024.2750000907108","F","elianto","#3366ff99","32","32","1","+10","2527.130000060424","1","1","","","","","131","1","2","1","win","go","0"
"pit-trial","48","346852","0.0-4.0","battery-v0.2","","-1","Q","elianto","#3366ff99","-1","-1","1","+1","1444.1200000001118","1","1","","","","","131","2","0","2","win","no-go","1"
"pit-trial","49","350857","0.0-5.0","battery-v0.2","","-1","N","elianto","#3366ff99","-1","-1","1","+1","","0","1","","","","","131","3","1","2","win","no-go","1"
"pit-trial","50","353663","0.0-6.0","battery-v0.2","","99.2349999723956","X","elianto","#f73b6a7A","32","32","1","-1","1602.2349999984726","1","1","","","","","131","4","3","3","lose","go","0"
"pit-trial","51","356455","0.0-7.0","battery-v0.2","","86.86000003945082","F","elianto","#3366ff99","32","32","1","+10","1587.6550000393763","1","1","","","","","131","5","2","1","win","go","0"
"pit-trial","52","359414","0.0-8.0","battery-v0.2","","255.24500000756234","Q","elianto","#3366ff99","-1","32","0","+1","1755.8049999643117","1","1","","","","","131","6","0","2","win","no-go","0"
"pit-trial","53","362703","0.0-9.0","battery-v0.2","","583.4599999943748","N","elianto","#3366ff99","-1","32","0","+1","2084.3500000191852","1","1","","","","","131","7","1","2","win","no-go","0"
"pit-trial","54","366708","0.0-10.0","battery-v0.2","","-1","X","elianto","#f73b6a7A","32","-1","0","-10","1123.7399999517947","1","1","","","","","131","8","3","3","lose","go","0"
"pit-trial","55","370712","0.0-11.0","battery-v0.2","","-1","F","elianto","#3366ff99","32","-1","0","+10","","0","1","","","","","131","9","2","1","win","go","1"
"pit-trial","56","374111","0.0-12.0","battery-v0.2","","691.605000058189","N","elianto","#3366ff99","-1","32","0","+10","2192.4150000559166","1","1","","","","","131","10","1","2","win","no-go","1"
"pit-trial","57","378116","0.0-13.0","battery-v0.2","","-1","X","elianto","#f73b6a7A","32","-1","0","-10","","0","1","","","","","131","11","3","3","lose","go","0"
"pit-trial","58","381200","0.0-14.0","battery-v0.2","","379.9499999731779","Q","elianto","#3366ff99","-1","32","0","+1","1880.2150000119582","1","1","","","","","131","12","0","2","win","no-go","0"
"pit-trial","59","385206","0.0-15.0","battery-v0.2","","-1","Q","elianto","#3366ff99","-1","-1","1","+10","2890.7700000563636","1","1","","","","","131","13","0","2","win","no-go","0"
"pit-trial","60","388320","0.0-16.0","battery-v0.2","","408.835000009276","F","elianto","#3366ff99","32","32","1","+10","1909.4249999616295","1","1","","","","","131","14","2","1","win","go","0"
"pit-trial","61","391241","0.0-17.0","battery-v0.2","","214.91999994032085","N","elianto","#3366ff99","-1","32","0","+1","1715.8699999563396","1","1","","","","","131","15","1","2","win","no-go","0"
"pit-trial","62","395247","0.0-18.0","battery-v0.2","","-1","X","elianto","#f73b6a7A","32","-1","0","-10","1377.89000000339,3497.8650000412017","2","1","","","","","131","16","3","3","lose","go","0"
"pit-trial","63","399252","0.0-19.0","battery-v0.2","","-1","X","elianto","#f73b6a7A","32","-1","0","-10","1244.3149999016896","1","1","","","","","131","17","3","3","lose","go","0"
"pit-trial","64","403258","0.0-20.0","battery-v0.2","","-1","N","elianto","#3366ff99","-1","-1","1","+10","1287.6449999166653","1","1","","","","","131","18","1","2","win","no-go","0"
"pit-trial","65","407262","0.0-21.0","battery-v0.2","","-1","Q","elianto","#3366ff99","-1","-1","1","+10","1401.575000025332","1","1","","","","","131","19","0","2","win","no-go","0"
"pit-trial","66","410038","0.0-22.0","battery-v0.2","","72.48500001151115","F","elianto","#3366ff99","32","32","1","+10","1572.9000000283122","1","1","","","","","131","20","2","1","win","go","0"
"pit-trial","67","414042","0.0-23.0","battery-v0.2","","-1","N","elianto","#3366ff99","-1","-1","1","+10","1430.6649999925867","1","1","","","","","131","21","1","2","win","no-go","0"
"pit-trial","68","416919","0.0-24.0","battery-v0.2","","171.29999992903322","Q","elianto","#3366ff99","-1","32","0","+1","1672.484999988228","1","1","","","","","131","22","0","2","win","no-go","0"
"pit-trial","69","420924","0.0-25.0","battery-v0.2","","-1","F","elianto","#3366ff99","32","-1","0","+1","","0","1","","","","","131","23","2","1","win","go","0"
"pit-trial","70","424151","0.0-26.0","battery-v0.2","","521.805000025779","X","elianto","#f73b6a7A","32","32","1","-1","2023.4700000146404","1","1","","","","","131","24","3","3","lose","go","0"
"pit-trial","71","427174","0.0-27.0","battery-v0.2","","318.97500006016344","Q","elianto","#3366ff99","-1","32","0","+1","1819.2550000967458","1","1","","","","","131","25","0","2","win","no-go","0"
"pit-trial","72","430694","0.0-28.0","battery-v0.2","","813.0599999567494","X","elianto","#f73b6a7A","32","32","1","-1","2315.6350000062957","1","1","","","","","131","26","3","3","lose","go","0"
"pit-trial","73","433990","0.0-29.0","battery-v0.2","","590.8249999629334","N","elianto","#3366ff99","-1","32","0","+10","2091.8050000909716","1","1","","","","","131","27","1","2","win","no-go","1"
"pit-trial","74","437247","0.0-30.0","battery-v0.2","","551.7399999080226","F","elianto","#3366ff99","32","32","1","+10","2052.7449999935925","1","1","","","","","131","28","2","1","win","go","0"
"pit-trial","75","440286","0.0-31.0","battery-v0.2","","333.48999998997897","N","elianto","#3366ff99","-1","32","0","+1","1835.230000084266","1","1","","","","","131","29","1","2","win","no-go","0"
"pit-trial","76","443686","0.0-32.0","battery-v0.2","","693.0750000756234","Q","elianto","#3366ff99","-1","32","0","+1","2195.5249999882653","1","1","","","","","131","30","0","2","win","no-go","0"
"pit-trial","77","447182","0.0-33.0","battery-v0.2","","790.5199999222532","F","elianto","#3366ff99","32","32","1","+10","2291.8899999931455","1","1","","","","","131","31","2","1","win","go","0"
"pit-trial","78","450465","0.0-34.0","battery-v0.2","","576.4799999305978","X","elianto","#f73b6a7A","32","32","1","-1","2077.835000003688","1","1","","","","","131","32","3","3","lose","go","0"
"pit-trial","79","453870","0.0-35.0","battery-v0.2","","700.1999999629334","F","elianto","#3366ff99","32","32","1","+10","2200.855000060983","1","1","","","","","131","33","2","1","win","go","0"
"pit-trial","80","457742","0.0-36.0","battery-v0.2","","1167.574999970384","Q","elianto","#3366ff99","-1","32","0","+1","2667.5950000062585","1","1","","","","","131","34","0","2","win","no-go","0"
"pit-trial","81","461071","0.0-37.0","battery-v0.2","","624.1700000828132","B","elianto","#f73b6a7A","32","32","1","-1","2125.260000000708","1","1","","","","","131","35","5","3","lose","go","0"
"pit-trial","82","464094","0.0-38.0","battery-v0.2","","317.81499995850027","T","elianto","#f73b6a7A","-1","32","0","-10","1818.2350000133738","1","1","","","","","131","36","4","4","lose","no-go","0"
"pit-trial","83","467606","0.0-39.0","battery-v0.2","","806.5799999749288","Q","elianto","#3366ff99","-1","32","0","+1","2307.5800000224262","1","1","","","","","131","37","0","2","win","no-go","0"
"pit-trial","84","471295","0.0-40.0","battery-v0.2","","983.295000041835","T","elianto","#f73b6a7A","-1","32","0","-10","2484.345000004396","1","1","","","","","131","38","4","4","lose","no-go","0"
"pit-trial","85","474733","0.0-41.0","battery-v0.2","","731.5649999072775","B","elianto","#f73b6a7A","32","32","1","-1","2234.6149999648333","1","1","","","","","131","39","5","3","lose","go","0"
"pit-trial","86","478738","0.0-42.0","battery-v0.2","","-1","F","elianto","#3366ff99","32","-1","0","+10","","0","1","","","","","131","40","2","1","win","go","1"
"pit-trial","87","482743","0.0-43.0","battery-v0.2","","-1","T","elianto","#f73b6a7A","-1","-1","1","-1","","0","1","","","","","131","41","4","4","lose","no-go","0"
"pit-trial","88","486263","0.0-44.0","battery-v0.2","","814.4800000591204","B","elianto","#f73b6a7A","32","32","1","-1","2315.335000050254","1","1","","","","","131","42","5","3","lose","go","0"
"pit-trial","89","490007","0.0-45.0","battery-v0.2","","1038.7599999085069","C","elianto","#3366ff99","-1","32","0","+10","2539.37999997288","1","1","","","","","131","43","6","2","win","no-go","1"
"pit-trial","90","494012","0.0-46.0","battery-v0.2","","-1","F","elianto","#3366ff99","32","-1","0","+1","3194.480000063777","1","1","","","","","131","44","2","1","win","go","0"
"pit-trial","91","498017","0.0-47.0","battery-v0.2","","-1","B","elianto","#f73b6a7A","32","-1","0","-10","","0","1","","","","","131","45","5","3","lose","go","0"
"pit-trial","92","502022","0.0-48.0","battery-v0.2","","-1","C","elianto","#3366ff99","-1","-1","1","+10","1129.0950000984594","1","1","","","","","131","46","6","2","win","no-go","0"
"pit-trial","93","505197","0.0-49.0","battery-v0.2","","470.79500008840114","F","elianto","#3366ff99","32","32","1","+1","1971.2900000158697","1","1","","","","","131","47","2","1","win","go","1"
"pit-trial","94","508309","0.0-50.0","battery-v0.2","","407.94499998446554","T","elianto","#f73b6a7A","-1","32","0","-10","1908.0400000093505","1","1","","","","","131","48","4","4","lose","no-go","0"
"pit-trial","95","511182","0.0-51.0","battery-v0.2","","168.16000000108033","B","elianto","#f73b6a7A","32","32","1","-1","1669.0400000661612","1","1","","","","","131","49","5","3","lose","go","0"
"pit-trial","96","514782","0.0-52.0","battery-v0.2","","894.7149999439716","C","elianto","#3366ff99","-1","32","0","+1","2395.1649999944493","1","1","","","","","131","50","6","2","win","no-go","0"
"pit-trial","97","518786","0.0-53.0","battery-v0.2","","-1","T","elianto","#f73b6a7A","-1","-1","1","-1","","0","1","","","","","131","51","4","4","lose","no-go","0"
"pit-trial","98","521814","0.0-54.0","battery-v0.2","","323.86000000406057","Z","elianto","#f73b6a7A","-1","32","0","-10","471.24000010080636,1824.860000051558","2","1","","","","","131","52","7","4","lose","no-go","0"
"pit-trial","99","525670","0.0-55.0","battery-v0.2","","1149.3349999655038","C","elianto","#3366ff99","-1","32","0","+1","2651.025000028312","1","1","","","","","131","53","6","2","win","no-go","0"
"pit-trial","100","529318","0.0-56.0","battery-v0.2","","942.685000016354","B","elianto","#f73b6a7A","32","32","1","-10","2443.6850000638515","1","1","","","","","131","54","5","3","lose","go","1"
"pit-trial","101","533323","0.0-57.0","battery-v0.2","","-1","Z","elianto","#f73b6a7A","-1","-1","1","-1","2868.6699999962","1","1","","","","","131","55","7","4","lose","no-go","0"
"pit-trial","102","536837","0.0-58.0","battery-v0.2","","810.230000060983","T","elianto","#f73b6a7A","-1","32","0","-10","2310.5199999408796","1","1","","","","","131","56","4","4","lose","no-go","0"
"pit-trial","103","540842","0.0-59.0","battery-v0.2","","-1","B","elianto","#f73b6a7A","32","-1","0","-1","","0","1","","","","","131","57","5","3","lose","go","1"
"pit-trial","104","544238","0.0-60.0","battery-v0.2","","691.9299999717623","C","elianto","#3366ff99","-1","32","0","+1","2192.589999991469","1","1","","","","","131","58","6","2","win","no-go","0"
"pit-trial","105","548243","0.0-61.0","battery-v0.2","","-1","T","elianto","#f73b6a7A","-1","-1","1","-1","2866.5050000417978","1","1","","","","","131","59","4","4","lose","no-go","0"
"pit-trial","106","552249","0.0-62.0","battery-v0.2","","-1","Z","elianto","#f73b6a7A","-1","-1","1","-1","","0","1","","","","","131","60","7","4","lose","no-go","0"
"pit-trial","107","555102","0.0-63.0","battery-v0.2","","148.69499998167157","Z","elianto","#f73b6a7A","-1","32","0","-10","113.86000004131347,1648.8499999977648","2","1","","","","","131","61","7","4","lose","no-go","0"
"pit-trial","108","557910","0.0-64.0","battery-v0.2","","101.51499998755753","T","elianto","#f73b6a7A","-1","32","0","-10","1603.4200000576675","1","1","","","","","131","62","4","4","lose","no-go","0"
"pit-trial","109","561748","0.0-65.0","battery-v0.2","","1133.94500000868","C","elianto","#3366ff99","-1","32","0","+1","2634.48500004597","1","1","","","","","131","63","6","2","win","no-go","0"
"pit-trial","110","565752","0.0-66.0","battery-v0.2","","-1","B","elianto","#f73b6a7A","32","-1","0","-10","","0","1","","","","","131","64","5","3","lose","go","0"
"pit-trial","111","569388","0.0-67.0","battery-v0.2","","932.5399999506772","B","elianto","#f73b6a7A","32","32","1","-1","1499.3450000183657,2432.6949999667704","2","1","","","","","131","65","5","3","lose","go","0"
"pit-trial","112","573399","0.0-68.0","battery-v0.2","","-1","T","elianto","#f73b6a7A","-1","-1","1","-1","1431.7950000986457,2808.5500000743195","2","1","","","","","131","66","4","4","lose","no-go","0"
"pit-trial","113","577403","0.0-69.0","battery-v0.2","","-1","Z","elianto","#f73b6a7A","-1","-1","1","-1","","0","1","","","","","131","67","7","4","lose","no-go","0"
"pit-trial","114","581408","0.0-70.0","battery-v0.2","","-1","C","elianto","#3366ff99","-1","-1","1","+10","1406.929999939166","1","1","","","","","131","68","6","2","win","no-go","0"
"pit-trial","115","584661","0.0-71.0","battery-v0.2","","549.1000000620261","Z","elianto","#f73b6a7A","-1","32","0","-10","2050.150000024587","1","1","","","","","131","69","7","4","lose","no-go","0"
"pit-trial","116","588666","0.0-72.0","battery-v0.2","","-1","B","elianto","#f73b6a7A","32","-1","0","-1","","0","1","","","","","131","70","5","3","lose","go","1"
"pit-trial","117","592671","0.0-73.0","battery-v0.2","","-1","T","elianto","#f73b6a7A","-1","-1","1","-1","3071.62500009872","1","1","","","","","131","71","4","4","lose","no-go","0"
"pit-trial","118","596676","0.0-74.0","battery-v0.2","","-1","C","elianto","#3366ff99","-1","-1","1","+10","1305.5499999318272","1","1","","","","","131","72","6","2","win","no-go","0"
"pit-trial","119","599876","0.0-75.0","battery-v0.2","","495.7050000084564","C","elianto","#3366ff99","-1","32","0","+1","1996.2349999696016","1","1","","","","","131","73","6","2","win","no-go","0"
"pit-trial","120","603326","0.0-76.0","battery-v0.2","","744.1600000020117","H","elianto","#f73b6a7A","-1","32","0","-10","2244.814999983646","1","1","","","","","131","74","8","4","lose","no-go","0"
"pit-trial","121","607330","0.0-77.0","battery-v0.2","","-1","Z","elianto","#f73b6a7A","-1","-1","1","-1","","0","1","","","","","131","75","7","4","lose","no-go","0"
"pit-trial","122","610588","0.0-78.0","battery-v0.2","","553.4000000916421","B","elianto","#f73b6a7A","32","32","1","-10","2054.3049999978393","1","1","","","","","131","76","5","3","lose","go","1"
"pit-trial","123","614197","0.0-79.0","battery-v0.2","","904.5199999818578","C","elianto","#3366ff99","-1","32","0","+1","2405.0999999744818","1","1","","","","","131","77","6","2","win","no-go","0"
"pit-trial","124","618202","0.0-80.0","battery-v0.2","","-1","H","elianto","#f73b6a7A","-1","-1","1","-1","","0","1","","","","","131","78","8","4","lose","no-go","0"
"pit-trial","125","622207","0.0-81.0","battery-v0.2","","-1","Z","elianto","#f73b6a7A","-1","-1","1","-1","","0","1","","","","","131","79","7","4","lose","no-go","0"
"pit-trial","126","626211","0.0-82.0","battery-v0.2","","-1","B","elianto","#f73b6a7A","32","-1","0","-1","2953.6800000350922","1","1","","","","","131","80","5","3","lose","go","1"
"pit-trial","127","630216","0.0-83.0","battery-v0.2","","-1","R","elianto","#f73b6a7A","32","-1","0","-10","","0","1","","","","","131","81","10","3","lose","go","0"
"pit-trial","128","634221","0.0-84.0","battery-v0.2","","-1","C","elianto","#3366ff99","-1","-1","1","+10","3767.4600000027567","1","1","","","","","131","82","6","2","win","no-go","0"
"pit-trial","129","638226","0.0-85.0","battery-v0.2","","-1","H","elianto","#f73b6a7A","-1","-1","1","-1","","0","1","","","","","131","83","8","4","lose","no-go","0"
"pit-trial","130","641612","0.0-86.0","battery-v0.2","","680.6000000797212","Y","elianto","#3366ff99","32","32","1","+1","2182.53500002902","1","1","","","","","131","84","9","1","win","go","1"
"pit-trial","131","645617","0.0-87.0","battery-v0.2","","-1","H","elianto","#f73b6a7A","-1","-1","1","-1","","0","1","","","","","131","85","8","4","lose","no-go","0"
"pit-trial","132","649622","0.0-88.0","battery-v0.2","","-1","C","elianto","#3366ff99","-1","-1","1","+1","2893.8700000289828","1","1","","","","","131","86","6","2","win","no-go","1"
"pit-trial","133","652556","0.0-89.0","battery-v0.2","","229.52000005170703","Y","elianto","#3366ff99","32","32","1","+10","1730.1199999637902","1","1","","","","","131","87","9","1","win","go","0"
"pit-trial","134","655618","0.0-90.0","battery-v0.2","","358.19000005722046","R","elianto","#f73b6a7A","32","32","1","-1","1859.0199999744073","1","1","","","","","131","88","10","3","lose","go","0"
"pit-trial","135","658579","0.0-91.0","battery-v0.2","","256.7349999444559","M","elianto","#3366ff99","32","32","1","+10","1757.480000029318","1","1","","","","","131","89","11","1","win","go","0"
"pit-trial","136","662584","0.0-92.0","battery-v0.2","","-1","H","elianto","#f73b6a7A","-1","-1","1","-1","","0","1","","","","","131","90","8","4","lose","no-go","0"
"pit-trial","137","665395","0.0-93.0","battery-v0.2","","107.14999993797392","Y","elianto","#3366ff99","32","32","1","+10","1607.895000022836","1","1","","","","","131","91","9","1","win","go","0"
"pit-trial","138","669400","0.0-94.0","battery-v0.2","","-1","R","elianto","#f73b6a7A","32","-1","0","-1","","0","1","","","","","131","92","10","3","lose","go","1"
"pit-trial","139","672371","0.0-95.0","battery-v0.2","","265.05000004544854","Y","elianto","#3366ff99","32","32","1","+10","1766.6000000899658","1","1","","","","","131","93","9","1","win","go","0"
"pit-trial","140","676375","0.0-96.0","battery-v0.2","","-1","R","elianto","#f73b6a7A","32","-1","0","-10","","0","1","","","","","131","94","10","3","lose","go","0"
"pit-trial","141","679781","0.0-97.0","battery-v0.2","","700.5150000331923","H","elianto","#f73b6a7A","-1","32","0","-10","2200.925000011921","1","1","","","","","131","95","8","4","lose","no-go","0"
"pit-trial","142","683139","0.0-98.0","battery-v0.2","","653.1849999446422","M","elianto","#3366ff99","32","32","1","+10","2154.3199999723583","1","1","","","","","131","96","11","1","win","go","0"
"pit-trial","143","687144","0.0-99.0","battery-v0.2","","-1","R","elianto","#f73b6a7A","32","-1","0","-1","","0","1","","","","","131","97","10","3","lose","go","1"
"pit-trial","144","691148","0.0-100.0","battery-v0.2","","-1","H","elianto","#f73b6a7A","-1","-1","1","-10","","0","1","","","","","131","98","8","4","lose","no-go","1"
"pit-trial","145","694708","0.0-101.0","battery-v0.2","","855.210000067018","M","elianto","#3366ff99","32","32","1","+10","2355.764999985695","1","1","","","","","131","99","11","1","win","go","0"
"pit-trial","146","698714","0.0-102.0","battery-v0.2","","-1","Y","elianto","#3366ff99","32","-1","0","+1","2802.709999959916","1","1","","","","","131","100","9","1","win","go","0"
"pit-trial","147","702091","0.0-103.0","battery-v0.2","","671.875","M","elianto","#3366ff99","32","32","1","+1","2172.759999986738","1","1","","","","","131","101","11","1","win","go","1"
"pit-trial","148","706095","0.0-104.0","battery-v0.2","","-1","R","elianto","#f73b6a7A","32","-1","0","-10","","0","1","","","","","131","102","10","3","lose","go","0"
"pit-trial","149","709043","0.0-105.0","battery-v0.2","","244.32499997783452","Y","elianto","#3366ff99","32","32","1","+10","1745.2399999601766","1","1","","","","","131","103","9","1","win","go","0"
"pit-trial","150","712291","0.0-106.0","battery-v0.2","","542.72500006482","H","elianto","#f73b6a7A","-1","32","0","-10","2043.1549999630079","1","1","","","","","131","104","8","4","lose","no-go","0"
"pit-trial","151","716296","0.0-107.0","battery-v0.2","","-1","R","elianto","#f73b6a7A","32","-1","0","-1","","0","1","","","","","131","105","10","3","lose","go","1"
"pit-trial","152","719499","0.0-108.0","battery-v0.2","","498.86500008869916","Y","elianto","#3366ff99","32","32","1","+10","2000.025000073947","1","1","","","","","131","106","9","1","win","go","0"
"pit-trial","153","723504","0.0-109.0","battery-v0.2","","-1","M","elianto","#3366ff99","32","-1","0","+1","2915.2000000467524","1","1","","","","","131","107","11","1","win","go","0"
"pit-trial","154","727282","0.0-110.0","battery-v0.2","","1072.264999966137","H","elianto","#f73b6a7A","-1","32","0","-10","2574.1699999198318","1","1","","","","","131","108","8","4","lose","no-go","0"
"pit-trial","155","731287","0.0-111.0","battery-v0.2","","-1","M","elianto","#3366ff99","32","-1","0","+1","3269.525000010617","1","1","","","","","131","109","11","1","win","go","0"
"pit-trial","156","735292","0.0-112.0","battery-v0.2","","-1","H","elianto","#f73b6a7A","-1","-1","1","-1","","0","1","","","","","131","110","8","4","lose","no-go","0"
"pit-trial","157","739011","0.0-113.0","battery-v0.2","","1013.4699998889118","Y","elianto","#3366ff99","32","32","1","+10","1202.8749999590218,2514.8599999956787","2","1","","","","","131","111","9","1","win","go","0"
"pit-trial","158","743015","0.0-114.0","battery-v0.2","","-1","R","elianto","#f73b6a7A","32","-1","0","-10","","0","1","","","","","131","112","10","3","lose","go","0"
"pit-trial","159","745835","0.0-115.0","battery-v0.2","","115.3700000140816","H","elianto","#f73b6a7A","-1","32","0","-1","1616.1549999378622","1","1","","","","","131","113","8","4","lose","no-go","1"
"pit-trial","160","748866","0.0-116.0","battery-v0.2","","326.4600000111386","R","elianto","#f73b6a7A","32","32","1","-1","1827.1399999503046","1","1","","","","","131","114","10","3","lose","go","0"
"pit-trial","161","751665","0.0-117.0","battery-v0.2","","92.55499998107553","Y","elianto","#3366ff99","32","32","1","+10","1595.5949999624863","1","1","","","","","131","115","9","1","win","go","0"
"pit-trial","162","755669","0.0-118.0","battery-v0.2","","-1","M","elianto","#3366ff99","32","-1","0","+1","1389.2449999693781","1","1","","","","","131","116","11","1","win","go","0"
"pit-trial","163","758788","0.0-119.0","battery-v0.2","","413.5249999817461","Y","elianto","#3366ff99","32","32","1","+1","1914.2449999926612","1","1","","","","","131","117","9","1","win","go","1"
"pit-trial","164","762794","0.0-120.0","battery-v0.2","","-1","R","elianto","#f73b6a7A","32","-1","0","-1","1314.2549999756739","1","1","","","","","131","118","10","3","lose","go","1"
"pit-trial","165","766798","0.0-121.0","battery-v0.2","","-1","H","elianto","#f73b6a7A","-1","-1","1","-1","3580.39000001736","1","1","","","","","131","119","8","4","lose","no-go","0"
"pit-trial","166","770802","0.0-122.0","battery-v0.2","","-1","M","elianto","#3366ff99","32","-1","0","+1","1376.8750000745058","1","1","","","","","131","120","11","1","win","go","0"
"pit-instructions","167","795529","0.0-123.0","battery-v0.2","[{""page_index"":0,""viewing_time"":13868.270000093617},{""page_index"":1,""viewing_time"":10855.749999987893}]","24724.525000085123","","","","","","","","","","","","","","","","","","","","",""
"pit-trial","168","799321","0.0-124.0","battery-v0.2","","1086.2199999392033","G","elianto","#3366ff99","32","32","1","+10","2587.0100000174716","1","2","","","","","131","121","3","1","win","go","0"
"pit-trial","169","802586","0.0-125.0","battery-v0.2","","558.3900000201538","U","elianto","#3366ff99","-1","32","0","+1","2060.285000014119","1","2","","","","","131","122","0","2","win","no-go","0"
"pit-trial","170","805874","0.0-126.0","battery-v0.2","","583.974999957718","A","elianto","#f73b6a7A","-1","32","0","-1","2084.210000000894","1","2","","","","","131","123","2","4","lose","no-go","1"
"pit-trial","171","809879","0.0-127.0","battery-v0.2","","-1","L","elianto","#f73b6a7A","32","-1","0","-10","","0","2","","","","","131","124","1","3","lose","go","0"
"pit-trial","172","813883","0.0-128.0","battery-v0.2","","-1","U","elianto","#3366ff99","-1","-1","1","+1","1399.6399999596179","1","2","","","","","131","125","0","2","win","no-go","1"
"pit-trial","173","816905","0.0-129.0","battery-v0.2","","316.359999938868","G","elianto","#3366ff99","32","32","1","+10","1818.1399999884889","1","2","","","","","131","126","3","1","win","go","0"
"pit-trial","174","820910","0.0-130.0","battery-v0.2","","-1","L","elianto","#f73b6a7A","32","-1","0","-10","3148.2499999692664","1","2","","","","","131","127","1","3","lose","go","0"
"pit-trial","175","823770","0.0-131.0","battery-v0.2","","155.36500001326203","A","elianto","#f73b6a7A","-1","32","0","-10","1656.7900000372902","1","2","","","","","131","128","2","4","lose","no-go","0"
"pit-trial","176","827774","0.0-132.0","battery-v0.2","","-1","L","elianto","#f73b6a7A","32","-1","0","-10","1371.5599999995902","1","2","","","","","131","129","1","3","lose","go","0"
"pit-trial","177","831778","0.0-133.0","battery-v0.2","","-1","G","elianto","#3366ff99","32","-1","0","+1","","0","2","","","","","131","130","3","1","win","go","0"
"pit-trial","178","835466","0.0-134.0","battery-v0.2","","982.5399999972433","U","elianto","#3366ff99","-1","32","0","+1","2484.279999975115","1","2","","","","","131","131","0","2","win","no-go","0"
"pit-trial","179","838786","0.0-135.0","battery-v0.2","","614.7200000705197","A","elianto","#f73b6a7A","-1","32","0","-10","2115.265000029467","1","2","","","","","131","132","2","4","lose","no-go","0"
"pit-trial","180","842790","0.0-136.0","battery-v0.2","","-1","L","elianto","#f73b6a7A","32","-1","0","-1","2963.5199999902397","1","2","","","","","131","133","1","3","lose","go","1"
"pit-trial","181","846795","0.0-137.0","battery-v0.2","","-1","U","elianto","#3366ff99","-1","-1","1","+10","1311.4449999993667","1","2","","","","","131","134","0","2","win","no-go","0"
"pit-trial","182","850801","0.0-138.0","battery-v0.2","","-1","A","elianto","#f73b6a7A","-1","-1","1","-1","3121.889999951236","1","2","","","","","131","135","2","4","lose","no-go","0"
"pit-trial","183","853706","0.0-139.0","battery-v0.2","","199.99999995343387","G","elianto","#3366ff99","32","32","1","+10","1700.7100000046194","1","2","","","","","131","136","3","1","win","go","0"
"pit-trial","184","856947","0.0-140.0","battery-v0.2","","535.2649999549612","A","elianto","#f73b6a7A","-1","32","0","-10","2036.4550000522286","1","2","","","","","131","137","2","4","lose","no-go","0"
"pit-trial","185","860298","0.0-141.0","battery-v0.2","","646.8099999474362","U","elianto","#3366ff99","-1","32","0","+1","2146.9250000081956","1","2","","","","","131","138","0","2","win","no-go","0"
"pit-trial","186","863251","0.0-142.0","battery-v0.2","","247.75999994017184","G","elianto","#3366ff99","32","32","1","+10","1748.920000041835","1","2","","","","","131","139","3","1","win","go","0"
"pit-trial","187","867027","0.0-143.0","battery-v0.2","","1071.934999898076","L","elianto","#f73b6a7A","32","32","1","-10","2572.1349999075755","1","2","","","","","131","140","1","3","lose","go","1"
"pit-trial","188","870482","0.0-144.0","battery-v0.2","","749.5799999451265","U","elianto","#3366ff99","-1","32","0","+1","2249.9949999619275","1","2","","","","","131","141","0","2","win","no-go","0"
"pit-trial","189","873771","0.0-145.0","battery-v0.2","","583.5450000595301","A","elianto","#f73b6a7A","-1","32","0","-10","2084.4100000103936","1","2","","","","","131","142","2","4","lose","no-go","0"
"pit-trial","190","877776","0.0-146.0","battery-v0.2","","-1","G","elianto","#3366ff99","32","-1","0","+1","3082.5349999358878","1","2","","","","","131","143","3","1","win","go","0"
"pit-trial","191","881673","0.0-147.0","battery-v0.2","","1193.1500000646338","L","elianto","#f73b6a7A","32","32","1","-1","2693.650000030175","1","2","","","","","131","144","1","3","lose","go","0"
"pit-trial","192","884763","0.0-148.0","battery-v0.2","","385.18500002101064","G","elianto","#3366ff99","32","32","1","+10","1885.4600000195205","1","2","","","","","131","145","3","1","win","go","0"
"pit-trial","193","887897","0.0-149.0","battery-v0.2","","429.329999955371","U","elianto","#3366ff99","-1","32","0","+1","1930.6199999991804","1","2","","","","","131","146","0","2","win","no-go","0"
"pit-trial","194","891902","0.0-150.0","battery-v0.2","","-1","L","elianto","#f73b6a7A","32","-1","0","-1","","0","2","","","","","131","147","1","3","lose","go","1"
"pit-trial","195","895907","0.0-151.0","battery-v0.2","","-1","A","elianto","#f73b6a7A","-1","-1","1","-10","","0","2","","","","","131","148","2","4","lose","no-go","1"
"pit-trial","196","898945","0.0-152.0","battery-v0.2","","334.9649999290705","G","elianto","#3366ff99","32","32","1","+10","1835.4149999795482","1","2","","","","","131","149","3","1","win","go","0"
"pit-trial","197","902951","0.0-153.0","battery-v0.2","","-1","U","elianto","#3366ff99","-1","-1","1","+10","2804.18999993708","1","2","","","","","131","150","0","2","win","no-go","0"
"pit-trial","198","906955","0.0-154.0","battery-v0.2","","-1","L","elianto","#f73b6a7A","32","-1","0","-10","","0","2","","","","","131","151","1","3","lose","go","0"
"pit-trial","199","910513","0.0-155.0","battery-v0.2","","853.5749999573454","A","elianto","#f73b6a7A","-1","32","0","-10","2354.730000020936","1","2","","","","","131","152","2","4","lose","no-go","0"
"pit-trial","200","914517","0.0-156.0","battery-v0.2","","-1","A","elianto","#f73b6a7A","-1","-1","1","-1","","0","2","","","","","131","153","2","4","lose","no-go","0"
"pit-trial","201","918522","0.0-157.0","battery-v0.2","","-1","L","elianto","#f73b6a7A","32","-1","0","-10","","0","2","","","","","131","154","1","3","lose","go","0"
"pit-trial","202","921865","0.0-158.0","battery-v0.2","","639.0499999979511","S","elianto","#f73b6a7A","-1","32","0","-10","2139.1950000543147","1","2","","","","","131","155","5","4","lose","no-go","0"
"pit-trial","203","925176","0.0-159.0","battery-v0.2","","606.5650000236928","P","elianto","#f73b6a7A","32","32","1","-10","2107.5150000397116","1","2","","","","","131","156","4","3","lose","go","1"
"pit-trial","204","928672","0.0-160.0","battery-v0.2","","791.0750000737607","S","elianto","#f73b6a7A","-1","32","0","-1","2291.7949999682605","1","2","","","","","131","157","5","4","lose","no-go","1"
"pit-trial","205","931824","0.0-161.0","battery-v0.2","","447.87999999243766","P","elianto","#f73b6a7A","32","32","1","-10","1947.9400001000613","1","2","","","","","131","158","4","3","lose","go","1"
"pit-trial","206","934857","0.0-162.0","battery-v0.2","","327.80000008642673","A","elianto","#f73b6a7A","-1","32","0","-10","1828.9750000694767","1","2","","","","","131","159","2","4","lose","no-go","0"
"pit-trial","207","937984","0.0-163.0","battery-v0.2","","421.36999999638647","L","elianto","#f73b6a7A","32","32","1","-1","1922.8100000182167","1","2","","","","","131","160","1","3","lose","go","0"
"pit-trial","208","941312","0.0-164.0","battery-v0.2","","622.3849999951199","S","elianto","#f73b6a7A","-1","32","0","-10","2124.145000008866","1","2","","","","","131","161","5","4","lose","no-go","0"
"pit-trial","209","944408","0.0-165.0","battery-v0.2","","390.3749999590218","W","elianto","#3366ff99","-1","32","0","+1","1891.4749999530613","1","2","","","","","131","162","6","2","win","no-go","0"
"pit-trial","210","948413","0.0-166.0","battery-v0.2","","-1","P","elianto","#f73b6a7A","32","-1","0","-10","3301.1999999871477","1","2","","","","","131","163","4","3","lose","go","0"
"pit-trial","211","951160","0.0-167.0","battery-v0.2","","41.0399999236688","A","elianto","#f73b6a7A","-1","32","0","-10","1543.1399999652058","1","2","","","","","131","164","2","4","lose","no-go","0"
"pit-trial","212","954177","0.0-168.0","battery-v0.2","","311.2500000279397","P","elianto","#f73b6a7A","32","32","1","-1","1812.489999923855","1","2","","","","","131","165","4","3","lose","go","0"
"pit-trial","213","957289","0.0-169.0","battery-v0.2","","406.844999990426","W","elianto","#3366ff99","-1","32","0","+1","1907.1850000182167","1","2","","","","","131","166","6","2","win","no-go","0"
"pit-trial","214","960410","0.0-170.0","battery-v0.2","","415.9699999727309","S","elianto","#f73b6a7A","-1","32","0","-1","1916.220000013709","1","2","","","","","131","167","5","4","lose","no-go","1"
"pit-trial","215","964414","0.0-171.0","battery-v0.2","","-1","A","elianto","#f73b6a7A","-1","-1","1","-1","","0","2","","","","","131","168","2","4","lose","no-go","0"
"pit-trial","216","968420","0.0-172.0","battery-v0.2","","-1","P","elianto","#f73b6a7A","32","-1","0","-10","","0","2","","","","","131","169","4","3","lose","go","0"
"pit-trial","217","971305","0.0-173.0","battery-v0.2","","180.51500001456589","E","elianto","#3366ff99","32","32","1","+1","1680.7849999750033","1","2","","","","","131","170","7","1","win","go","1"
"pit-trial","218","975310","0.0-174.0","battery-v0.2","","-1","S","elianto","#f73b6a7A","-1","-1","1","-1","","0","2","","","","","131","171","5","4","lose","no-go","0"
"pit-trial","219","978752","0.0-175.0","battery-v0.2","","737.2050000121817","W","elianto","#3366ff99","-1","32","0","+1","2237.9199999850243","1","2","","","","","131","172","6","2","win","no-go","0"
"pit-trial","220","982756","0.0-176.0","battery-v0.2","","-1","P","elianto","#f73b6a7A","32","-1","0","-1","","0","2","","","","","131","173","4","3","lose","go","1"
"pit-trial","221","985609","0.0-177.0","battery-v0.2","","147.11999997962266","E","elianto","#3366ff99","32","32","1","+10","1648.39500002563","1","2","","","","","131","174","7","1","win","go","0"
"pit-trial","222","989614","0.0-178.0","battery-v0.2","","-1","W","elianto","#3366ff99","-1","-1","1","+1","","0","2","","","","","131","175","6","2","win","no-go","1"
"pit-trial","223","992480","0.0-179.0","battery-v0.2","","160.3449999820441","S","elianto","#f73b6a7A","-1","32","0","-1","1661.2399999285117","1","2","","","","","131","176","5","4","lose","no-go","1"
"pit-trial","224","995279","0.0-180.0","battery-v0.2","","94.7200000518933","E","elianto","#3366ff99","32","32","1","+10","1595.0799999991432","1","2","","","","","131","177","7","1","win","go","0"
"pit-trial","225","998071","0.0-181.0","battery-v0.2","","87.82000001519918","W","elianto","#3366ff99","-1","32","0","+1","1588.3399999001995","1","2","","","","","131","178","6","2","win","no-go","0"
"pit-trial","226","1001727","0.0-182.0","battery-v0.2","","951.6800000565127","P","elianto","#f73b6a7A","32","32","1","-1","1316.2049999227747,2452.240000013262","2","2","","","","","131","179","4","3","lose","go","0"
"pit-trial","227","1005320","0.0-183.0","battery-v0.2","","886.5350000560284","S","elianto","#f73b6a7A","-1","32","0","-10","1308.3399999886751,2388.3350000251085","2","2","","","","","131","180","5","4","lose","no-go","0"
"pit-trial","228","1008281","0.0-184.0","battery-v0.2","","255.88499999139458","S","elianto","#f73b6a7A","-1","32","0","-1","1757.1000000461936","1","2","","","","","131","181","5","4","lose","no-go","1"
"pit-trial","229","1011543","0.0-185.0","battery-v0.2","","557.8700000187382","E","elianto","#3366ff99","32","32","1","+10","1386.6500000003725,2058.6200000252575","2","2","","","","","131","182","7","1","win","go","0"
"pit-trial","230","1014672","0.0-186.0","battery-v0.2","","422.4450000328943","W","elianto","#3366ff99","-1","32","0","+1","1924.1649999748915","1","2","","","","","131","183","6","2","win","no-go","0"
"pit-trial","231","1017664","0.0-187.0","battery-v0.2","","286.409999942407","P","elianto","#f73b6a7A","32","32","1","-1","1787.1199999935925","1","2","","","","","131","184","4","3","lose","go","0"
"pit-trial","232","1020729","0.0-188.0","battery-v0.2","","360.4650000343099","E","elianto","#3366ff99","32","32","1","+10","1860.770000028424","1","2","","","","","131","185","7","1","win","go","0"
"pit-trial","233","1023808","0.0-189.0","battery-v0.2","","373.7100000726059","W","elianto","#3366ff99","-1","32","0","+10","1874.5450000278652","1","2","","","","","131","186","6","2","win","no-go","1"
"pit-trial","234","1027072","0.0-190.0","battery-v0.2","","559.2900000046939","S","elianto","#f73b6a7A","-1","32","0","-10","2059.7700000507757","1","2","","","","","131","187","5","4","lose","no-go","0"
"pit-trial","235","1030738","0.0-191.0","battery-v0.2","","958.7400000309572","P","elianto","#f73b6a7A","32","32","1","-1","2460.829999996349","1","2","","","","","131","188","4","3","lose","go","0"
"pit-trial","236","1033568","0.0-192.0","battery-v0.2","","125.55999995674938","S","elianto","#f73b6a7A","-1","32","0","-10","1626.4499999815598","1","2","","","","","131","189","5","4","lose","no-go","0"
"pit-trial","237","1036560","0.0-193.0","battery-v0.2","","286.0299999592826","E","elianto","#3366ff99","32","32","1","+10","299.18000008910894,971.1700000334531,1787.650000071153","3","2","","","","","131","190","7","1","win","go","0"
"pit-trial","238","1040566","0.0-194.0","battery-v0.2","","-1","P","elianto","#f73b6a7A","32","-1","0","-10","","0","2","","","","","131","191","4","3","lose","go","0"
"pit-trial","239","1044065","0.0-195.0","battery-v0.2","","794.690000009723","W","elianto","#3366ff99","-1","32","0","+1","2294.899999978952","1","2","","","","","131","192","6","2","win","no-go","0"
"pit-trial","240","1047048","0.0-196.0","battery-v0.2","","275.9249999653548","W","elianto","#3366ff99","-1","32","0","+1","1779.1450000368059","1","2","","","","","131","193","6","2","win","no-go","0"
"pit-trial","241","1050248","0.0-197.0","battery-v0.2","","494.29499998223037","E","elianto","#3366ff99","32","32","1","+10","1363.675000029616,1995.4300000099465","2","2","","","","","131","194","7","1","win","go","0"
"pit-trial","242","1053296","0.0-198.0","battery-v0.2","","343.0550000630319","K","elianto","#3366ff99","32","32","1","+10","1843.7050000065938","1","2","","","","","131","195","8","1","win","go","0"
"pit-trial","243","1057074","0.0-199.0","battery-v0.2","","1073.6650000326335","P","elianto","#f73b6a7A","32","32","1","-1","2573.8050000509247","1","2","","","","","131","196","4","3","lose","go","0"
"pit-trial","244","1060009","0.0-200.0","battery-v0.2","","229.01499993167818","K","elianto","#3366ff99","32","32","1","+10","1729.6649999916553","1","2","","","","","131","197","8","1","win","go","0"
"pit-trial","245","1063448","0.0-201.0","battery-v0.2","","734.9599999142811","E","elianto","#3366ff99","32","32","1","+10","2235.1150000467896","1","2","","","","","131","198","7","1","win","go","0"
"pit-trial","246","1066232","0.0-202.0","battery-v0.2","","79.56999994348735","P","elianto","#f73b6a7A","32","32","1","-1","1580.1650000503287","1","2","","","","","131","199","4","3","lose","go","0"
"pit-trial","247","1069433","0.0-203.0","battery-v0.2","","495.545000070706","W","elianto","#3366ff99","-1","32","0","+1","1996.4949999703094","1","2","","","","","131","200","6","2","win","no-go","0"
"pit-trial","248","1073438","0.0-204.0","battery-v0.2","","-1","K","elianto","#3366ff99","32","-1","0","+1","1429.340000031516","1","2","","","","","131","201","8","1","win","go","0"
"pit-trial","249","1077255","0.0-205.0","battery-v0.2","","1108.5599999642","W","elianto","#3366ff99","-1","32","0","+1","1504.2299999622628,2613.5599999688566","2","2","","","","","131","202","6","2","win","no-go","0"
"pit-trial","250","1080888","0.0-206.0","battery-v0.2","","927.129999967292","D","elianto","#3366ff99","-1","32","0","+1","1140.320000005886,2428.1900000059977","2","2","","","","","131","203","9","2","win","no-go","0"
"pit-trial","251","1083856","0.0-207.0","battery-v0.2","","263.94500001333654","E","elianto","#3366ff99","32","32","1","+10","1764.1249999869615","1","2","","","","","131","204","7","1","win","go","0"
"pit-trial","252","1086593","0.0-208.0","battery-v0.2","","32.78000000864267","E","elianto","#3366ff99","32","32","1","+10","1533.1999999471009","1","2","","","","","131","205","7","1","win","go","0"
"pit-trial","253","1090601","0.0-209.0","battery-v0.2","","-1","W","elianto","#3366ff99","-1","-1","1","+10","1413.109999964945","1","2","","","","","131","206","6","2","win","no-go","0"
"pit-trial","254","1093601","0.0-210.0","battery-v0.2","","295.2999999979511","K","elianto","#3366ff99","32","32","1","+10","1795.7600000081584","1","2","","","","","131","207","8","1","win","go","0"
"pit-trial","255","1096759","0.0-211.0","battery-v0.2","","452.5399999693036","D","elianto","#3366ff99","-1","32","0","+1","1954.4750000350177","1","2","","","","","131","208","9","2","win","no-go","0"
"pit-trial","256","1099856","0.0-212.0","battery-v0.2","","391.67499996256083","D","elianto","#3366ff99","-1","32","0","+1","1892.1900000423193","1","2","","","","","131","209","9","2","win","no-go","0"
"pit-trial","257","1103861","0.0-213.0","battery-v0.2","","-1","J","elianto","#f73b6a7A","32","-1","0","-10","","0","2","","","","","131","210","10","3","lose","go","0"
"pit-trial","258","1107032","0.0-214.0","battery-v0.2","","466.38500003609806","V","elianto","#f73b6a7A","-1","32","0","-10","1967.449999996461","1","2","","","","","131","211","11","4","lose","no-go","0"
"pit-trial","259","1111038","0.0-215.0","battery-v0.2","","-1","K","elianto","#3366ff99","32","-1","0","+10","2827.419999986887","1","2","","","","","131","212","8","1","win","go","1"
"pit-trial","260","1114344","0.0-216.0","battery-v0.2","","600.815000012517","V","elianto","#f73b6a7A","-1","32","0","-1","2101.6649999655783","1","2","","","","","131","213","11","4","lose","no-go","1"
"pit-trial","261","1117200","0.0-217.0","battery-v0.2","","150.7149999961257","J","elianto","#f73b6a7A","32","32","1","-1","1651.5000000363216","1","2","","","","","131","214","10","3","lose","go","0"
"pit-trial","262","1120152","0.0-218.0","battery-v0.2","","245.94499997328967","D","elianto","#3366ff99","-1","32","0","+1","1747.3649999592453","1","2","","","","","131","215","9","2","win","no-go","0"
"pit-trial","263","1123351","0.0-219.0","battery-v0.2","","494.96499996166676","K","elianto","#3366ff99","32","32","1","+10","1995.3599999425933","1","2","","","","","131","216","8","1","win","go","0"
"pit-trial","264","1126831","0.0-220.0","battery-v0.2","","775.179999996908","K","elianto","#3366ff99","32","32","1","+10","2275.889999931678","1","2","","","","","131","217","8","1","win","go","0"
"pit-trial","265","1130672","0.0-221.0","battery-v0.2","","1136.6099999286234","V","elianto","#f73b6a7A","-1","32","0","-10","2636.8699999293312","1","2","","","","","131","218","11","4","lose","no-go","0"
"pit-trial","266","1134448","0.0-222.0","battery-v0.2","","1069.5749999722466","D","elianto","#3366ff99","-1","32","0","+1","2570.575000019744","1","2","","","","","131","219","9","2","win","no-go","0"
"pit-trial","267","1137303","0.0-223.0","battery-v0.2","","150.26499994564801","J","elianto","#f73b6a7A","32","32","1","-1","1651.1700000846758","1","2","","","","","131","220","10","3","lose","go","0"
"pit-trial","268","1140663","0.0-224.0","battery-v0.2","","654.9299999605864","V","elianto","#f73b6a7A","-1","32","0","-1","2155.765000032261","1","2","","","","","131","221","11","4","lose","no-go","1"
"pit-trial","269","1143425","0.0-225.0","battery-v0.2","","57.5599999865517","J","elianto","#f73b6a7A","32","32","1","-10","1558.145000017248","1","2","","","","","131","222","10","3","lose","go","1"
"pit-trial","270","1146903","0.0-226.0","battery-v0.2","","771.515000029467","D","elianto","#3366ff99","-1","32","0","+1","2273.2750000432134","1","2","","","","","131","223","9","2","win","no-go","0"
"pit-trial","271","1149935","0.0-227.0","battery-v0.2","","326.37999998405576","K","elianto","#3366ff99","32","32","1","+10","1827.3549999576062","1","2","","","","","131","224","8","1","win","go","0"
"pit-trial","272","1153440","0.0-228.0","battery-v0.2","","798.5450000269338","J","elianto","#f73b6a7A","32","32","1","-1","2300.1149999909103","1","2","","","","","131","225","10","3","lose","go","0"
"pit-trial","273","1157102","0.0-229.0","battery-v0.2","","958.0950000090525","D","elianto","#3366ff99","-1","32","0","+10","2458.7550000287592","1","2","","","","","131","226","9","2","win","no-go","1"
"pit-trial","274","1160535","0.0-230.0","battery-v0.2","","727.3699999786913","V","elianto","#f73b6a7A","-1","32","0","-10","2228.2049999339506","1","2","","","","","131","227","11","4","lose","no-go","0"
"pit-trial","275","1163286","0.0-231.0","battery-v0.2","","46.830000006593764","K","elianto","#3366ff99","32","32","1","+10","1546.8999999575317","1","2","","","","","131","228","8","1","win","go","0"
"pit-trial","276","1166536","0.0-232.0","battery-v0.2","","544.1449999343604","J","elianto","#f73b6a7A","32","32","1","-1","2045.564999920316","1","2","","","","","131","229","10","3","lose","go","0"
"pit-trial","277","1170070","0.0-233.0","battery-v0.2","","830.2350000012666","D","elianto","#3366ff99","-1","32","0","+1","1378.664999967441,2330.699999933131","2","2","","","","","131","230","9","2","win","no-go","0"
"pit-trial","278","1172807","0.0-234.0","battery-v0.2","","32.36999991349876","K","elianto","#3366ff99","32","32","1","+10","1532.4099999852479","1","2","","","","","131","231","8","1","win","go","0"
"pit-trial","279","1175918","0.0-235.0","battery-v0.2","","406.1249999795109","V","elianto","#f73b6a7A","-1","32","0","-10","1907.314999960363","1","2","","","","","131","232","11","4","lose","no-go","0"
"pit-trial","280","1178672","0.0-236.0","battery-v0.2","","49.09000010229647","D","elianto","#3366ff99","-1","32","0","+1","1550.2199999755248,2603.9249999448657","2","2","","","","","131","233","9","2","win","no-go","0"
"pit-trial","281","1181623","0.0-237.0","battery-v0.2","","245.51499995868653","K","elianto","#3366ff99","32","32","1","+10","1746.1249999469146","1","2","","","","","131","234","8","1","win","go","0"
"pit-trial","282","1184823","0.0-238.0","battery-v0.2","","494.7150000371039","V","elianto","#f73b6a7A","-1","32","0","-10","1994.7699999902397","1","2","","","","","131","235","11","4","lose","no-go","0"
"pit-trial","283","1187959","0.0-239.0","battery-v0.2","","430.5050000548363","J","elianto","#f73b6a7A","32","32","1","-1","1931.6400000825524","1","2","","","","","131","236","10","3","lose","go","0"
"pit-trial","284","1191830","0.0-240.0","battery-v0.2","","1166.2599999690428","J","elianto","#f73b6a7A","32","32","1","-1","1412.5150000909343,2667.1750000678003","2","2","","","","","131","237","10","3","lose","go","0"
"pit-trial","285","1195834","0.0-241.0","battery-v0.2","","-1","K","elianto","#3366ff99","32","-1","0","+1","1460.0450000725687","1","2","","","","","131","238","8","1","win","go","0"
"pit-trial","286","1198574","0.0-242.0","battery-v0.2","","32.05500007607043","D","elianto","#3366ff99","-1","32","0","+1","1535.9049999387935","1","2","","","","","131","239","9","2","win","no-go","0"
"pit-trial","287","1201575","0.0-243.0","battery-v0.2","","296.15000006742775","V","elianto","#f73b6a7A","-1","32","0","-1","1796.9099999172613","1","2","","","","","131","240","11","4","lose","no-go","1"
