"trial_type","trial_index","time_elapsed","internal_node_id","task_version","subject_id","interactions","blur_events","focus_events","fullscreenenter_events","fullscreenexit_events","success","view_history","rt","responses","num_errors","age","subject","participantId","rune","rune_set","hex","correct","choice","accuracy","outcome","keys","total_keys","block","practice","value","sub","trial","stimulus","robot","valence","action","sham","browser_interactions"
"pavlovia","0","15","0.0-0.0","battery-v0.2","","""event"",""trial"",""time""
""fullscreenenter"",""1"",""2254""
","
","
","""event"",""trial"",""time""
""fullscreenenter"",""1"",""2254""
","
","","","","","","","","","","","","","","","","","","","","","","","","","","","",""
"fullscreen","1","3203","0.0-1.0","battery-v0.2","","""event"",""trial"",""time""
""fullscreenenter"",""1"",""2254""
","
","
","""event"",""trial"",""time""
""fullscreenenter"",""1"",""2254""
","
","true","","","","","","","","","","","","","","","","","","","","","","","","","","",""
"pit-instructions","2","8270","0.0-2.0-0.0","battery-v0.2","","""event"",""trial"",""time""
""fullscreenenter"",""1"",""2254""
","
","
","""event"",""trial"",""time""
""fullscreenenter"",""1"",""2254""
","
","","[{""page_index"":0,""viewing_time"":5059}]","5059","","","","","","","","","","","","","","","","","","","","","","","","",""
"pit-comprehension","3","13393","0.0-2.0-1.0-0.0","battery-v0.2","","""event"",""trial"",""time""
""fullscreenenter"",""1"",""2254""
","
","
","""event"",""trial"",""time""
""fullscreenenter"",""1"",""2254""
","
","","","5116","[""shark""]","0","25","1215","536","","","","","","","","","","","","","","","","","","","",""
"pit-instructions","4","18791","0.0-2.0-1.0-1.0","battery-v0.2","","""event"",""trial"",""time""
""fullscreenenter"",""1"",""2254""
","
","
","""event"",""trial"",""time""
""fullscreenenter"",""1"",""2254""
","
","","[{""page_index"":0,""viewing_time"":5384}]","5385","","","","","","","","","","","","","","","","","","","","","","","","",""
"pit-comprehension","5","22816","0.0-2.0-2.0-0.0","battery-v0.2","","""event"",""trial"",""time""
""fullscreenenter"",""1"",""2254""
","
","
","""event"",""trial"",""time""
""fullscreenenter"",""1"",""2254""
","
","","","4009","[""tiger""]","0","25","1215","536","","","","","","","","","","","","","","","","","","","",""
"pit-instructions","6","24701","0.0-2.0-2.0-1.0","battery-v0.2","","""event"",""trial"",""time""
""fullscreenenter"",""1"",""2254""
""blur"",""7"",""30187""
""focus"",""7"",""30293""
""blur"",""7"",""30525""
""focus"",""7"",""30592""
","""event"",""trial"",""time""
""blur"",""7"",""30187""
""blur"",""7"",""30525""
","""event"",""trial"",""time""
""focus"",""7"",""30293""
""focus"",""7"",""30592""
","""event"",""trial"",""time""
""fullscreenenter"",""1"",""2254""
","
","","[{""page_index"":0,""viewing_time"":1871}]","1872","","","","","","","","","","","","","","","","","","","","","","","","",""
"pit-instructions","7","125185","0.0-2.0-3.0","battery-v0.2","","""event"",""trial"",""time""
""fullscreenenter"",""1"",""2254""
""blur"",""7"",""30187""
""focus"",""7"",""30293""
""blur"",""7"",""30525""
""focus"",""7"",""30592""
","""event"",""trial"",""time""
""blur"",""7"",""30187""
""blur"",""7"",""30525""
","""event"",""trial"",""time""
""focus"",""7"",""30293""
""focus"",""7"",""30592""
","""event"",""trial"",""time""
""fullscreenenter"",""1"",""2254""
","
","","[{""page_index"":0,""viewing_time"":10997},{""page_index"":1,""viewing_time"":6037},{""page_index"":2,""viewing_time"":6040},{""page_index"":3,""viewing_time"":7066},{""page_index"":4,""viewing_time"":5718},{""page_index"":5,""viewing_time"":6474},{""page_index"":6,""viewing_time"":6848},{""page_index"":7,""viewing_time"":8237},{""page_index"":8,""viewing_time"":6193},{""page_index"":9,""viewing_time"":8798},{""page_index"":10,""viewing_time"":8004},{""page_index"":11,""viewing_time"":6773},{""page_index"":12,""viewing_time"":7707},{""page_index"":13,""viewing_time"":5577}]","100470","","","","","","","","","","","","","","","","","","","","","","","","",""
"pit-trial","8","128060","0.0-2.0-4.0-0.0","battery-v0.2","","""event"",""trial"",""time""
""fullscreenenter"",""1"",""2254""
""blur"",""7"",""30187""
""focus"",""7"",""30293""
""blur"",""7"",""30525""
""focus"",""7"",""30592""
","""event"",""trial"",""time""
""blur"",""7"",""30187""
""blur"",""7"",""30525""
","""event"",""trial"",""time""
""focus"",""7"",""30293""
""focus"",""7"",""30592""
","""event"",""trial"",""time""
""fullscreenenter"",""1"",""2254""
","
","","","11","","","25","1215","536","&#9784;","elianto","#FFFFF080"," "," ","1","&#10004","[860]","1","0","0","","","","","","","","",""
"pit-trial","9","130930","0.0-2.0-4.1-0.1","battery-v0.2","","""event"",""trial"",""time""
""fullscreenenter"",""1"",""2254""
""blur"",""7"",""30187""
""focus"",""7"",""30293""
""blur"",""7"",""30525""
""focus"",""7"",""30592""
","""event"",""trial"",""time""
""blur"",""7"",""30187""
""blur"",""7"",""30525""
","""event"",""trial"",""time""
""focus"",""7"",""30293""
""focus"",""7"",""30592""
","""event"",""trial"",""time""
""fullscreenenter"",""1"",""2254""
","
","","","10","","","25","1215","536","&#9784;","elianto","#FFFFF080"," "," ","1","&#10004","[860]","1","0","0","","","","","","","","",""
"pit-trial","10","134223","0.0-2.0-4.2-0.2","battery-v0.2","","""event"",""trial"",""time""
""fullscreenenter"",""1"",""2254""
""blur"",""7"",""30187""
""focus"",""7"",""30293""
""blur"",""7"",""30525""
""focus"",""7"",""30592""
","""event"",""trial"",""time""
""blur"",""7"",""30187""
""blur"",""7"",""30525""
","""event"",""trial"",""time""
""focus"",""7"",""30293""
""focus"",""7"",""30592""
","""event"",""trial"",""time""
""fullscreenenter"",""1"",""2254""
","
","","","433","","","25","1215","536","&#9784;","elianto","#FFFFF080"," "," ","1","&#10004","[1284]","1","0","0","","","","","","","","",""
"pit-trial","11","137602","0.0-2.0-4.3-0.3","battery-v0.2","","""event"",""trial"",""time""
""fullscreenenter"",""1"",""2254""
""blur"",""7"",""30187""
""focus"",""7"",""30293""
""blur"",""7"",""30525""
""focus"",""7"",""30592""
","""event"",""trial"",""time""
""blur"",""7"",""30187""
""blur"",""7"",""30525""
","""event"",""trial"",""time""
""focus"",""7"",""30293""
""focus"",""7"",""30592""
","""event"",""trial"",""time""
""fullscreenenter"",""1"",""2254""
","
","","","523","","","25","1215","536","&#9784;","elianto","#FFFFF080"," "," ","1","&#10004","[1373]","1","0","0","","","","","","","","",""
"pit-trial","12","140907","0.0-2.0-4.4-0.4","battery-v0.2","","""event"",""trial"",""time""
""fullscreenenter"",""1"",""2254""
""blur"",""7"",""30187""
""focus"",""7"",""30293""
""blur"",""7"",""30525""
""focus"",""7"",""30592""
","""event"",""trial"",""time""
""blur"",""7"",""30187""
""blur"",""7"",""30525""
","""event"",""trial"",""time""
""focus"",""7"",""30293""
""focus"",""7"",""30592""
","""event"",""trial"",""time""
""fullscreenenter"",""1"",""2254""
","
","","","445","","","25","1215","536","&#9784;","elianto","#FFFFF080"," "," ","1","&#10004","[1296]","1","0","0","","","","","","","","",""
"pit-instructions","13","165209","0.0-2.0-5.0","battery-v0.2","","""event"",""trial"",""time""
""fullscreenenter"",""1"",""2254""
""blur"",""7"",""30187""
""focus"",""7"",""30293""
""blur"",""7"",""30525""
""focus"",""7"",""30592""
","""event"",""trial"",""time""
""blur"",""7"",""30187""
""blur"",""7"",""30525""
","""event"",""trial"",""time""
""focus"",""7"",""30293""
""focus"",""7"",""30592""
","""event"",""trial"",""time""
""fullscreenenter"",""1"",""2254""
","
","","[{""page_index"":0,""viewing_time"":6191},{""page_index"":1,""viewing_time"":5227},{""page_index"":2,""viewing_time"":6491},{""page_index"":3,""viewing_time"":6385}]","24295","","","","","","","","","","","","","","","","","","","","","","","","",""
"pit-trial","14","170069","0.0-2.0-6.0-0.0","battery-v0.2","","""event"",""trial"",""time""
""fullscreenenter"",""1"",""2254""
""blur"",""7"",""30187""
""focus"",""7"",""30293""
""blur"",""7"",""30525""
""focus"",""7"",""30592""
","""event"",""trial"",""time""
""blur"",""7"",""30187""
""blur"",""7"",""30525""
","""event"",""trial"",""time""
""focus"",""7"",""30293""
""focus"",""7"",""30592""
","""event"",""trial"",""time""
""fullscreenenter"",""1"",""2254""
","
","","","-1","","","25","1215","536","&#9854;","elianto","#FFFFF080","-1","-1","1","&#10004","[]","0","0","1","","","","","","","","",""
"pit-trial","15","174927","0.0-2.0-6.1-0.1","battery-v0.2","","""event"",""trial"",""time""
""fullscreenenter"",""1"",""2254""
""blur"",""7"",""30187""
""focus"",""7"",""30293""
""blur"",""7"",""30525""
""focus"",""7"",""30592""
","""event"",""trial"",""time""
""blur"",""7"",""30187""
""blur"",""7"",""30525""
","""event"",""trial"",""time""
""focus"",""7"",""30293""
""focus"",""7"",""30592""
","""event"",""trial"",""time""
""fullscreenenter"",""1"",""2254""
","
","","","-1","","","25","1215","536","&#9854;","elianto","#FFFFF080","-1","-1","1","&#10004","[]","0","0","1","","","","","","","","",""
"pit-trial","16","179784","0.0-2.0-6.2-0.2","battery-v0.2","","""event"",""trial"",""time""
""fullscreenenter"",""1"",""2254""
""blur"",""7"",""30187""
""focus"",""7"",""30293""
""blur"",""7"",""30525""
""focus"",""7"",""30592""
","""event"",""trial"",""time""
""blur"",""7"",""30187""
""blur"",""7"",""30525""
","""event"",""trial"",""time""
""focus"",""7"",""30293""
""focus"",""7"",""30592""
","""event"",""trial"",""time""
""fullscreenenter"",""1"",""2254""
","
","","","-1","","","25","1215","536","&#9854;","elianto","#FFFFF080","-1","-1","1","&#10004","[]","0","0","1","","","","","","","","",""
"pit-trial","17","184642","0.0-2.0-6.3-0.3","battery-v0.2","","""event"",""trial"",""time""
""fullscreenenter"",""1"",""2254""
""blur"",""7"",""30187""
""focus"",""7"",""30293""
""blur"",""7"",""30525""
""focus"",""7"",""30592""
","""event"",""trial"",""time""
""blur"",""7"",""30187""
""blur"",""7"",""30525""
","""event"",""trial"",""time""
""focus"",""7"",""30293""
""focus"",""7"",""30592""
","""event"",""trial"",""time""
""fullscreenenter"",""1"",""2254""
","
","","","-1","","","25","1215","536","&#9854;","elianto","#FFFFF080","-1","-1","1","&#10004","[]","0","0","1","","","","","","","","",""
"pit-trial","18","189498","0.0-2.0-6.4-0.4","battery-v0.2","","""event"",""trial"",""time""
""fullscreenenter"",""1"",""2254""
""blur"",""7"",""30187""
""focus"",""7"",""30293""
""blur"",""7"",""30525""
""focus"",""7"",""30592""
","""event"",""trial"",""time""
""blur"",""7"",""30187""
""blur"",""7"",""30525""
","""event"",""trial"",""time""
""focus"",""7"",""30293""
""focus"",""7"",""30592""
","""event"",""trial"",""time""
""fullscreenenter"",""1"",""2254""
","
","","","-1","","","25","1215","536","&#9854;","elianto","#FFFFF080","-1","-1","1","&#10004","[]","0","0","1","","","","","","","","",""
"pit-instructions","19","328196","0.0-2.0-7.0","battery-v0.2","","""event"",""trial"",""time""
""fullscreenenter"",""1"",""2254""
""blur"",""7"",""30187""
""focus"",""7"",""30293""
""blur"",""7"",""30525""
""focus"",""7"",""30592""
","""event"",""trial"",""time""
""blur"",""7"",""30187""
""blur"",""7"",""30525""
","""event"",""trial"",""time""
""focus"",""7"",""30293""
""focus"",""7"",""30592""
","""event"",""trial"",""time""
""fullscreenenter"",""1"",""2254""
","
","","[{""page_index"":0,""viewing_time"":7126},{""page_index"":1,""viewing_time"":7556},{""page_index"":2,""viewing_time"":6577},{""page_index"":3,""viewing_time"":9380},{""page_index"":4,""viewing_time"":9071},{""page_index"":5,""viewing_time"":5756},{""page_index"":6,""viewing_time"":7554},{""page_index"":7,""viewing_time"":9920},{""page_index"":8,""viewing_time"":7477},{""page_index"":9,""viewing_time"":7915},{""page_index"":10,""viewing_time"":7901},{""page_index"":11,""viewing_time"":4033},{""page_index"":12,""viewing_time"":8158},{""page_index"":13,""viewing_time"":6551},{""page_index"":14,""viewing_time"":8493},{""page_index"":15,""viewing_time"":8299},{""page_index"":16,""viewing_time"":9700},{""page_index"":17,""viewing_time"":7219}]","138687","","","","","","","","","","","","","","","","","","","","","","","","",""
"pit-trial","20","331612","0.0-2.0-8.0-0.0","battery-v0.2","","""event"",""trial"",""time""
""fullscreenenter"",""1"",""2254""
""blur"",""7"",""30187""
""focus"",""7"",""30293""
""blur"",""7"",""30525""
""focus"",""7"",""30592""
","""event"",""trial"",""time""
""blur"",""7"",""30187""
""blur"",""7"",""30525""
","""event"",""trial"",""time""
""focus"",""7"",""30293""
""focus"",""7"",""30592""
","""event"",""trial"",""time""
""fullscreenenter"",""1"",""2254""
","
","","","558","","","25","1215","536","&#9776;","elianto","#3366ff99"," "," ","1","+10","[1408]","1","0","1","","","","","","","","",""
"pit-trial","21","335019","0.0-2.0-8.0-1.0","battery-v0.2","","""event"",""trial"",""time""
""fullscreenenter"",""1"",""2254""
""blur"",""7"",""30187""
""focus"",""7"",""30293""
""blur"",""7"",""30525""
""focus"",""7"",""30592""
","""event"",""trial"",""time""
""blur"",""7"",""30187""
""blur"",""7"",""30525""
","""event"",""trial"",""time""
""focus"",""7"",""30293""
""focus"",""7"",""30592""
","""event"",""trial"",""time""
""fullscreenenter"",""1"",""2254""
","
","","","548","","","25","1215","536","&#9776;","elianto","#3366ff99"," "," ","1","+10","[1398]","1","0","1","","","","","","","","",""
"pit-trial","22","338648","0.0-2.0-8.0-2.0","battery-v0.2","","""event"",""trial"",""time""
""fullscreenenter"",""1"",""2254""
""blur"",""7"",""30187""
""focus"",""7"",""30293""
""blur"",""7"",""30525""
""focus"",""7"",""30592""
","""event"",""trial"",""time""
""blur"",""7"",""30187""
""blur"",""7"",""30525""
","""event"",""trial"",""time""
""focus"",""7"",""30293""
""focus"",""7"",""30592""
","""event"",""trial"",""time""
""fullscreenenter"",""1"",""2254""
","
","","","769","","","25","1215","536","&#9776;","elianto","#3366ff99"," "," ","1","+10","[1623]","1","0","1","","","","","","","","",""
"pit-trial","23","341974","0.0-2.0-8.0-3.0","battery-v0.2","","""event"",""trial"",""time""
""fullscreenenter"",""1"",""2254""
""blur"",""7"",""30187""
""focus"",""7"",""30293""
""blur"",""7"",""30525""
""focus"",""7"",""30592""
","""event"",""trial"",""time""
""blur"",""7"",""30187""
""blur"",""7"",""30525""
","""event"",""trial"",""time""
""focus"",""7"",""30293""
""focus"",""7"",""30592""
","""event"",""trial"",""time""
""fullscreenenter"",""1"",""2254""
","
","","","469","","","25","1215","536","&#9776;","elianto","#3366ff99"," "," ","1","0","[1319]","1","0","1","","","","","","","","",""
"pit-trial","24","345284","0.0-2.0-8.0-4.0","battery-v0.2","","""event"",""trial"",""time""
""fullscreenenter"",""1"",""2254""
""blur"",""7"",""30187""
""focus"",""7"",""30293""
""blur"",""7"",""30525""
""focus"",""7"",""30592""
","""event"",""trial"",""time""
""blur"",""7"",""30187""
""blur"",""7"",""30525""
","""event"",""trial"",""time""
""focus"",""7"",""30293""
""focus"",""7"",""30592""
","""event"",""trial"",""time""
""fullscreenenter"",""1"",""2254""
","
","","","452","","","25","1215","536","&#9776;","elianto","#3366ff99"," "," ","1","+10","[1302]","1","0","1","","","","","","","","",""
"call-function","25","345288","0.0-2.0-9.0","battery-v0.2","","""event"",""trial"",""time""
""fullscreenenter"",""1"",""2254""
""blur"",""7"",""30187""
""focus"",""7"",""30293""
""blur"",""7"",""30525""
""focus"",""7"",""30592""
","""event"",""trial"",""time""
""blur"",""7"",""30187""
""blur"",""7"",""30525""
","""event"",""trial"",""time""
""focus"",""7"",""30293""
""focus"",""7"",""30592""
","""event"",""trial"",""time""
""fullscreenenter"",""1"",""2254""
","
","","","","","","","","","","","","","","","","","","","","","","","","","","","",""
"pit-instructions","26","389221","0.0-2.0-10.0","battery-v0.2","","""event"",""trial"",""time""
""fullscreenenter"",""1"",""2254""
""blur"",""7"",""30187""
""focus"",""7"",""30293""
""blur"",""7"",""30525""
""focus"",""7"",""30592""
","""event"",""trial"",""time""
""blur"",""7"",""30187""
""blur"",""7"",""30525""
","""event"",""trial"",""time""
""focus"",""7"",""30293""
""focus"",""7"",""30592""
","""event"",""trial"",""time""
""fullscreenenter"",""1"",""2254""
","
","","[{""page_index"":0,""viewing_time"":6752},{""page_index"":1,""viewing_time"":9302},{""page_index"":2,""viewing_time"":9157},{""page_index"":3,""viewing_time"":11088},{""page_index"":4,""viewing_time"":7631}]","43931","","","","","","","","","","","","","","","","","","","","","","","","",""
"pit-trial","27","393523","0.0-2.0-11.0-0.0","battery-v0.2","","""event"",""trial"",""time""
""fullscreenenter"",""1"",""2254""
""blur"",""7"",""30187""
""focus"",""7"",""30293""
""blur"",""7"",""30525""
""focus"",""7"",""30592""
","""event"",""trial"",""time""
""blur"",""7"",""30187""
""blur"",""7"",""30525""
","""event"",""trial"",""time""
""focus"",""7"",""30293""
""focus"",""7"",""30592""
","""event"",""trial"",""time""
""fullscreenenter"",""1"",""2254""
","
","","","1444","","","25","1215","536","&#9761;","elianto","#3366ff99","-1"," ","0","0","[2293]","1","0","2","","","","","","","","",""
"pit-trial","28","397233","0.0-2.0-11.0-1.0","battery-v0.2","","""event"",""trial"",""time""
""fullscreenenter"",""1"",""2254""
""blur"",""7"",""30187""
""focus"",""7"",""30293""
""blur"",""7"",""30525""
""focus"",""7"",""30592""
","""event"",""trial"",""time""
""blur"",""7"",""30187""
""blur"",""7"",""30525""
","""event"",""trial"",""time""
""focus"",""7"",""30293""
""focus"",""7"",""30592""
","""event"",""trial"",""time""
""fullscreenenter"",""1"",""2254""
","
","","","854","","","25","1215","536","&#9761;","elianto","#3366ff99","-1"," ","0","0","[1704]","1","0","2","","","","","","","","",""
"pit-trial","29","400639","0.0-2.0-11.0-2.0","battery-v0.2","","""event"",""trial"",""time""
""fullscreenenter"",""1"",""2254""
""blur"",""7"",""30187""
""focus"",""7"",""30293""
""blur"",""7"",""30525""
""focus"",""7"",""30592""
","""event"",""trial"",""time""
""blur"",""7"",""30187""
""blur"",""7"",""30525""
","""event"",""trial"",""time""
""focus"",""7"",""30293""
""focus"",""7"",""30592""
","""event"",""trial"",""time""
""fullscreenenter"",""1"",""2254""
","
","","","548","","","25","1215","536","&#9761;","elianto","#3366ff99","-1"," ","0","0","[1401]","1","0","2","","","","","","","","",""
"pit-trial","30","403970","0.0-2.0-11.0-3.0","battery-v0.2","","""event"",""trial"",""time""
""fullscreenenter"",""1"",""2254""
""blur"",""7"",""30187""
""focus"",""7"",""30293""
""blur"",""7"",""30525""
""focus"",""7"",""30592""
","""event"",""trial"",""time""
""blur"",""7"",""30187""
""blur"",""7"",""30525""
","""event"",""trial"",""time""
""focus"",""7"",""30293""
""focus"",""7"",""30592""
","""event"",""trial"",""time""
""fullscreenenter"",""1"",""2254""
","
","","","479","","","25","1215","536","&#9761;","elianto","#3366ff99","-1"," ","0","+10","[1329]","1","0","2","","","","","","","","",""
"pit-trial","31","407355","0.0-2.0-11.0-4.0","battery-v0.2","","""event"",""trial"",""time""
""fullscreenenter"",""1"",""2254""
""blur"",""7"",""30187""
""focus"",""7"",""30293""
""blur"",""7"",""30525""
""focus"",""7"",""30592""
","""event"",""trial"",""time""
""blur"",""7"",""30187""
""blur"",""7"",""30525""
","""event"",""trial"",""time""
""focus"",""7"",""30293""
""focus"",""7"",""30592""
","""event"",""trial"",""time""
""fullscreenenter"",""1"",""2254""
","
","","","531","","","25","1215","536","&#9761;","elianto","#3366ff99","-1"," ","0","0","[1383]","1","0","2","","","","","","","","",""
"pit-trial","32","410840","0.0-2.0-11.1-0.1","battery-v0.2","","""event"",""trial"",""time""
""fullscreenenter"",""1"",""2254""
""blur"",""7"",""30187""
""focus"",""7"",""30293""
""blur"",""7"",""30525""
""focus"",""7"",""30592""
","""event"",""trial"",""time""
""blur"",""7"",""30187""
""blur"",""7"",""30525""
","""event"",""trial"",""time""
""focus"",""7"",""30293""
""focus"",""7"",""30592""
","""event"",""trial"",""time""
""fullscreenenter"",""1"",""2254""
","
","","","630","","","25","1215","536","&#9761;","elianto","#3366ff99","-1"," ","0","0","[1479]","1","0","2","","","","","","","","",""
"pit-trial","33","414254","0.0-2.0-11.1-1.1","battery-v0.2","","""event"",""trial"",""time""
""fullscreenenter"",""1"",""2254""
""blur"",""7"",""30187""
""focus"",""7"",""30293""
""blur"",""7"",""30525""
""focus"",""7"",""30592""
","""event"",""trial"",""time""
""blur"",""7"",""30187""
""blur"",""7"",""30525""
","""event"",""trial"",""time""
""focus"",""7"",""30293""
""focus"",""7"",""30592""
","""event"",""trial"",""time""
""fullscreenenter"",""1"",""2254""
","
","","","556","","","25","1215","536","&#9761;","elianto","#3366ff99","-1"," ","0","0","[1407]","1","0","2","","","","","","","","",""
"pit-trial","34","417597","0.0-2.0-11.1-2.1","battery-v0.2","","""event"",""trial"",""time""
""fullscreenenter"",""1"",""2254""
""blur"",""7"",""30187""
""focus"",""7"",""30293""
""blur"",""7"",""30525""
""focus"",""7"",""30592""
","""event"",""trial"",""time""
""blur"",""7"",""30187""
""blur"",""7"",""30525""
","""event"",""trial"",""time""
""focus"",""7"",""30293""
""focus"",""7"",""30592""
","""event"",""trial"",""time""
""fullscreenenter"",""1"",""2254""
","
","","","487","","","25","1215","536","&#9761;","elianto","#3366ff99","-1"," ","0","0","[1337]","1","0","2","","","","","","","","",""
"pit-trial","35","420854","0.0-2.0-11.1-3.1","battery-v0.2","","""event"",""trial"",""time""
""fullscreenenter"",""1"",""2254""
""blur"",""7"",""30187""
""focus"",""7"",""30293""
""blur"",""7"",""30525""
""focus"",""7"",""30592""
","""event"",""trial"",""time""
""blur"",""7"",""30187""
""blur"",""7"",""30525""
","""event"",""trial"",""time""
""focus"",""7"",""30293""
""focus"",""7"",""30592""
","""event"",""trial"",""time""
""fullscreenenter"",""1"",""2254""
","
","","","400","","","25","1215","536","&#9761;","elianto","#3366ff99","-1"," ","0","+10","[1251]","1","0","2","","","","","","","","",""
"pit-trial","36","424387","0.0-2.0-11.1-4.1","battery-v0.2","","""event"",""trial"",""time""
""fullscreenenter"",""1"",""2254""
""blur"",""7"",""30187""
""focus"",""7"",""30293""
""blur"",""7"",""30525""
""focus"",""7"",""30592""
","""event"",""trial"",""time""
""blur"",""7"",""30187""
""blur"",""7"",""30525""
","""event"",""trial"",""time""
""focus"",""7"",""30293""
""focus"",""7"",""30592""
","""event"",""trial"",""time""
""fullscreenenter"",""1"",""2254""
","
","","","677","","","25","1215","536","&#9761;","elianto","#3366ff99","-1"," ","0","0","[1527]","1","0","2","","","","","","","","",""
"pit-trial","37","427706","0.0-2.0-11.2-0.2","battery-v0.2","","""event"",""trial"",""time""
""fullscreenenter"",""1"",""2254""
""blur"",""7"",""30187""
""focus"",""7"",""30293""
""blur"",""7"",""30525""
""focus"",""7"",""30592""
","""event"",""trial"",""time""
""blur"",""7"",""30187""
""blur"",""7"",""30525""
","""event"",""trial"",""time""
""focus"",""7"",""30293""
""focus"",""7"",""30592""
","""event"",""trial"",""time""
""fullscreenenter"",""1"",""2254""
","
","","","464","","","25","1215","536","&#9761;","elianto","#3366ff99","-1"," ","0","0","[1315]","1","0","2","","","","","","","","",""
"pit-trial","38","431155","0.0-2.0-11.2-1.2","battery-v0.2","","""event"",""trial"",""time""
""fullscreenenter"",""1"",""2254""
""blur"",""7"",""30187""
""focus"",""7"",""30293""
""blur"",""7"",""30525""
""focus"",""7"",""30592""
","""event"",""trial"",""time""
""blur"",""7"",""30187""
""blur"",""7"",""30525""
","""event"",""trial"",""time""
""focus"",""7"",""30293""
""focus"",""7"",""30592""
","""event"",""trial"",""time""
""fullscreenenter"",""1"",""2254""
","
","","","593","","","25","1215","536","&#9761;","elianto","#3366ff99","-1"," ","0","0","[1444]","1","0","2","","","","","","","","",""
"pit-trial","39","434507","0.0-2.0-11.2-2.2","battery-v0.2","","""event"",""trial"",""time""
""fullscreenenter"",""1"",""2254""
""blur"",""7"",""30187""
""focus"",""7"",""30293""
""blur"",""7"",""30525""
""focus"",""7"",""30592""
","""event"",""trial"",""time""
""blur"",""7"",""30187""
""blur"",""7"",""30525""
","""event"",""trial"",""time""
""focus"",""7"",""30293""
""focus"",""7"",""30592""
","""event"",""trial"",""time""
""fullscreenenter"",""1"",""2254""
","
","","","495","","","25","1215","536","&#9761;","elianto","#3366ff99","-1"," ","0","0","[1346]","1","0","2","","","","","","","","",""
"pit-trial","40","438855","0.0-2.0-11.2-3.2","battery-v0.2","","""event"",""trial"",""time""
""fullscreenenter"",""1"",""2254""
""blur"",""7"",""30187""
""focus"",""7"",""30293""
""blur"",""7"",""30525""
""focus"",""7"",""30592""
","""event"",""trial"",""time""
""blur"",""7"",""30187""
""blur"",""7"",""30525""
","""event"",""trial"",""time""
""focus"",""7"",""30293""
""focus"",""7"",""30592""
","""event"",""trial"",""time""
""fullscreenenter"",""1"",""2254""
","
","","","1493","","","25","1215","536","&#9761;","elianto","#3366ff99","-1"," ","0","+10","[2342]","1","0","2","","","","","","","","",""
"pit-trial","41","442910","0.0-2.0-11.2-4.2","battery-v0.2","","""event"",""trial"",""time""
""fullscreenenter"",""1"",""2254""
""blur"",""7"",""30187""
""focus"",""7"",""30293""
""blur"",""7"",""30525""
""focus"",""7"",""30592""
","""event"",""trial"",""time""
""blur"",""7"",""30187""
""blur"",""7"",""30525""
","""event"",""trial"",""time""
""focus"",""7"",""30293""
""focus"",""7"",""30592""
","""event"",""trial"",""time""
""fullscreenenter"",""1"",""2254""
","
","","","1199","","","25","1215","536","&#9761;","elianto","#3366ff99","-1"," ","0","0","[2050]","1","0","2","","","","","","","","",""
"pit-trial","42","446364","0.0-2.0-11.3-0.3","battery-v0.2","","""event"",""trial"",""time""
""fullscreenenter"",""1"",""2254""
""blur"",""7"",""30187""
""focus"",""7"",""30293""
""blur"",""7"",""30525""
""focus"",""7"",""30592""
","""event"",""trial"",""time""
""blur"",""7"",""30187""
""blur"",""7"",""30525""
","""event"",""trial"",""time""
""focus"",""7"",""30293""
""focus"",""7"",""30592""
","""event"",""trial"",""time""
""fullscreenenter"",""1"",""2254""
","
","","","598","","","25","1215","536","&#9761;","elianto","#3366ff99","-1"," ","0","0","[1449]","1","0","2","","","","","","","","",""
"pit-trial","43","450243","0.0-2.0-11.3-1.3","battery-v0.2","","""event"",""trial"",""time""
""fullscreenenter"",""1"",""2254""
""blur"",""7"",""30187""
""focus"",""7"",""30293""
""blur"",""7"",""30525""
""focus"",""7"",""30592""
","""event"",""trial"",""time""
""blur"",""7"",""30187""
""blur"",""7"",""30525""
","""event"",""trial"",""time""
""focus"",""7"",""30293""
""focus"",""7"",""30592""
","""event"",""trial"",""time""
""fullscreenenter"",""1"",""2254""
","
","","","1025","","","25","1215","536","&#9761;","elianto","#3366ff99","-1"," ","0","0","[498,1875]","2","0","2","","","","","","","","",""
"pit-trial","44","453681","0.0-2.0-11.3-2.3","battery-v0.2","","""event"",""trial"",""time""
""fullscreenenter"",""1"",""2254""
""blur"",""7"",""30187""
""focus"",""7"",""30293""
""blur"",""7"",""30525""
""focus"",""7"",""30592""
","""event"",""trial"",""time""
""blur"",""7"",""30187""
""blur"",""7"",""30525""
","""event"",""trial"",""time""
""focus"",""7"",""30293""
""focus"",""7"",""30592""
","""event"",""trial"",""time""
""fullscreenenter"",""1"",""2254""
","
","","","583","","","25","1215","536","&#9761;","elianto","#3366ff99","-1"," ","0","0","[1433]","1","0","2","","","","","","","","",""
"pit-trial","45","456918","0.0-2.0-11.3-3.3","battery-v0.2","","""event"",""trial"",""time""
""fullscreenenter"",""1"",""2254""
""blur"",""7"",""30187""
""focus"",""7"",""30293""
""blur"",""7"",""30525""
""focus"",""7"",""30592""
","""event"",""trial"",""time""
""blur"",""7"",""30187""
""blur"",""7"",""30525""
","""event"",""trial"",""time""
""focus"",""7"",""30293""
""focus"",""7"",""30592""
","""event"",""trial"",""time""
""fullscreenenter"",""1"",""2254""
","
","","","382","","","25","1215","536","&#9761;","elianto","#3366ff99","-1"," ","0","+10","[1233]","1","0","2","","","","","","","","",""
"pit-trial","46","460192","0.0-2.0-11.3-4.3","battery-v0.2","","""event"",""trial"",""time""
""fullscreenenter"",""1"",""2254""
""blur"",""7"",""30187""
""focus"",""7"",""30293""
""blur"",""7"",""30525""
""focus"",""7"",""30592""
","""event"",""trial"",""time""
""blur"",""7"",""30187""
""blur"",""7"",""30525""
","""event"",""trial"",""time""
""focus"",""7"",""30293""
""focus"",""7"",""30592""
","""event"",""trial"",""time""
""fullscreenenter"",""1"",""2254""
","
","","","419","","","25","1215","536","&#9761;","elianto","#3366ff99","-1"," ","0","0","[1269]","1","0","2","","","","","","","","",""
"pit-trial","47","463443","0.0-2.0-11.4-0.4","battery-v0.2","","""event"",""trial"",""time""
""fullscreenenter"",""1"",""2254""
""blur"",""7"",""30187""
""focus"",""7"",""30293""
""blur"",""7"",""30525""
""focus"",""7"",""30592""
","""event"",""trial"",""time""
""blur"",""7"",""30187""
""blur"",""7"",""30525""
","""event"",""trial"",""time""
""focus"",""7"",""30293""
""focus"",""7"",""30592""
","""event"",""trial"",""time""
""fullscreenenter"",""1"",""2254""
","
","","","394","","","25","1215","536","&#9761;","elianto","#3366ff99","-1"," ","0","0","[1245]","1","0","2","","","","","","","","",""
"pit-trial","48","466929","0.0-2.0-11.4-1.4","battery-v0.2","","""event"",""trial"",""time""
""fullscreenenter"",""1"",""2254""
""blur"",""7"",""30187""
""focus"",""7"",""30293""
""blur"",""7"",""30525""
""focus"",""7"",""30592""
","""event"",""trial"",""time""
""blur"",""7"",""30187""
""blur"",""7"",""30525""
","""event"",""trial"",""time""
""focus"",""7"",""30293""
""focus"",""7"",""30592""
","""event"",""trial"",""time""
""fullscreenenter"",""1"",""2254""
","
","","","631","","","25","1215","536","&#9761;","elianto","#3366ff99","-1"," ","0","0","[1480]","1","0","2","","","","","","","","",""
"pit-trial","49","470368","0.0-2.0-11.4-2.4","battery-v0.2","","""event"",""trial"",""time""
""fullscreenenter"",""1"",""2254""
""blur"",""7"",""30187""
""focus"",""7"",""30293""
""blur"",""7"",""30525""
""focus"",""7"",""30592""
","""event"",""trial"",""time""
""blur"",""7"",""30187""
""blur"",""7"",""30525""
","""event"",""trial"",""time""
""focus"",""7"",""30293""
""focus"",""7"",""30592""
","""event"",""trial"",""time""
""fullscreenenter"",""1"",""2254""
","
","","","584","","","25","1215","536","&#9761;","elianto","#3366ff99","-1"," ","0","0","[1434]","1","0","2","","","","","","","","",""
"pit-trial","50","473661","0.0-2.0-11.4-3.4","battery-v0.2","","""event"",""trial"",""time""
""fullscreenenter"",""1"",""2254""
""blur"",""7"",""30187""
""focus"",""7"",""30293""
""blur"",""7"",""30525""
""focus"",""7"",""30592""
","""event"",""trial"",""time""
""blur"",""7"",""30187""
""blur"",""7"",""30525""
","""event"",""trial"",""time""
""focus"",""7"",""30293""
""focus"",""7"",""30592""
","""event"",""trial"",""time""
""fullscreenenter"",""1"",""2254""
","
","","","437","","","25","1215","536","&#9761;","elianto","#3366ff99","-1"," ","0","+10","[1288]","1","0","2","","","","","","","","",""
"pit-trial","51","478517","0.0-2.0-11.4-4.4","battery-v0.2","","""event"",""trial"",""time""
""fullscreenenter"",""1"",""2254""
""blur"",""7"",""30187""
""focus"",""7"",""30293""
""blur"",""7"",""30525""
""focus"",""7"",""30592""
","""event"",""trial"",""time""
""blur"",""7"",""30187""
""blur"",""7"",""30525""
","""event"",""trial"",""time""
""focus"",""7"",""30293""
""focus"",""7"",""30592""
","""event"",""trial"",""time""
""fullscreenenter"",""1"",""2254""
","
","","","-1","","","25","1215","536","&#9761;","elianto","#3366ff99","-1","-1","1","+10","[4285]","1","0","2","","","","","","","","",""
"pit-instructions","52","501059","0.0-2.0-11.4-5.4-0.4","battery-v0.2","","""event"",""trial"",""time""
""fullscreenenter"",""1"",""2254""
""blur"",""7"",""30187""
""focus"",""7"",""30293""
""blur"",""7"",""30525""
""focus"",""7"",""30592""
","""event"",""trial"",""time""
""blur"",""7"",""30187""
""blur"",""7"",""30525""
","""event"",""trial"",""time""
""focus"",""7"",""30293""
""focus"",""7"",""30592""
","""event"",""trial"",""time""
""fullscreenenter"",""1"",""2254""
","
","","[{""page_index"":0,""viewing_time"":8114},{""page_index"":1,""viewing_time"":5587},{""page_index"":2,""viewing_time"":8837}]","22539","","","","","","","","","","","","","","","","","","","","","","","","",""
"pit-trial","53","504626","0.0-2.0-11.5-0.5","battery-v0.2","","""event"",""trial"",""time""
""fullscreenenter"",""1"",""2254""
""blur"",""7"",""30187""
""focus"",""7"",""30293""
""blur"",""7"",""30525""
""focus"",""7"",""30592""
","""event"",""trial"",""time""
""blur"",""7"",""30187""
""blur"",""7"",""30525""
","""event"",""trial"",""time""
""focus"",""7"",""30293""
""focus"",""7"",""30592""
","""event"",""trial"",""time""
""fullscreenenter"",""1"",""2254""
","
","","","710","","","25","1215","536","&#9761;","elianto","#3366ff99","-1"," ","0","0","[1559]","1","0","2","","","","","","","","",""
"pit-trial","54","509482","0.0-2.0-11.5-1.5","battery-v0.2","","""event"",""trial"",""time""
""fullscreenenter"",""1"",""2254""
""blur"",""7"",""30187""
""focus"",""7"",""30293""
""blur"",""7"",""30525""
""focus"",""7"",""30592""
","""event"",""trial"",""time""
""blur"",""7"",""30187""
""blur"",""7"",""30525""
","""event"",""trial"",""time""
""focus"",""7"",""30293""
""focus"",""7"",""30592""
","""event"",""trial"",""time""
""fullscreenenter"",""1"",""2254""
","
","","","-1","","","25","1215","536","&#9761;","elianto","#3366ff99","-1","-1","1","+10","[]","0","0","2","","","","","","","","",""
"pit-trial","55","514337","0.0-2.0-11.5-2.5","battery-v0.2","","""event"",""trial"",""time""
""fullscreenenter"",""1"",""2254""
""blur"",""7"",""30187""
""focus"",""7"",""30293""
""blur"",""7"",""30525""
""focus"",""7"",""30592""
","""event"",""trial"",""time""
""blur"",""7"",""30187""
""blur"",""7"",""30525""
","""event"",""trial"",""time""
""focus"",""7"",""30293""
""focus"",""7"",""30592""
","""event"",""trial"",""time""
""fullscreenenter"",""1"",""2254""
","
","","","-1","","","25","1215","536","&#9761;","elianto","#3366ff99","-1","-1","1","+10","[]","0","0","2","","","","","","","","",""
"pit-trial","56","519193","0.0-2.0-11.5-3.5","battery-v0.2","","""event"",""trial"",""time""
""fullscreenenter"",""1"",""2254""
""blur"",""7"",""30187""
""focus"",""7"",""30293""
""blur"",""7"",""30525""
""focus"",""7"",""30592""
","""event"",""trial"",""time""
""blur"",""7"",""30187""
""blur"",""7"",""30525""
","""event"",""trial"",""time""
""focus"",""7"",""30293""
""focus"",""7"",""30592""
","""event"",""trial"",""time""
""fullscreenenter"",""1"",""2254""
","
","","","-1","","","25","1215","536","&#9761;","elianto","#3366ff99","-1","-1","1","0","[]","0","0","2","","","","","","","","",""
"pit-trial","57","524048","0.0-2.0-11.5-4.5","battery-v0.2","","""event"",""trial"",""time""
""fullscreenenter"",""1"",""2254""
""blur"",""7"",""30187""
""focus"",""7"",""30293""
""blur"",""7"",""30525""
""focus"",""7"",""30592""
","""event"",""trial"",""time""
""blur"",""7"",""30187""
""blur"",""7"",""30525""
","""event"",""trial"",""time""
""focus"",""7"",""30293""
""focus"",""7"",""30592""
","""event"",""trial"",""time""
""fullscreenenter"",""1"",""2254""
","
","","","-1","","","25","1215","536","&#9761;","elianto","#3366ff99","-1","-1","1","+10","[]","0","0","2","","","","","","","","",""
"call-function","58","524051","0.0-2.0-12.0","battery-v0.2","","""event"",""trial"",""time""
""fullscreenenter"",""1"",""2254""
""blur"",""7"",""30187""
""focus"",""7"",""30293""
""blur"",""7"",""30525""
""focus"",""7"",""30592""
","""event"",""trial"",""time""
""blur"",""7"",""30187""
""blur"",""7"",""30525""
","""event"",""trial"",""time""
""focus"",""7"",""30293""
""focus"",""7"",""30592""
","""event"",""trial"",""time""
""fullscreenenter"",""1"",""2254""
","
","","","","","","","","","","","","","","","","","","","","","","","","","","","",""
"pit-instructions","59","559638","0.0-2.0-13.0","battery-v0.2","","""event"",""trial"",""time""
""fullscreenenter"",""1"",""2254""
""blur"",""7"",""30187""
""focus"",""7"",""30293""
""blur"",""7"",""30525""
""focus"",""7"",""30592""
","""event"",""trial"",""time""
""blur"",""7"",""30187""
""blur"",""7"",""30525""
","""event"",""trial"",""time""
""focus"",""7"",""30293""
""focus"",""7"",""30592""
","""event"",""trial"",""time""
""fullscreenenter"",""1"",""2254""
","
","","[{""page_index"":0,""viewing_time"":6437},{""page_index"":1,""viewing_time"":7631},{""page_index"":2,""viewing_time"":3210},{""page_index"":3,""viewing_time"":12077},{""page_index"":4,""viewing_time"":6229}]","35585","","","","","","","","","","","","","","","","","","","","","","","","",""
"pit-trial","60","563074","0.0-2.0-14.0-0.0","battery-v0.2","","""event"",""trial"",""time""
""fullscreenenter"",""1"",""2254""
""blur"",""7"",""30187""
""focus"",""7"",""30293""
""blur"",""7"",""30525""
""focus"",""7"",""30592""
","""event"",""trial"",""time""
""blur"",""7"",""30187""
""blur"",""7"",""30525""
","""event"",""trial"",""time""
""focus"",""7"",""30293""
""focus"",""7"",""30592""
","""event"",""trial"",""time""
""fullscreenenter"",""1"",""2254""
","
","","","579","","","25","1215","536","&#9826;","elianto","#f73b6a7A","-1"," ","0","-10","[1429]","1","0","3","","","","","","","","",""
"pit-trial","61","567927","0.0-2.0-14.0-1.0","battery-v0.2","","""event"",""trial"",""time""
""fullscreenenter"",""1"",""2254""
""blur"",""7"",""30187""
""focus"",""7"",""30293""
""blur"",""7"",""30525""
""focus"",""7"",""30592""
","""event"",""trial"",""time""
""blur"",""7"",""30187""
""blur"",""7"",""30525""
","""event"",""trial"",""time""
""focus"",""7"",""30293""
""focus"",""7"",""30592""
","""event"",""trial"",""time""
""fullscreenenter"",""1"",""2254""
","
","","","-1","","","25","1215","536","&#9826;","elianto","#f73b6a7A","-1","-1","1","0","[]","0","0","3","","","","","","","","",""
"pit-trial","62","572783","0.0-2.0-14.0-2.0","battery-v0.2","","""event"",""trial"",""time""
""fullscreenenter"",""1"",""2254""
""blur"",""7"",""30187""
""focus"",""7"",""30293""
""blur"",""7"",""30525""
""focus"",""7"",""30592""
","""event"",""trial"",""time""
""blur"",""7"",""30187""
""blur"",""7"",""30525""
","""event"",""trial"",""time""
""focus"",""7"",""30293""
""focus"",""7"",""30592""
","""event"",""trial"",""time""
""fullscreenenter"",""1"",""2254""
","
","","","-1","","","25","1215","536","&#9826;","elianto","#f73b6a7A","-1","-1","1","0","[]","0","0","3","","","","","","","","",""
"pit-trial","63","577639","0.0-2.0-14.0-3.0","battery-v0.2","","""event"",""trial"",""time""
""fullscreenenter"",""1"",""2254""
""blur"",""7"",""30187""
""focus"",""7"",""30293""
""blur"",""7"",""30525""
""focus"",""7"",""30592""
","""event"",""trial"",""time""
""blur"",""7"",""30187""
""blur"",""7"",""30525""
","""event"",""trial"",""time""
""focus"",""7"",""30293""
""focus"",""7"",""30592""
","""event"",""trial"",""time""
""fullscreenenter"",""1"",""2254""
","
","","","-1","","","25","1215","536","&#9826;","elianto","#f73b6a7A","-1","-1","1","-10","[]","0","0","3","","","","","","","","",""
"pit-trial","64","582495","0.0-2.0-14.0-4.0","battery-v0.2","","""event"",""trial"",""time""
""fullscreenenter"",""1"",""2254""
""blur"",""7"",""30187""
""focus"",""7"",""30293""
""blur"",""7"",""30525""
""focus"",""7"",""30592""
","""event"",""trial"",""time""
""blur"",""7"",""30187""
""blur"",""7"",""30525""
","""event"",""trial"",""time""
""focus"",""7"",""30293""
""focus"",""7"",""30592""
","""event"",""trial"",""time""
""fullscreenenter"",""1"",""2254""
","
","","","-1","","","25","1215","536","&#9826;","elianto","#f73b6a7A","-1","-1","1","0","[]","0","0","3","","","","","","","","",""
"call-function","65","582497","0.0-2.0-15.0","battery-v0.2","","""event"",""trial"",""time""
""fullscreenenter"",""1"",""2254""
""blur"",""7"",""30187""
""focus"",""7"",""30293""
""blur"",""7"",""30525""
""focus"",""7"",""30592""
","""event"",""trial"",""time""
""blur"",""7"",""30187""
""blur"",""7"",""30525""
","""event"",""trial"",""time""
""focus"",""7"",""30293""
""focus"",""7"",""30592""
","""event"",""trial"",""time""
""fullscreenenter"",""1"",""2254""
","
","","","","","","","","","","","","","","","","","","","","","","","","","","","",""
"pit-instructions","66","611873","0.0-2.0-16.0","battery-v0.2","","""event"",""trial"",""time""
""fullscreenenter"",""1"",""2254""
""blur"",""7"",""30187""
""focus"",""7"",""30293""
""blur"",""7"",""30525""
""focus"",""7"",""30592""
","""event"",""trial"",""time""
""blur"",""7"",""30187""
""blur"",""7"",""30525""
","""event"",""trial"",""time""
""focus"",""7"",""30293""
""focus"",""7"",""30592""
","""event"",""trial"",""time""
""fullscreenenter"",""1"",""2254""
","
","","[{""page_index"":0,""viewing_time"":7380},{""page_index"":1,""viewing_time"":11471},{""page_index"":2,""viewing_time"":5768},{""page_index"":3,""viewing_time"":4755}]","29375","","","","","","","","","","","","","","","","","","","","","","","","",""
"pit-trial","67","615226","0.0-2.0-17.0-0.0","battery-v0.2","","""event"",""trial"",""time""
""fullscreenenter"",""1"",""2254""
""blur"",""7"",""30187""
""focus"",""7"",""30293""
""blur"",""7"",""30525""
""focus"",""7"",""30592""
","""event"",""trial"",""time""
""blur"",""7"",""30187""
""blur"",""7"",""30525""
","""event"",""trial"",""time""
""focus"",""7"",""30293""
""focus"",""7"",""30592""
","""event"",""trial"",""time""
""fullscreenenter"",""1"",""2254""
","
","","","497","","","25","1215","536","&#9789;","elianto","#f73b6a7A"," "," ","1","0","[1347]","1","0","4","","","","","","","","",""
"pit-trial","68","618457","0.0-2.0-17.0-1.0","battery-v0.2","","""event"",""trial"",""time""
""fullscreenenter"",""1"",""2254""
""blur"",""7"",""30187""
""focus"",""7"",""30293""
""blur"",""7"",""30525""
""focus"",""7"",""30592""
","""event"",""trial"",""time""
""blur"",""7"",""30187""
""blur"",""7"",""30525""
","""event"",""trial"",""time""
""focus"",""7"",""30293""
""focus"",""7"",""30592""
","""event"",""trial"",""time""
""fullscreenenter"",""1"",""2254""
","
","","","375","","","25","1215","536","&#9789;","elianto","#f73b6a7A"," "," ","1","0","[1227]","1","0","4","","","","","","","","",""
"pit-trial","69","621652","0.0-2.0-17.0-2.0","battery-v0.2","","""event"",""trial"",""time""
""fullscreenenter"",""1"",""2254""
""blur"",""7"",""30187""
""focus"",""7"",""30293""
""blur"",""7"",""30525""
""focus"",""7"",""30592""
","""event"",""trial"",""time""
""blur"",""7"",""30187""
""blur"",""7"",""30525""
","""event"",""trial"",""time""
""focus"",""7"",""30293""
""focus"",""7"",""30592""
","""event"",""trial"",""time""
""fullscreenenter"",""1"",""2254""
","
","","","339","","","25","1215","536","&#9789;","elianto","#f73b6a7A"," "," ","1","0","[1189]","1","0","4","","","","","","","","",""
"pit-trial","70","624792","0.0-2.0-17.0-3.0","battery-v0.2","","""event"",""trial"",""time""
""fullscreenenter"",""1"",""2254""
""blur"",""7"",""30187""
""focus"",""7"",""30293""
""blur"",""7"",""30525""
""focus"",""7"",""30592""
","""event"",""trial"",""time""
""blur"",""7"",""30187""
""blur"",""7"",""30525""
","""event"",""trial"",""time""
""focus"",""7"",""30293""
""focus"",""7"",""30592""
","""event"",""trial"",""time""
""fullscreenenter"",""1"",""2254""
","
","","","285","","","25","1215","536","&#9789;","elianto","#f73b6a7A"," "," ","1","-10","[1136]","1","0","4","","","","","","","","",""
"pit-trial","71","628029","0.0-2.0-17.0-4.0","battery-v0.2","","""event"",""trial"",""time""
""fullscreenenter"",""1"",""2254""
""blur"",""7"",""30187""
""focus"",""7"",""30293""
""blur"",""7"",""30525""
""focus"",""7"",""30592""
","""event"",""trial"",""time""
""blur"",""7"",""30187""
""blur"",""7"",""30525""
","""event"",""trial"",""time""
""focus"",""7"",""30293""
""focus"",""7"",""30592""
","""event"",""trial"",""time""
""fullscreenenter"",""1"",""2254""
","
","","","378","","","25","1215","536","&#9789;","elianto","#f73b6a7A"," "," ","1","0","[1229]","1","0","4","","","","","","","","",""
"call-function","72","628032","0.0-2.0-18.0","battery-v0.2","","""event"",""trial"",""time""
""fullscreenenter"",""1"",""2254""
""blur"",""7"",""30187""
""focus"",""7"",""30293""
""blur"",""7"",""30525""
""focus"",""7"",""30592""
","""event"",""trial"",""time""
""blur"",""7"",""30187""
""blur"",""7"",""30525""
","""event"",""trial"",""time""
""focus"",""7"",""30293""
""focus"",""7"",""30592""
","""event"",""trial"",""time""
""fullscreenenter"",""1"",""2254""
","
","","","","","","","","","","","","","","","","","","","","","","","","","","","",""
"pit-instructions","73","705169","0.0-2.0-19.0","battery-v0.2","","""event"",""trial"",""time""
""fullscreenenter"",""1"",""2254""
""blur"",""7"",""30187""
""focus"",""7"",""30293""
""blur"",""7"",""30525""
""focus"",""7"",""30592""
","""event"",""trial"",""time""
""blur"",""7"",""30187""
""blur"",""7"",""30525""
","""event"",""trial"",""time""
""focus"",""7"",""30293""
""focus"",""7"",""30592""
","""event"",""trial"",""time""
""fullscreenenter"",""1"",""2254""
","
","","[{""page_index"":0,""viewing_time"":7350},{""page_index"":1,""viewing_time"":6333},{""page_index"":2,""viewing_time"":15173},{""page_index"":3,""viewing_time"":7811},{""page_index"":4,""viewing_time"":9674},{""page_index"":5,""viewing_time"":10059},{""page_index"":6,""viewing_time"":8080},{""page_index"":7,""viewing_time"":9174},{""page_index"":8,""viewing_time"":3481}]","77136","","","","","","","","","","","","","","","","","","","","","","","","",""
"pit-comprehension","74","710852","0.0-2.0-20.0-0.0","battery-v0.2","","""event"",""trial"",""time""
""fullscreenenter"",""1"",""2254""
""blur"",""7"",""30187""
""focus"",""7"",""30293""
""blur"",""7"",""30525""
""focus"",""7"",""30592""
","""event"",""trial"",""time""
""blur"",""7"",""30187""
""blur"",""7"",""30525""
","""event"",""trial"",""time""
""focus"",""7"",""30293""
""focus"",""7"",""30592""
","""event"",""trial"",""time""
""fullscreenenter"",""1"",""2254""
","
","","","5671","[""SPACE""]","0","25","1215","536","","","","","","","","","","","","","","","","","","","",""
"pit-instructions","75","714792","0.0-2.0-20.0-1.0","battery-v0.2","","""event"",""trial"",""time""
""fullscreenenter"",""1"",""2254""
""blur"",""7"",""30187""
""focus"",""7"",""30293""
""blur"",""7"",""30525""
""focus"",""7"",""30592""
","""event"",""trial"",""time""
""blur"",""7"",""30187""
""blur"",""7"",""30525""
","""event"",""trial"",""time""
""focus"",""7"",""30293""
""focus"",""7"",""30592""
","""event"",""trial"",""time""
""fullscreenenter"",""1"",""2254""
","
","","[{""page_index"":0,""viewing_time"":3886}]","3886","","","","","","","","","","","","","","","","","","","","","","","","",""
"pit-comprehension","76","721067","0.0-2.0-21.0-0.0","battery-v0.2","","""event"",""trial"",""time""
""fullscreenenter"",""1"",""2254""
""blur"",""7"",""30187""
""focus"",""7"",""30293""
""blur"",""7"",""30525""
""focus"",""7"",""30592""
","""event"",""trial"",""time""
""blur"",""7"",""30187""
""blur"",""7"",""30525""
","""event"",""trial"",""time""
""focus"",""7"",""30293""
""focus"",""7"",""30592""
","""event"",""trial"",""time""
""fullscreenenter"",""1"",""2254""
","
","","","6261","[""10""]","0","25","1215","536","","","","","","","","","","","","","","","","","","","",""
"pit-instructions","77","726907","0.0-2.0-21.0-1.0","battery-v0.2","","""event"",""trial"",""time""
""fullscreenenter"",""1"",""2254""
""blur"",""7"",""30187""
""focus"",""7"",""30293""
""blur"",""7"",""30525""
""focus"",""7"",""30592""
","""event"",""trial"",""time""
""blur"",""7"",""30187""
""blur"",""7"",""30525""
","""event"",""trial"",""time""
""focus"",""7"",""30293""
""focus"",""7"",""30592""
","""event"",""trial"",""time""
""fullscreenenter"",""1"",""2254""
","
","","[{""page_index"":0,""viewing_time"":5791}]","5792","","","","","","","","","","","","","","","","","","","","","","","","",""
"pit-comprehension","78","733875","0.0-2.0-22.0-0.0","battery-v0.2","","""event"",""trial"",""time""
""fullscreenenter"",""1"",""2254""
""blur"",""7"",""30187""
""focus"",""7"",""30293""
""blur"",""7"",""30525""
""focus"",""7"",""30592""
","""event"",""trial"",""time""
""blur"",""7"",""30187""
""blur"",""7"",""30525""
","""event"",""trial"",""time""
""focus"",""7"",""30293""
""focus"",""7"",""30592""
","""event"",""trial"",""time""
""fullscreenenter"",""1"",""2254""
","
","","","6955","[""0""]","0","25","1215","536","","","","","","","","","","","","","","","","","","","",""
"pit-instructions","79","737391","0.0-2.0-22.0-1.0","battery-v0.2","","""event"",""trial"",""time""
""fullscreenenter"",""1"",""2254""
""blur"",""7"",""30187""
""focus"",""7"",""30293""
""blur"",""7"",""30525""
""focus"",""7"",""30592""
","""event"",""trial"",""time""
""blur"",""7"",""30187""
""blur"",""7"",""30525""
","""event"",""trial"",""time""
""focus"",""7"",""30293""
""focus"",""7"",""30592""
","""event"",""trial"",""time""
""fullscreenenter"",""1"",""2254""
","
","","[{""page_index"":0,""viewing_time"":3459}]","3460","","","","","","","","","","","","","","","","","","","","","","","","",""
"pit-comprehension","80","746026","0.0-2.0-23.0-0.0","battery-v0.2","","""event"",""trial"",""time""
""fullscreenenter"",""1"",""2254""
""blur"",""7"",""30187""
""focus"",""7"",""30293""
""blur"",""7"",""30525""
""focus"",""7"",""30592""
","""event"",""trial"",""time""
""blur"",""7"",""30187""
""blur"",""7"",""30525""
","""event"",""trial"",""time""
""focus"",""7"",""30293""
""focus"",""7"",""30592""
","""event"",""trial"",""time""
""fullscreenenter"",""1"",""2254""
","
","","","8623","[""True""]","0","25","1215","536","","","","","","","","","","","","","","","","","","","",""
"pit-instructions","81","750030","0.0-2.0-23.0-1.0","battery-v0.2","","""event"",""trial"",""time""
""fullscreenenter"",""1"",""2254""
""blur"",""7"",""30187""
""focus"",""7"",""30293""
""blur"",""7"",""30525""
""focus"",""7"",""30592""
","""event"",""trial"",""time""
""blur"",""7"",""30187""
""blur"",""7"",""30525""
","""event"",""trial"",""time""
""focus"",""7"",""30293""
""focus"",""7"",""30592""
","""event"",""trial"",""time""
""fullscreenenter"",""1"",""2254""
","
","","[{""page_index"":0,""viewing_time"":3948}]","3948","","","","","","","","","","","","","","","","","","","","","","","","",""
"pit-comprehension","82","757937","0.0-2.0-24.0-0.0","battery-v0.2","","""event"",""trial"",""time""
""fullscreenenter"",""1"",""2254""
""blur"",""7"",""30187""
""focus"",""7"",""30293""
""blur"",""7"",""30525""
""focus"",""7"",""30592""
","""event"",""trial"",""time""
""blur"",""7"",""30187""
""blur"",""7"",""30525""
","""event"",""trial"",""time""
""focus"",""7"",""30293""
""focus"",""7"",""30592""
","""event"",""trial"",""time""
""fullscreenenter"",""1"",""2254""
","
","","","7893","[""True""]","0","25","1215","536","","","","","","","","","","","","","","","","","","","",""
"pit-instructions","83","761451","0.0-2.0-24.0-1.0","battery-v0.2","","""event"",""trial"",""time""
""fullscreenenter"",""1"",""2254""
""blur"",""7"",""30187""
""focus"",""7"",""30293""
""blur"",""7"",""30525""
""focus"",""7"",""30592""
","""event"",""trial"",""time""
""blur"",""7"",""30187""
""blur"",""7"",""30525""
","""event"",""trial"",""time""
""focus"",""7"",""30293""
""focus"",""7"",""30592""
","""event"",""trial"",""time""
""fullscreenenter"",""1"",""2254""
","
","","[{""page_index"":0,""viewing_time"":3461}]","3462","","","","","","","","","","","","","","","","","","","","","","","","",""
"pit-comprehension","84","768521","0.0-2.0-25.0-0.0","battery-v0.2","","""event"",""trial"",""time""
""fullscreenenter"",""1"",""2254""
""blur"",""7"",""30187""
""focus"",""7"",""30293""
""blur"",""7"",""30525""
""focus"",""7"",""30592""
","""event"",""trial"",""time""
""blur"",""7"",""30187""
""blur"",""7"",""30525""
","""event"",""trial"",""time""
""focus"",""7"",""30293""
""focus"",""7"",""30592""
","""event"",""trial"",""time""
""fullscreenenter"",""1"",""2254""
","
","","","7060","[""True""]","0","25","1215","536","","","","","","","","","","","","","","","","","","","",""
"pit-instructions","85","771948","0.0-2.0-25.0-1.0","battery-v0.2","","""event"",""trial"",""time""
""fullscreenenter"",""1"",""2254""
""blur"",""7"",""30187""
""focus"",""7"",""30293""
""blur"",""7"",""30525""
""focus"",""7"",""30592""
","""event"",""trial"",""time""
""blur"",""7"",""30187""
""blur"",""7"",""30525""
","""event"",""trial"",""time""
""focus"",""7"",""30293""
""focus"",""7"",""30592""
","""event"",""trial"",""time""
""fullscreenenter"",""1"",""2254""
","
","","[{""page_index"":0,""viewing_time"":3375}]","3375","","","","","","","","","","","","","","","","","","","","","","","","",""
"pit-comprehension","86","778298","0.0-2.0-26.0-0.0","battery-v0.2","","""event"",""trial"",""time""
""fullscreenenter"",""1"",""2254""
""blur"",""7"",""30187""
""focus"",""7"",""30293""
""blur"",""7"",""30525""
""focus"",""7"",""30592""
","""event"",""trial"",""time""
""blur"",""7"",""30187""
""blur"",""7"",""30525""
","""event"",""trial"",""time""
""focus"",""7"",""30293""
""focus"",""7"",""30592""
","""event"",""trial"",""time""
""fullscreenenter"",""1"",""2254""
","
","","","6337","[""False""]","0","25","1215","536","","","","","","","","","","","","","","","","","","","",""
"pit-instructions","87","781442","0.0-2.0-26.0-1.0","battery-v0.2","","""event"",""trial"",""time""
""fullscreenenter"",""1"",""2254""
""blur"",""7"",""30187""
""focus"",""7"",""30293""
""blur"",""7"",""30525""
""focus"",""7"",""30592""
","""event"",""trial"",""time""
""blur"",""7"",""30187""
""blur"",""7"",""30525""
","""event"",""trial"",""time""
""focus"",""7"",""30293""
""focus"",""7"",""30592""
","""event"",""trial"",""time""
""fullscreenenter"",""1"",""2254""
","
","","[{""page_index"":0,""viewing_time"":3084}]","3085","","","","","","","","","","","","","","","","","","","","","","","","",""
"pit-instructions","88","797899","0.0-3.0","battery-v0.2","","""event"",""trial"",""time""
""fullscreenenter"",""1"",""2254""
""blur"",""7"",""30187""
""focus"",""7"",""30293""
""blur"",""7"",""30525""
""focus"",""7"",""30592""
","""event"",""trial"",""time""
""blur"",""7"",""30187""
""blur"",""7"",""30525""
","""event"",""trial"",""time""
""focus"",""7"",""30293""
""focus"",""7"",""30592""
","""event"",""trial"",""time""
""fullscreenenter"",""1"",""2254""
","
","","[{""page_index"":0,""viewing_time"":3896},{""page_index"":1,""viewing_time"":5168},{""page_index"":2,""viewing_time"":7384}]","16449","","","","","","","","","","","","","","","","","","","","","","","","",""
"pit-trial","89","801377","0.0-4.0","battery-v0.2","","""event"",""trial"",""time""
""fullscreenenter"",""1"",""2254""
""blur"",""7"",""30187""
""focus"",""7"",""30293""
""blur"",""7"",""30525""
""focus"",""7"",""30592""
","""event"",""trial"",""time""
""blur"",""7"",""30187""
""blur"",""7"",""30525""
","""event"",""trial"",""time""
""focus"",""7"",""30293""
""focus"",""7"",""30592""
","""event"",""trial"",""time""
""fullscreenenter"",""1"",""2254""
","
","","","615","","","25","1215","536","&#9730;","elianto","#3366ff99"," "," ","1","+10","[1465]","1","1","","","1215","1","1","1","win","go","0","[]"
"pit-trial","90","804694","0.0-5.0","battery-v0.2","","""event"",""trial"",""time""
""fullscreenenter"",""1"",""2254""
""blur"",""7"",""30187""
""focus"",""7"",""30293""
""blur"",""7"",""30525""
""focus"",""7"",""30592""
","""event"",""trial"",""time""
""blur"",""7"",""30187""
""blur"",""7"",""30525""
","""event"",""trial"",""time""
""focus"",""7"",""30293""
""focus"",""7"",""30592""
","""event"",""trial"",""time""
""fullscreenenter"",""1"",""2254""
","
","","","461","","","25","1215","536","&#9733;","elianto","#3366ff99","-1"," ","0","+10","[1311]","1","1","","","1215","2","2","2","win","no-go","1","0"
"pit-trial","91","808460","0.0-6.0","battery-v0.2","","""event"",""trial"",""time""
""fullscreenenter"",""1"",""2254""
""blur"",""7"",""30187""
""focus"",""7"",""30293""
""blur"",""7"",""30525""
""focus"",""7"",""30592""
","""event"",""trial"",""time""
""blur"",""7"",""30187""
""blur"",""7"",""30525""
","""event"",""trial"",""time""
""focus"",""7"",""30293""
""focus"",""7"",""30592""
","""event"",""trial"",""time""
""fullscreenenter"",""1"",""2254""
","
","","","911","","","25","1215","536","&#9728;","elianto","#f73b6a7A","-1"," ","0","0","[1761]","1","1","","","1215","3","0","4","lose","no-go","1","0"
"pit-trial","92","811885","0.0-7.0","battery-v0.2","","""event"",""trial"",""time""
""fullscreenenter"",""1"",""2254""
""blur"",""7"",""30187""
""focus"",""7"",""30293""
""blur"",""7"",""30525""
""focus"",""7"",""30592""
","""event"",""trial"",""time""
""blur"",""7"",""30187""
""blur"",""7"",""30525""
","""event"",""trial"",""time""
""focus"",""7"",""30293""
""focus"",""7"",""30592""
","""event"",""trial"",""time""
""fullscreenenter"",""1"",""2254""
","
","","","571","","","25","1215","536","&#9752;","elianto","#f73b6a7A"," "," ","1","0","[1421]","1","1","","","1215","4","3","3","lose","go","0","0"
"pit-trial","93","815413","0.0-8.0","battery-v0.2","","""event"",""trial"",""time""
""fullscreenenter"",""1"",""2254""
""blur"",""7"",""30187""
""focus"",""7"",""30293""
""blur"",""7"",""30525""
""focus"",""7"",""30592""
","""event"",""trial"",""time""
""blur"",""7"",""30187""
""blur"",""7"",""30525""
","""event"",""trial"",""time""
""focus"",""7"",""30293""
""focus"",""7"",""30592""
","""event"",""trial"",""time""
""fullscreenenter"",""1"",""2254""
","
","","","671","","","25","1215","536","&#9728;","elianto","#f73b6a7A","-1"," ","0","-10","[1523]","1","1","","","1215","5","0","4","lose","no-go","0","0"
"pit-trial","94","818903","0.0-9.0","battery-v0.2","","""event"",""trial"",""time""
""fullscreenenter"",""1"",""2254""
""blur"",""7"",""30187""
""focus"",""7"",""30293""
""blur"",""7"",""30525""
""focus"",""7"",""30592""
","""event"",""trial"",""time""
""blur"",""7"",""30187""
""blur"",""7"",""30525""
","""event"",""trial"",""time""
""focus"",""7"",""30293""
""focus"",""7"",""30592""
","""event"",""trial"",""time""
""fullscreenenter"",""1"",""2254""
","
","","","635","","","25","1215","536","&#9752;","elianto","#f73b6a7A"," "," ","1","0","[1486]","1","1","","","1215","6","3","3","lose","go","0","0"
"pit-trial","95","822229","0.0-10.0","battery-v0.2","","""event"",""trial"",""time""
""fullscreenenter"",""1"",""2254""
""blur"",""7"",""30187""
""focus"",""7"",""30293""
""blur"",""7"",""30525""
""focus"",""7"",""30592""
","""event"",""trial"",""time""
""blur"",""7"",""30187""
""blur"",""7"",""30525""
","""event"",""trial"",""time""
""focus"",""7"",""30293""
""focus"",""7"",""30592""
","""event"",""trial"",""time""
""fullscreenenter"",""1"",""2254""
","
","","","472","","","25","1215","536","&#9733;","elianto","#3366ff99","-1"," ","0","0","[1321]","1","1","","","1215","7","2","2","win","no-go","0","0"
"pit-trial","96","825584","0.0-11.0","battery-v0.2","","""event"",""trial"",""time""
""fullscreenenter"",""1"",""2254""
""blur"",""7"",""30187""
""focus"",""7"",""30293""
""blur"",""7"",""30525""
""focus"",""7"",""30592""
","""event"",""trial"",""time""
""blur"",""7"",""30187""
""blur"",""7"",""30525""
","""event"",""trial"",""time""
""focus"",""7"",""30293""
""focus"",""7"",""30592""
","""event"",""trial"",""time""
""fullscreenenter"",""1"",""2254""
","
","","","499","","","25","1215","536","&#9730;","elianto","#3366ff99"," "," ","1","+10","[1349]","1","1","","","1215","8","1","1","win","go","0","0"
"pit-trial","97","829216","0.0-12.0","battery-v0.2","","""event"",""trial"",""time""
""fullscreenenter"",""1"",""2254""
""blur"",""7"",""30187""
""focus"",""7"",""30293""
""blur"",""7"",""30525""
""focus"",""7"",""30592""
","""event"",""trial"",""time""
""blur"",""7"",""30187""
""blur"",""7"",""30525""
","""event"",""trial"",""time""
""focus"",""7"",""30293""
""focus"",""7"",""30592""
","""event"",""trial"",""time""
""fullscreenenter"",""1"",""2254""
","
","","","775","","","25","1215","536","&#9728;","elianto","#f73b6a7A","-1"," ","0","-10","[1626]","1","1","","","1215","9","0","4","lose","no-go","0","0"
"pit-trial","98","832599","0.0-13.0","battery-v0.2","","""event"",""trial"",""time""
""fullscreenenter"",""1"",""2254""
""blur"",""7"",""30187""
""focus"",""7"",""30293""
""blur"",""7"",""30525""
""focus"",""7"",""30592""
","""event"",""trial"",""time""
""blur"",""7"",""30187""
""blur"",""7"",""30525""
","""event"",""trial"",""time""
""focus"",""7"",""30293""
""focus"",""7"",""30592""
","""event"",""trial"",""time""
""fullscreenenter"",""1"",""2254""
","
","","","529","","","25","1215","536","&#9752;","elianto","#f73b6a7A"," "," ","1","0","[1379]","1","1","","","1215","10","3","3","lose","go","0","0"
"pit-trial","99","836008","0.0-14.0","battery-v0.2","","""event"",""trial"",""time""
""fullscreenenter"",""1"",""2254""
""blur"",""7"",""30187""
""focus"",""7"",""30293""
""blur"",""7"",""30525""
""focus"",""7"",""30592""
","""event"",""trial"",""time""
""blur"",""7"",""30187""
""blur"",""7"",""30525""
","""event"",""trial"",""time""
""focus"",""7"",""30293""
""focus"",""7"",""30592""
","""event"",""trial"",""time""
""fullscreenenter"",""1"",""2254""
","
","","","551","","","25","1215","536","&#9730;","elianto","#3366ff99"," "," ","1","+10","[1403]","1","1","","","1215","11","1","1","win","go","0","0"
"pit-trial","100","840864","0.0-15.0","battery-v0.2","","""event"",""trial"",""time""
""fullscreenenter"",""1"",""2254""
""blur"",""7"",""30187""
""focus"",""7"",""30293""
""blur"",""7"",""30525""
""focus"",""7"",""30592""
","""event"",""trial"",""time""
""blur"",""7"",""30187""
""blur"",""7"",""30525""
","""event"",""trial"",""time""
""focus"",""7"",""30293""
""focus"",""7"",""30592""
","""event"",""trial"",""time""
""fullscreenenter"",""1"",""2254""
","
","","","-1","","","25","1215","536","&#9733;","elianto","#3366ff99","-1","-1","1","+10","[]","0","1","","","1215","12","2","2","win","no-go","0","0"
"pit-trial","101","845720","0.0-16.0","battery-v0.2","","""event"",""trial"",""time""
""fullscreenenter"",""1"",""2254""
""blur"",""7"",""30187""
""focus"",""7"",""30293""
""blur"",""7"",""30525""
""focus"",""7"",""30592""
","""event"",""trial"",""time""
""blur"",""7"",""30187""
""blur"",""7"",""30525""
","""event"",""trial"",""time""
""focus"",""7"",""30293""
""focus"",""7"",""30592""
","""event"",""trial"",""time""
""fullscreenenter"",""1"",""2254""
","
","","","-1","","","25","1215","536","&#9728;","elianto","#f73b6a7A","-1","-1","1","0","[]","0","1","","","1215","13","0","4","lose","no-go","0","0"
"pit-trial","102","849235","0.0-17.0","battery-v0.2","","""event"",""trial"",""time""
""fullscreenenter"",""1"",""2254""
""blur"",""7"",""30187""
""focus"",""7"",""30293""
""blur"",""7"",""30525""
""focus"",""7"",""30592""
","""event"",""trial"",""time""
""blur"",""7"",""30187""
""blur"",""7"",""30525""
","""event"",""trial"",""time""
""focus"",""7"",""30293""
""focus"",""7"",""30592""
","""event"",""trial"",""time""
""fullscreenenter"",""1"",""2254""
","
","","","659","","","25","1215","536","&#9752;","elianto","#f73b6a7A"," "," ","1","0","[1510]","1","1","","","1215","14","3","3","lose","go","0","0"
"pit-trial","103","852711","0.0-18.0","battery-v0.2","","""event"",""trial"",""time""
""fullscreenenter"",""1"",""2254""
""blur"",""7"",""30187""
""focus"",""7"",""30293""
""blur"",""7"",""30525""
""focus"",""7"",""30592""
","""event"",""trial"",""time""
""blur"",""7"",""30187""
""blur"",""7"",""30525""
","""event"",""trial"",""time""
""focus"",""7"",""30293""
""focus"",""7"",""30592""
","""event"",""trial"",""time""
""fullscreenenter"",""1"",""2254""
","
","","","621","","","25","1215","536","&#9733;","elianto","#3366ff99","-1"," ","0","0","[1471]","1","1","","","1215","15","2","2","win","no-go","0","0"
"pit-trial","104","856034","0.0-19.0","battery-v0.2","","""event"",""trial"",""time""
""fullscreenenter"",""1"",""2254""
""blur"",""7"",""30187""
""focus"",""7"",""30293""
""blur"",""7"",""30525""
""focus"",""7"",""30592""
","""event"",""trial"",""time""
""blur"",""7"",""30187""
""blur"",""7"",""30525""
","""event"",""trial"",""time""
""focus"",""7"",""30293""
""focus"",""7"",""30592""
","""event"",""trial"",""time""
""fullscreenenter"",""1"",""2254""
","
","","","468","","","25","1215","536","&#9730;","elianto","#3366ff99"," "," ","1","+10","[1318]","1","1","","","1215","16","1","1","win","go","0","0"
"pit-trial","105","860889","0.0-20.0","battery-v0.2","","""event"",""trial"",""time""
""fullscreenenter"",""1"",""2254""
""blur"",""7"",""30187""
""focus"",""7"",""30293""
""blur"",""7"",""30525""
""focus"",""7"",""30592""
","""event"",""trial"",""time""
""blur"",""7"",""30187""
""blur"",""7"",""30525""
","""event"",""trial"",""time""
""focus"",""7"",""30293""
""focus"",""7"",""30592""
","""event"",""trial"",""time""
""fullscreenenter"",""1"",""2254""
","
","","","-1","","","25","1215","536","&#9728;","elianto","#f73b6a7A","-1","-1","1","-10","[]","0","1","","","1215","17","0","4","lose","no-go","1","0"
"pit-trial","106","864552","0.0-21.0","battery-v0.2","","""event"",""trial"",""time""
""fullscreenenter"",""1"",""2254""
""blur"",""7"",""30187""
""focus"",""7"",""30293""
""blur"",""7"",""30525""
""focus"",""7"",""30592""
","""event"",""trial"",""time""
""blur"",""7"",""30187""
""blur"",""7"",""30525""
","""event"",""trial"",""time""
""focus"",""7"",""30293""
""focus"",""7"",""30592""
","""event"",""trial"",""time""
""fullscreenenter"",""1"",""2254""
","
","","","807","","","25","1215","536","&#9733;","elianto","#3366ff99","-1"," ","0","0","[1658]","1","1","","","1215","18","2","2","win","no-go","0","0"
"pit-trial","107","868237","0.0-22.0","battery-v0.2","","""event"",""trial"",""time""
""fullscreenenter"",""1"",""2254""
""blur"",""7"",""30187""
""focus"",""7"",""30293""
""blur"",""7"",""30525""
""focus"",""7"",""30592""
","""event"",""trial"",""time""
""blur"",""7"",""30187""
""blur"",""7"",""30525""
","""event"",""trial"",""time""
""focus"",""7"",""30293""
""focus"",""7"",""30592""
","""event"",""trial"",""time""
""fullscreenenter"",""1"",""2254""
","
","","","829","","","25","1215","536","&#9752;","elianto","#f73b6a7A"," "," ","1","-10","[1680]","1","1","","","1215","19","3","3","lose","go","1","0"
"pit-trial","108","871684","0.0-23.0","battery-v0.2","","""event"",""trial"",""time""
""fullscreenenter"",""1"",""2254""
""blur"",""7"",""30187""
""focus"",""7"",""30293""
""blur"",""7"",""30525""
""focus"",""7"",""30592""
","""event"",""trial"",""time""
""blur"",""7"",""30187""
""blur"",""7"",""30525""
","""event"",""trial"",""time""
""focus"",""7"",""30293""
""focus"",""7"",""30592""
","""event"",""trial"",""time""
""fullscreenenter"",""1"",""2254""
","
","","","591","","","25","1215","536","&#9730;","elianto","#3366ff99"," "," ","1","+10","[1441]","1","1","","","1215","20","1","1","win","go","0","0"
"pit-instructions","109","884754","0.0-24.0","battery-v0.2","","""event"",""trial"",""time""
""fullscreenenter"",""1"",""2254""
""blur"",""7"",""30187""
""focus"",""7"",""30293""
""blur"",""7"",""30525""
""focus"",""7"",""30592""
","""event"",""trial"",""time""
""blur"",""7"",""30187""
""blur"",""7"",""30525""
","""event"",""trial"",""time""
""focus"",""7"",""30293""
""focus"",""7"",""30592""
","""event"",""trial"",""time""
""fullscreenenter"",""1"",""2254""
","
","","[{""page_index"":0,""viewing_time"":5989},{""page_index"":1,""viewing_time"":7077}]","13067","","","","","","","","","","","","","","","","","","","","","","","","",""
"pit-trial","110","888305","0.0-25.0","battery-v0.2","","""event"",""trial"",""time""
""fullscreenenter"",""1"",""2254""
""blur"",""7"",""30187""
""focus"",""7"",""30293""
""blur"",""7"",""30525""
""focus"",""7"",""30592""
","""event"",""trial"",""time""
""blur"",""7"",""30187""
""blur"",""7"",""30525""
","""event"",""trial"",""time""
""focus"",""7"",""30293""
""focus"",""7"",""30592""
","""event"",""trial"",""time""
""fullscreenenter"",""1"",""2254""
","
","","","694","","","25","1215","536","y","elianto","#3366ff99"," "," ","1","+10","[1544]","1","2","","","1215","21","2","1","win","go","0","0"
"pit-trial","111","891939","0.0-26.0","battery-v0.2","","""event"",""trial"",""time""
""fullscreenenter"",""1"",""2254""
""blur"",""7"",""30187""
""focus"",""7"",""30293""
""blur"",""7"",""30525""
""focus"",""7"",""30592""
","""event"",""trial"",""time""
""blur"",""7"",""30187""
""blur"",""7"",""30525""
","""event"",""trial"",""time""
""focus"",""7"",""30293""
""focus"",""7"",""30592""
","""event"",""trial"",""time""
""fullscreenenter"",""1"",""2254""
","
","","","779","","","25","1215","536","m","elianto","#3366ff99","-1"," ","0","+10","[1629]","1","2","","","1215","22","0","2","win","no-go","1","0"
"pit-trial","112","895484","0.0-27.0","battery-v0.2","","""event"",""trial"",""time""
""fullscreenenter"",""1"",""2254""
""blur"",""7"",""30187""
""focus"",""7"",""30293""
""blur"",""7"",""30525""
""focus"",""7"",""30592""
","""event"",""trial"",""time""
""blur"",""7"",""30187""
""blur"",""7"",""30525""
","""event"",""trial"",""time""
""focus"",""7"",""30293""
""focus"",""7"",""30592""
","""event"",""trial"",""time""
""fullscreenenter"",""1"",""2254""
","
","","","690","","","25","1215","536","r","elianto","#3366ff99","-1"," ","0","+10","[1540]","1","2","","","1215","23","1","2","win","no-go","1","0"
"pit-trial","113","899123","0.0-28.0","battery-v0.2","","""event"",""trial"",""time""
""fullscreenenter"",""1"",""2254""
""blur"",""7"",""30187""
""focus"",""7"",""30293""
""blur"",""7"",""30525""
""focus"",""7"",""30592""
","""event"",""trial"",""time""
""blur"",""7"",""30187""
""blur"",""7"",""30525""
","""event"",""trial"",""time""
""focus"",""7"",""30293""
""focus"",""7"",""30592""
","""event"",""trial"",""time""
""fullscreenenter"",""1"",""2254""
","
","","","785","","","25","1215","536","h","elianto","#f73b6a7A"," "," ","1","0","[1635]","1","2","","","1215","24","3","3","lose","go","0","0"
"pit-trial","114","902649","0.0-29.0","battery-v0.2","","""event"",""trial"",""time""
""fullscreenenter"",""1"",""2254""
""blur"",""7"",""30187""
""focus"",""7"",""30293""
""blur"",""7"",""30525""
""focus"",""7"",""30592""
","""event"",""trial"",""time""
""blur"",""7"",""30187""
""blur"",""7"",""30525""
","""event"",""trial"",""time""
""focus"",""7"",""30293""
""focus"",""7"",""30592""
","""event"",""trial"",""time""
""fullscreenenter"",""1"",""2254""
","
","","","671","","","25","1215","536","r","elianto","#3366ff99","-1"," ","0","+10","[1521]","1","2","","","1215","25","1","2","win","no-go","1","0"
"pit-trial","115","906042","0.0-30.0","battery-v0.2","","""event"",""trial"",""time""
""fullscreenenter"",""1"",""2254""
""blur"",""7"",""30187""
""focus"",""7"",""30293""
""blur"",""7"",""30525""
""focus"",""7"",""30592""
","""event"",""trial"",""time""
""blur"",""7"",""30187""
""blur"",""7"",""30525""
","""event"",""trial"",""time""
""focus"",""7"",""30293""
""focus"",""7"",""30592""
","""event"",""trial"",""time""
""fullscreenenter"",""1"",""2254""
","
","","","539","","","25","1215","536","h","elianto","#f73b6a7A"," "," ","1","0","[1388]","1","2","","","1215","26","3","3","lose","go","0","0"
"pit-trial","116","909434","0.0-31.0","battery-v0.2","","""event"",""trial"",""time""
""fullscreenenter"",""1"",""2254""
""blur"",""7"",""30187""
""focus"",""7"",""30293""
""blur"",""7"",""30525""
""focus"",""7"",""30592""
","""event"",""trial"",""time""
""blur"",""7"",""30187""
""blur"",""7"",""30525""
","""event"",""trial"",""time""
""focus"",""7"",""30293""
""focus"",""7"",""30592""
","""event"",""trial"",""time""
""fullscreenenter"",""1"",""2254""
","
","","","537","","","25","1215","536","y","elianto","#3366ff99"," "," ","1","+10","[1387]","1","2","","","1215","27","2","1","win","go","0","0"
"pit-trial","117","912671","0.0-32.0","battery-v0.2","","""event"",""trial"",""time""
""fullscreenenter"",""1"",""2254""
""blur"",""7"",""30187""
""focus"",""7"",""30293""
""blur"",""7"",""30525""
""focus"",""7"",""30592""
","""event"",""trial"",""time""
""blur"",""7"",""30187""
""blur"",""7"",""30525""
","""event"",""trial"",""time""
""focus"",""7"",""30293""
""focus"",""7"",""30592""
","""event"",""trial"",""time""
""fullscreenenter"",""1"",""2254""
","
","","","382","","","25","1215","536","m","elianto","#3366ff99","-1"," ","0","0","[1233]","1","2","","","1215","28","0","2","win","no-go","0","0"
"pit-trial","118","915961","0.0-33.0","battery-v0.2","","""event"",""trial"",""time""
""fullscreenenter"",""1"",""2254""
""blur"",""7"",""30187""
""focus"",""7"",""30293""
""blur"",""7"",""30525""
""focus"",""7"",""30592""
","""event"",""trial"",""time""
""blur"",""7"",""30187""
""blur"",""7"",""30525""
","""event"",""trial"",""time""
""focus"",""7"",""30293""
""focus"",""7"",""30592""
","""event"",""trial"",""time""
""fullscreenenter"",""1"",""2254""
","
","","","435","","","25","1215","536","r","elianto","#3366ff99","-1"," ","0","0","[1285]","1","2","","","1215","29","1","2","win","no-go","0","0"
"pit-trial","119","919013","0.0-34.0","battery-v0.2","","""event"",""trial"",""time""
""fullscreenenter"",""1"",""2254""
""blur"",""7"",""30187""
""focus"",""7"",""30293""
""blur"",""7"",""30525""
""focus"",""7"",""30592""
","""event"",""trial"",""time""
""blur"",""7"",""30187""
""blur"",""7"",""30525""
","""event"",""trial"",""time""
""focus"",""7"",""30293""
""focus"",""7"",""30592""
","""event"",""trial"",""time""
""fullscreenenter"",""1"",""2254""
","
","","","196","","","25","1215","536","h","elianto","#f73b6a7A"," "," ","1","-10","[1047]","1","2","","","1215","30","3","3","lose","go","1","0"
"pit-trial","120","922215","0.0-35.0","battery-v0.2","","""event"",""trial"",""time""
""fullscreenenter"",""1"",""2254""
""blur"",""7"",""30187""
""focus"",""7"",""30293""
""blur"",""7"",""30525""
""focus"",""7"",""30592""
","""event"",""trial"",""time""
""blur"",""7"",""30187""
""blur"",""7"",""30525""
","""event"",""trial"",""time""
""focus"",""7"",""30293""
""focus"",""7"",""30592""
","""event"",""trial"",""time""
""fullscreenenter"",""1"",""2254""
","
","","","345","","","25","1215","536","y","elianto","#3366ff99"," "," ","1","+10","[1196]","1","2","","","1215","31","2","1","win","go","0","0"
"pit-trial","121","925555","0.0-36.0","battery-v0.2","","""event"",""trial"",""time""
""fullscreenenter"",""1"",""2254""
""blur"",""7"",""30187""
""focus"",""7"",""30293""
""blur"",""7"",""30525""
""focus"",""7"",""30592""
","""event"",""trial"",""time""
""blur"",""7"",""30187""
""blur"",""7"",""30525""
","""event"",""trial"",""time""
""focus"",""7"",""30293""
""focus"",""7"",""30592""
","""event"",""trial"",""time""
""fullscreenenter"",""1"",""2254""
","
","","","485","","","25","1215","536","m","elianto","#3366ff99","-1"," ","0","0","[1333]","1","2","","","1215","32","0","2","win","no-go","0","0"
"pit-trial","122","930411","0.0-37.0","battery-v0.2","","""event"",""trial"",""time""
""fullscreenenter"",""1"",""2254""
""blur"",""7"",""30187""
""focus"",""7"",""30293""
""blur"",""7"",""30525""
""focus"",""7"",""30592""
","""event"",""trial"",""time""
""blur"",""7"",""30187""
""blur"",""7"",""30525""
","""event"",""trial"",""time""
""focus"",""7"",""30293""
""focus"",""7"",""30592""
","""event"",""trial"",""time""
""fullscreenenter"",""1"",""2254""
","
","","","-1","","","25","1215","536","r","elianto","#3366ff99","-1","-1","1","+10","[]","0","2","","","1215","33","1","2","win","no-go","0","0"
"pit-trial","123","934139","0.0-38.0","battery-v0.2","","""event"",""trial"",""time""
""fullscreenenter"",""1"",""2254""
""blur"",""7"",""30187""
""focus"",""7"",""30293""
""blur"",""7"",""30525""
""focus"",""7"",""30592""
","""event"",""trial"",""time""
""blur"",""7"",""30187""
""blur"",""7"",""30525""
","""event"",""trial"",""time""
""focus"",""7"",""30293""
""focus"",""7"",""30592""
","""event"",""trial"",""time""
""fullscreenenter"",""1"",""2254""
","
","","","874","","","25","1215","536","y","elianto","#3366ff99"," "," ","1","+10","[1723]","1","2","","","1215","34","2","1","win","go","0","0"
"pit-trial","124","938717","0.0-39.0","battery-v0.2","","""event"",""trial"",""time""
""fullscreenenter"",""1"",""2254""
""blur"",""7"",""30187""
""focus"",""7"",""30293""
""blur"",""7"",""30525""
""focus"",""7"",""30592""
","""event"",""trial"",""time""
""blur"",""7"",""30187""
""blur"",""7"",""30525""
","""event"",""trial"",""time""
""focus"",""7"",""30293""
""focus"",""7"",""30592""
","""event"",""trial"",""time""
""fullscreenenter"",""1"",""2254""
","
","","","1722","","","25","1215","536","h","elianto","#f73b6a7A"," "," ","1","0","[2572]","1","2","","","1215","35","3","3","lose","go","0","0"
"pit-trial","125","943573","0.0-40.0","battery-v0.2","","""event"",""trial"",""time""
""fullscreenenter"",""1"",""2254""
""blur"",""7"",""30187""
""focus"",""7"",""30293""
""blur"",""7"",""30525""
""focus"",""7"",""30592""
","""event"",""trial"",""time""
""blur"",""7"",""30187""
""blur"",""7"",""30525""
","""event"",""trial"",""time""
""focus"",""7"",""30293""
""focus"",""7"",""30592""
","""event"",""trial"",""time""
""fullscreenenter"",""1"",""2254""
","
","","","-1","","","25","1215","536","m","elianto","#3366ff99","-1","-1","1","0","[]","0","2","","","1215","36","0","2","win","no-go","1","0"
"pit-trial","126","946925","0.0-41.0","battery-v0.2","","""event"",""trial"",""time""
""fullscreenenter"",""1"",""2254""
""blur"",""7"",""30187""
""focus"",""7"",""30293""
""blur"",""7"",""30525""
""focus"",""7"",""30592""
","""event"",""trial"",""time""
""blur"",""7"",""30187""
""blur"",""7"",""30525""
","""event"",""trial"",""time""
""focus"",""7"",""30293""
""focus"",""7"",""30592""
","""event"",""trial"",""time""
""fullscreenenter"",""1"",""2254""
","
","","","495","","","25","1215","536","y","elianto","#3366ff99"," "," ","1","+10","[1346]","1","2","","","1215","37","2","1","win","go","0","0"
"pit-trial","127","951779","0.0-42.0","battery-v0.2","","""event"",""trial"",""time""
""fullscreenenter"",""1"",""2254""
""blur"",""7"",""30187""
""focus"",""7"",""30293""
""blur"",""7"",""30525""
""focus"",""7"",""30592""
","""event"",""trial"",""time""
""blur"",""7"",""30187""
""blur"",""7"",""30525""
","""event"",""trial"",""time""
""focus"",""7"",""30293""
""focus"",""7"",""30592""
","""event"",""trial"",""time""
""fullscreenenter"",""1"",""2254""
","
","","","-1","","","25","1215","536","r","elianto","#3366ff99","-1","-1","1","0","[]","0","2","","","1215","38","1","2","win","no-go","1","0"
"pit-trial","128","955995","0.0-43.0","battery-v0.2","","""event"",""trial"",""time""
""fullscreenenter"",""1"",""2254""
""blur"",""7"",""30187""
""focus"",""7"",""30293""
""blur"",""7"",""30525""
""focus"",""7"",""30592""
","""event"",""trial"",""time""
""blur"",""7"",""30187""
""blur"",""7"",""30525""
","""event"",""trial"",""time""
""focus"",""7"",""30293""
""focus"",""7"",""30592""
","""event"",""trial"",""time""
""fullscreenenter"",""1"",""2254""
","
","","","1359","","","25","1215","536","h","elianto","#f73b6a7A"," "," ","1","0","[2211]","1","2","","","1215","39","3","3","lose","go","0","0"
"pit-trial","129","959686","0.0-44.0","battery-v0.2","","""event"",""trial"",""time""
""fullscreenenter"",""1"",""2254""
""blur"",""7"",""30187""
""focus"",""7"",""30293""
""blur"",""7"",""30525""
""focus"",""7"",""30592""
","""event"",""trial"",""time""
""blur"",""7"",""30187""
""blur"",""7"",""30525""
","""event"",""trial"",""time""
""focus"",""7"",""30293""
""focus"",""7"",""30592""
","""event"",""trial"",""time""
""fullscreenenter"",""1"",""2254""
","
","","","835","","","25","1215","536","m","elianto","#3366ff99","-1"," ","0","0","[1687]","1","2","","","1215","40","0","2","win","no-go","0","0"
"pit-trial","130","964543","0.0-45.0","battery-v0.2","","""event"",""trial"",""time""
""fullscreenenter"",""1"",""2254""
""blur"",""7"",""30187""
""focus"",""7"",""30293""
""blur"",""7"",""30525""
""focus"",""7"",""30592""
","""event"",""trial"",""time""
""blur"",""7"",""30187""
""blur"",""7"",""30525""
","""event"",""trial"",""time""
""focus"",""7"",""30293""
""focus"",""7"",""30592""
","""event"",""trial"",""time""
""fullscreenenter"",""1"",""2254""
","
","","","-1","","","25","1215","536","r","elianto","#3366ff99","-1","-1","1","+10","[]","0","2","","","1215","41","1","2","win","no-go","0","0"
"pit-trial","131","968798","0.0-46.0","battery-v0.2","","""event"",""trial"",""time""
""fullscreenenter"",""1"",""2254""
""blur"",""7"",""30187""
""focus"",""7"",""30293""
""blur"",""7"",""30525""
""focus"",""7"",""30592""
","""event"",""trial"",""time""
""blur"",""7"",""30187""
""blur"",""7"",""30525""
","""event"",""trial"",""time""
""focus"",""7"",""30293""
""focus"",""7"",""30592""
","""event"",""trial"",""time""
""fullscreenenter"",""1"",""2254""
","
","","","1400","","","25","1215","536","h","elianto","#f73b6a7A"," "," ","1","0","[2251]","1","2","","","1215","42","3","3","lose","go","0","0"
"pit-trial","132","972087","0.0-47.0","battery-v0.2","","""event"",""trial"",""time""
""fullscreenenter"",""1"",""2254""
""blur"",""7"",""30187""
""focus"",""7"",""30293""
""blur"",""7"",""30525""
""focus"",""7"",""30592""
","""event"",""trial"",""time""
""blur"",""7"",""30187""
""blur"",""7"",""30525""
","""event"",""trial"",""time""
""focus"",""7"",""30293""
""focus"",""7"",""30592""
","""event"",""trial"",""time""
""fullscreenenter"",""1"",""2254""
","
","","","432","","","25","1215","536","y","elianto","#3366ff99"," "," ","1","0","[1283]","1","2","","","1215","43","2","1","win","go","1","0"
"pit-trial","133","976942","0.0-48.0","battery-v0.2","","""event"",""trial"",""time""
""fullscreenenter"",""1"",""2254""
""blur"",""7"",""30187""
""focus"",""7"",""30293""
""blur"",""7"",""30525""
""focus"",""7"",""30592""
","""event"",""trial"",""time""
""blur"",""7"",""30187""
""blur"",""7"",""30525""
","""event"",""trial"",""time""
""focus"",""7"",""30293""
""focus"",""7"",""30592""
","""event"",""trial"",""time""
""fullscreenenter"",""1"",""2254""
","
","","","-1","","","25","1215","536","m","elianto","#3366ff99","-1","-1","1","+10","[]","0","2","","","1215","44","0","2","win","no-go","0","0"
"pit-trial","134","981799","0.0-49.0","battery-v0.2","","""event"",""trial"",""time""
""fullscreenenter"",""1"",""2254""
""blur"",""7"",""30187""
""focus"",""7"",""30293""
""blur"",""7"",""30525""
""focus"",""7"",""30592""
","""event"",""trial"",""time""
""blur"",""7"",""30187""
""blur"",""7"",""30525""
","""event"",""trial"",""time""
""focus"",""7"",""30293""
""focus"",""7"",""30592""
","""event"",""trial"",""time""
""fullscreenenter"",""1"",""2254""
","
","","","-1","","","25","1215","536","r","elianto","#3366ff99","-1","-1","1","+10","[]","0","2","","","1215","45","1","2","win","no-go","0","0"
"pit-trial","135","985048","0.0-50.0","battery-v0.2","","""event"",""trial"",""time""
""fullscreenenter"",""1"",""2254""
""blur"",""7"",""30187""
""focus"",""7"",""30293""
""blur"",""7"",""30525""
""focus"",""7"",""30592""
","""event"",""trial"",""time""
""blur"",""7"",""30187""
""blur"",""7"",""30525""
","""event"",""trial"",""time""
""focus"",""7"",""30293""
""focus"",""7"",""30592""
","""event"",""trial"",""time""
""fullscreenenter"",""1"",""2254""
","
","","","394","","","25","1215","536","h","elianto","#f73b6a7A"," "," ","1","0","[1243]","1","2","","","1215","46","3","3","lose","go","0","0"
"pit-trial","136","989904","0.0-51.0","battery-v0.2","","""event"",""trial"",""time""
""fullscreenenter"",""1"",""2254""
""blur"",""7"",""30187""
""focus"",""7"",""30293""
""blur"",""7"",""30525""
""focus"",""7"",""30592""
","""event"",""trial"",""time""
""blur"",""7"",""30187""
""blur"",""7"",""30525""
","""event"",""trial"",""time""
""focus"",""7"",""30293""
""focus"",""7"",""30592""
","""event"",""trial"",""time""
""fullscreenenter"",""1"",""2254""
","
","","","-1","","","25","1215","536","m","elianto","#3366ff99","-1","-1","1","+10","[]","0","2","","","1215","47","0","2","win","no-go","0","0"
"pit-trial","137","993388","0.0-52.0","battery-v0.2","","""event"",""trial"",""time""
""fullscreenenter"",""1"",""2254""
""blur"",""7"",""30187""
""focus"",""7"",""30293""
""blur"",""7"",""30525""
""focus"",""7"",""30592""
","""event"",""trial"",""time""
""blur"",""7"",""30187""
""blur"",""7"",""30525""
","""event"",""trial"",""time""
""focus"",""7"",""30293""
""focus"",""7"",""30592""
","""event"",""trial"",""time""
""fullscreenenter"",""1"",""2254""
","
","","","629","","","25","1215","536","y","elianto","#3366ff99"," "," ","1","0","[1479]","1","2","","","1215","48","2","1","win","go","1","0"
"pit-trial","138","998243","0.0-53.0","battery-v0.2","","""event"",""trial"",""time""
""fullscreenenter"",""1"",""2254""
""blur"",""7"",""30187""
""focus"",""7"",""30293""
""blur"",""7"",""30525""
""focus"",""7"",""30592""
","""event"",""trial"",""time""
""blur"",""7"",""30187""
""blur"",""7"",""30525""
","""event"",""trial"",""time""
""focus"",""7"",""30293""
""focus"",""7"",""30592""
","""event"",""trial"",""time""
""fullscreenenter"",""1"",""2254""
","
","","","-1","","","25","1215","536","m","elianto","#3366ff99","-1","-1","1","+10","[]","0","2","","","1215","49","0","2","win","no-go","0","0"
"pit-trial","139","1001571","0.0-54.0","battery-v0.2","","""event"",""trial"",""time""
""fullscreenenter"",""1"",""2254""
""blur"",""7"",""30187""
""focus"",""7"",""30293""
""blur"",""7"",""30525""
""focus"",""7"",""30592""
","""event"",""trial"",""time""
""blur"",""7"",""30187""
""blur"",""7"",""30525""
","""event"",""trial"",""time""
""focus"",""7"",""30293""
""focus"",""7"",""30592""
","""event"",""trial"",""time""
""fullscreenenter"",""1"",""2254""
","
","","","472","","","25","1215","536","h","elianto","#f73b6a7A"," "," ","1","0","[1323]","1","2","","","1215","50","3","3","lose","go","0","0"
"pit-trial","140","1006428","0.0-55.0","battery-v0.2","","""event"",""trial"",""time""
""fullscreenenter"",""1"",""2254""
""blur"",""7"",""30187""
""focus"",""7"",""30293""
""blur"",""7"",""30525""
""focus"",""7"",""30592""
","""event"",""trial"",""time""
""blur"",""7"",""30187""
""blur"",""7"",""30525""
","""event"",""trial"",""time""
""focus"",""7"",""30293""
""focus"",""7"",""30592""
","""event"",""trial"",""time""
""fullscreenenter"",""1"",""2254""
","
","","","-1","","","25","1215","536","r","elianto","#3366ff99","-1","-1","1","+10","[]","0","2","","","1215","51","1","2","win","no-go","0","0"
"pit-trial","141","1009994","0.0-56.0","battery-v0.2","","""event"",""trial"",""time""
""fullscreenenter"",""1"",""2254""
""blur"",""7"",""30187""
""focus"",""7"",""30293""
""blur"",""7"",""30525""
""focus"",""7"",""30592""
","""event"",""trial"",""time""
""blur"",""7"",""30187""
""blur"",""7"",""30525""
","""event"",""trial"",""time""
""focus"",""7"",""30293""
""focus"",""7"",""30592""
","""event"",""trial"",""time""
""fullscreenenter"",""1"",""2254""
","
","","","711","","","25","1215","536","y","elianto","#3366ff99"," "," ","1","+10","[1561]","1","2","","","1215","52","2","1","win","go","0","0"
"pit-trial","142","1013567","0.0-57.0","battery-v0.2","","""event"",""trial"",""time""
""fullscreenenter"",""1"",""2254""
""blur"",""7"",""30187""
""focus"",""7"",""30293""
""blur"",""7"",""30525""
""focus"",""7"",""30592""
","""event"",""trial"",""time""
""blur"",""7"",""30187""
""blur"",""7"",""30525""
","""event"",""trial"",""time""
""focus"",""7"",""30293""
""focus"",""7"",""30592""
","""event"",""trial"",""time""
""fullscreenenter"",""1"",""2254""
","
","","","717","","","25","1215","536","y","elianto","#3366ff99"," "," ","1","0","[1567]","1","2","","","1215","53","2","1","win","go","1","0"
"pit-trial","143","1017714","0.0-58.0","battery-v0.2","","""event"",""trial"",""time""
""fullscreenenter"",""1"",""2254""
""blur"",""7"",""30187""
""focus"",""7"",""30293""
""blur"",""7"",""30525""
""focus"",""7"",""30592""
","""event"",""trial"",""time""
""blur"",""7"",""30187""
""blur"",""7"",""30525""
","""event"",""trial"",""time""
""focus"",""7"",""30293""
""focus"",""7"",""30592""
","""event"",""trial"",""time""
""fullscreenenter"",""1"",""2254""
","
","","","1292","","","25","1215","536","z","elianto","#f73b6a7A","-1"," ","0","-10","[2143]","1","2","","","1215","54","4","4","lose","no-go","0","0"
"pit-trial","144","1022570","0.0-59.0","battery-v0.2","","""event"",""trial"",""time""
""fullscreenenter"",""1"",""2254""
""blur"",""7"",""30187""
""focus"",""7"",""30293""
""blur"",""7"",""30525""
""focus"",""7"",""30592""
","""event"",""trial"",""time""
""blur"",""7"",""30187""
""blur"",""7"",""30525""
","""event"",""trial"",""time""
""focus"",""7"",""30293""
""focus"",""7"",""30592""
","""event"",""trial"",""time""
""fullscreenenter"",""1"",""2254""
","
","","","-1","","","25","1215","536","c","elianto","#f73b6a7A"," ","-1","0","-10","[]","0","2","","","1215","55","5","3","lose","go","0","0"
"pit-trial","145","1027426","0.0-60.0","battery-v0.2","","""event"",""trial"",""time""
""fullscreenenter"",""1"",""2254""
""blur"",""7"",""30187""
""focus"",""7"",""30293""
""blur"",""7"",""30525""
""focus"",""7"",""30592""
","""event"",""trial"",""time""
""blur"",""7"",""30187""
""blur"",""7"",""30525""
","""event"",""trial"",""time""
""focus"",""7"",""30293""
""focus"",""7"",""30592""
","""event"",""trial"",""time""
""fullscreenenter"",""1"",""2254""
","
","","","-1","","","25","1215","536","m","elianto","#3366ff99","-1","-1","1","+10","[]","0","2","","","1215","56","0","2","win","no-go","0","0"
"pit-trial","146","1032283","0.0-61.0","battery-v0.2","","""event"",""trial"",""time""
""fullscreenenter"",""1"",""2254""
""blur"",""7"",""30187""
""focus"",""7"",""30293""
""blur"",""7"",""30525""
""focus"",""7"",""30592""
","""event"",""trial"",""time""
""blur"",""7"",""30187""
""blur"",""7"",""30525""
","""event"",""trial"",""time""
""focus"",""7"",""30293""
""focus"",""7"",""30592""
","""event"",""trial"",""time""
""fullscreenenter"",""1"",""2254""
","
","","","-1","","","25","1215","536","m","elianto","#3366ff99","-1","-1","1","0","[]","0","2","","","1215","57","0","2","win","no-go","1","0"
"pit-trial","147","1036071","0.0-62.0","battery-v0.2","","""event"",""trial"",""time""
""fullscreenenter"",""1"",""2254""
""blur"",""7"",""30187""
""focus"",""7"",""30293""
""blur"",""7"",""30525""
""focus"",""7"",""30592""
","""event"",""trial"",""time""
""blur"",""7"",""30187""
""blur"",""7"",""30525""
","""event"",""trial"",""time""
""focus"",""7"",""30293""
""focus"",""7"",""30592""
","""event"",""trial"",""time""
""fullscreenenter"",""1"",""2254""
","
","","","933","","","25","1215","536","y","elianto","#3366ff99"," "," ","1","+10","[1783]","1","2","","","1215","58","2","1","win","go","0","0"
"pit-trial","148","1039487","0.0-63.0","battery-v0.2","","""event"",""trial"",""time""
""fullscreenenter"",""1"",""2254""
""blur"",""7"",""30187""
""focus"",""7"",""30293""
""blur"",""7"",""30525""
""focus"",""7"",""30592""
","""event"",""trial"",""time""
""blur"",""7"",""30187""
""blur"",""7"",""30525""
","""event"",""trial"",""time""
""focus"",""7"",""30293""
""focus"",""7"",""30592""
","""event"",""trial"",""time""
""fullscreenenter"",""1"",""2254""
","
","","","561","","","25","1215","536","c","elianto","#f73b6a7A"," "," ","1","-10","[1411]","1","2","","","1215","59","5","3","lose","go","1","0"
"pit-trial","149","1044343","0.0-64.0","battery-v0.2","","""event"",""trial"",""time""
""fullscreenenter"",""1"",""2254""
""blur"",""7"",""30187""
""focus"",""7"",""30293""
""blur"",""7"",""30525""
""focus"",""7"",""30592""
","""event"",""trial"",""time""
""blur"",""7"",""30187""
""blur"",""7"",""30525""
","""event"",""trial"",""time""
""focus"",""7"",""30293""
""focus"",""7"",""30592""
","""event"",""trial"",""time""
""fullscreenenter"",""1"",""2254""
","
","","","-1","","","25","1215","536","z","elianto","#f73b6a7A","-1","-1","1","0","[]","0","2","","","1215","60","4","4","lose","no-go","0","0"
"pit-trial","150","1048095","0.0-65.0","battery-v0.2","","""event"",""trial"",""time""
""fullscreenenter"",""1"",""2254""
""blur"",""7"",""30187""
""focus"",""7"",""30293""
""blur"",""7"",""30525""
""focus"",""7"",""30592""
","""event"",""trial"",""time""
""blur"",""7"",""30187""
""blur"",""7"",""30525""
","""event"",""trial"",""time""
""focus"",""7"",""30293""
""focus"",""7"",""30592""
","""event"",""trial"",""time""
""fullscreenenter"",""1"",""2254""
","
","","","895","","","25","1215","536","c","elianto","#f73b6a7A"," "," ","1","-10","[1746]","1","2","","","1215","61","5","3","lose","go","1","0"
"pit-trial","151","1051697","0.0-66.0","battery-v0.2","","""event"",""trial"",""time""
""fullscreenenter"",""1"",""2254""
""blur"",""7"",""30187""
""focus"",""7"",""30293""
""blur"",""7"",""30525""
""focus"",""7"",""30592""
","""event"",""trial"",""time""
""blur"",""7"",""30187""
""blur"",""7"",""30525""
","""event"",""trial"",""time""
""focus"",""7"",""30293""
""focus"",""7"",""30592""
","""event"",""trial"",""time""
""fullscreenenter"",""1"",""2254""
","
","","","745","","","25","1215","536","y","elianto","#3366ff99"," "," ","1","+10","[1596]","1","2","","","1215","62","2","1","win","go","0","0"
"pit-trial","152","1056552","0.0-67.0","battery-v0.2","","""event"",""trial"",""time""
""fullscreenenter"",""1"",""2254""
""blur"",""7"",""30187""
""focus"",""7"",""30293""
""blur"",""7"",""30525""
""focus"",""7"",""30592""
","""event"",""trial"",""time""
""blur"",""7"",""30187""
""blur"",""7"",""30525""
","""event"",""trial"",""time""
""focus"",""7"",""30293""
""focus"",""7"",""30592""
","""event"",""trial"",""time""
""fullscreenenter"",""1"",""2254""
","
","","","-1","","","25","1215","536","z","elianto","#f73b6a7A","-1","-1","1","0","[]","0","2","","","1215","63","4","4","lose","no-go","0","0"
"pit-trial","153","1060083","0.0-68.0","battery-v0.2","","""event"",""trial"",""time""
""fullscreenenter"",""1"",""2254""
""blur"",""7"",""30187""
""focus"",""7"",""30293""
""blur"",""7"",""30525""
""focus"",""7"",""30592""
","""event"",""trial"",""time""
""blur"",""7"",""30187""
""blur"",""7"",""30525""
","""event"",""trial"",""time""
""focus"",""7"",""30293""
""focus"",""7"",""30592""
","""event"",""trial"",""time""
""fullscreenenter"",""1"",""2254""
","
","","","675","","","25","1215","536","b","elianto","#3366ff99","-1"," ","0","0","[1526]","1","2","","","1215","64","6","2","win","no-go","0","0"
"pit-trial","154","1064939","0.0-69.0","battery-v0.2","","""event"",""trial"",""time""
""fullscreenenter"",""1"",""2254""
""blur"",""7"",""30187""
""focus"",""7"",""30293""
""blur"",""7"",""30525""
""focus"",""7"",""30592""
","""event"",""trial"",""time""
""blur"",""7"",""30187""
""blur"",""7"",""30525""
","""event"",""trial"",""time""
""focus"",""7"",""30293""
""focus"",""7"",""30592""
","""event"",""trial"",""time""
""fullscreenenter"",""1"",""2254""
","
","","","-1","","","25","1215","536","c","elianto","#f73b6a7A"," ","-1","0","-10","[]","0","2","","","1215","65","5","3","lose","go","0","0"
"pit-trial","155","1069794","0.0-70.0","battery-v0.2","","""event"",""trial"",""time""
""fullscreenenter"",""1"",""2254""
""blur"",""7"",""30187""
""focus"",""7"",""30293""
""blur"",""7"",""30525""
""focus"",""7"",""30592""
","""event"",""trial"",""time""
""blur"",""7"",""30187""
""blur"",""7"",""30525""
","""event"",""trial"",""time""
""focus"",""7"",""30293""
""focus"",""7"",""30592""
","""event"",""trial"",""time""
""fullscreenenter"",""1"",""2254""
","
","","","-1","","","25","1215","536","z","elianto","#f73b6a7A","-1","-1","1","0","[]","0","2","","","1215","66","4","4","lose","no-go","0","0"
"pit-trial","156","1073578","0.0-71.0","battery-v0.2","","""event"",""trial"",""time""
""fullscreenenter"",""1"",""2254""
""blur"",""7"",""30187""
""focus"",""7"",""30293""
""blur"",""7"",""30525""
""focus"",""7"",""30592""
","""event"",""trial"",""time""
""blur"",""7"",""30187""
""blur"",""7"",""30525""
","""event"",""trial"",""time""
""focus"",""7"",""30293""
""focus"",""7"",""30592""
","""event"",""trial"",""time""
""fullscreenenter"",""1"",""2254""
","
","","","928","","","25","1215","536","b","elianto","#3366ff99","-1"," ","0","+10","[1780]","1","2","","","1215","67","6","2","win","no-go","1","0"
"pit-trial","157","1077166","0.0-72.0","battery-v0.2","","""event"",""trial"",""time""
""fullscreenenter"",""1"",""2254""
""blur"",""7"",""30187""
""focus"",""7"",""30293""
""blur"",""7"",""30525""
""focus"",""7"",""30592""
","""event"",""trial"",""time""
""blur"",""7"",""30187""
""blur"",""7"",""30525""
","""event"",""trial"",""time""
""focus"",""7"",""30293""
""focus"",""7"",""30592""
","""event"",""trial"",""time""
""fullscreenenter"",""1"",""2254""
","
","","","734","","","25","1215","536","y","elianto","#3366ff99"," "," ","1","+10","[1584]","1","2","","","1215","68","2","1","win","go","0","0"
"pit-trial","158","1080857","0.0-73.0","battery-v0.2","","""event"",""trial"",""time""
""fullscreenenter"",""1"",""2254""
""blur"",""7"",""30187""
""focus"",""7"",""30293""
""blur"",""7"",""30525""
""focus"",""7"",""30592""
","""event"",""trial"",""time""
""blur"",""7"",""30187""
""blur"",""7"",""30525""
","""event"",""trial"",""time""
""focus"",""7"",""30293""
""focus"",""7"",""30592""
","""event"",""trial"",""time""
""fullscreenenter"",""1"",""2254""
","
","","","835","","","25","1215","536","t","elianto","#f73b6a7A","-1"," ","0","0","[1685]","1","2","","","1215","69","7","4","lose","no-go","1","0"
"pit-trial","159","1084666","0.0-74.0","battery-v0.2","","""event"",""trial"",""time""
""fullscreenenter"",""1"",""2254""
""blur"",""7"",""30187""
""focus"",""7"",""30293""
""blur"",""7"",""30525""
""focus"",""7"",""30592""
","""event"",""trial"",""time""
""blur"",""7"",""30187""
""blur"",""7"",""30525""
","""event"",""trial"",""time""
""focus"",""7"",""30293""
""focus"",""7"",""30592""
","""event"",""trial"",""time""
""fullscreenenter"",""1"",""2254""
","
","","","952","","","25","1215","536","z","elianto","#f73b6a7A","-1"," ","0","-10","[1804]","1","2","","","1215","70","4","4","lose","no-go","0","0"
