"trial_type","trial_index","time_elapsed","internal_node_id","task_version","success","view_history","rt","responses","num_errors","age","subject","participantId","rune","rune_set","hex","correct","choice","accuracy","outcome","keys","total_keys","block","practice","value","sub","trial","stimulus","robot","valence","action","sham","browser_interactions"
"pavlovia","0","12","0.0-0.0","battery-v0.2","","","","","","","","","","","","","","","","","","","","","","","","","","","",""
"fullscreen","1","2250","0.0-1.0","battery-v0.2","true","","","","","","","","","","","","","","","","","","","","","","","","","","",""
"pit-instructions","2","89229","0.0-2.0-0.0","battery-v0.2","","[{""page_index"":0,""viewing_time"":86964}]","86976","","","","","","","","","","","","","","","","","","","","","","","","",""
"pit-comprehension","3","92262","0.0-2.0-1.0-0.0","battery-v0.2","","","2826","[""shark""]","0","22","1000","359","","","","","","","","","","","","","","","","","","","",""
"pit-instructions","4","93276","0.0-2.0-1.0-1.0","battery-v0.2","","[{""page_index"":0,""viewing_time"":997}]","998","","","","","","","","","","","","","","","","","","","","","","","","",""
"pit-comprehension","5","95801","0.0-2.0-2.0-0.0","battery-v0.2","","","2521","[""tiger""]","0","22","1000","359","","","","","","","","","","","","","","","","","","","",""
"pit-instructions","6","98639","0.0-2.0-2.0-1.0","battery-v0.2","","[{""page_index"":0,""viewing_time"":2833.9999999999854}]","2833.9999999999854","","","","","","","","","","","","","","","","","","","","","","","","",""
"pit-instructions","7","201230","0.0-2.0-3.0","battery-v0.2","","[{""page_index"":0,""viewing_time"":19231},{""page_index"":1,""viewing_time"":6266},{""page_index"":2,""viewing_time"":6551},{""page_index"":3,""viewing_time"":5615},{""page_index"":4,""viewing_time"":5365},{""page_index"":5,""viewing_time"":5247},{""page_index"":6,""viewing_time"":5280},{""page_index"":7,""viewing_time"":6685},{""page_index"":8,""viewing_time"":6317},{""page_index"":9,""viewing_time"":10963},{""page_index"":10,""viewing_time"":7068},{""page_index"":11,""viewing_time"":6485},{""page_index"":12,""viewing_time"":7001},{""page_index"":13,""viewing_time"":4513}]","102587","","","","","","","","","","","","","","","","","","","","","","","","",""
"pit-trial","8","204194","0.0-2.0-4.0-0.0","battery-v0.2","","","108","","","22","1000","359","&#9784;","elianto","#FFFFF080"," "," ","1","&#10004","[959]","1","0","0","","","","","","","","",""
"pit-trial","9","207705","0.0-2.0-4.1-0.1","battery-v0.2","","","654","","","22","1000","359","&#9784;","elianto","#FFFFF080"," "," ","1","&#10004","[1506]","1","0","0","","","","","","","","",""
"pit-trial","10","211139","0.0-2.0-4.2-0.2","battery-v0.2","","","580.9999999999709","","","22","1000","359","&#9784;","elianto","#FFFFF080"," "," ","1","&#10004","[1431.999999999971]","1","0","0","","","","","","","","",""
"pit-trial","11","214631","0.0-2.0-4.3-0.3","battery-v0.2","","","638","","","22","1000","359","&#9784;","elianto","#FFFFF080"," "," ","1","&#10004","[1488]","1","0","0","","","","","","","","",""
"pit-trial","12","218094","0.0-2.0-4.4-0.4","battery-v0.2","","","609","","","22","1000","359","&#9784;","elianto","#FFFFF080"," "," ","1","&#10004","[1459]","1","0","0","","","","","","","","",""
"pit-instructions","13","238814","0.0-2.0-5.0","battery-v0.2","","[{""page_index"":0,""viewing_time"":4489.000000000029},{""page_index"":1,""viewing_time"":5381},{""page_index"":2,""viewing_time"":4962.999999999971},{""page_index"":3,""viewing_time"":5882.000000000029}]","20716","","","","","","","","","","","","","","","","","","","","","","","","",""
"pit-trial","14","243669","0.0-2.0-6.0-0.0","battery-v0.2","","","-1","","","22","1000","359","&#9854;","elianto","#FFFFF080","-1","-1","1","&#10004","[]","0","0","1","","","","","","","","",""
"pit-trial","15","248524","0.0-2.0-6.1-0.1","battery-v0.2","","","-1","","","22","1000","359","&#9854;","elianto","#FFFFF080","-1","-1","1","&#10004","[]","0","0","1","","","","","","","","",""
"pit-trial","16","253379","0.0-2.0-6.2-0.2","battery-v0.2","","","-1","","","22","1000","359","&#9854;","elianto","#FFFFF080","-1","-1","1","&#10004","[]","0","0","1","","","","","","","","",""
"pit-trial","17","258233","0.0-2.0-6.3-0.3","battery-v0.2","","","-1","","","22","1000","359","&#9854;","elianto","#FFFFF080","-1","-1","1","&#10004","[]","0","0","1","","","","","","","","",""
"pit-trial","18","263087","0.0-2.0-6.4-0.4","battery-v0.2","","","-1","","","22","1000","359","&#9854;","elianto","#FFFFF080","-1","-1","1","&#10004","[]","0","0","1","","","","","","","","",""
"pit-instructions","19","446335","0.0-2.0-7.0","battery-v0.2","","[{""page_index"":0,""viewing_time"":23417},{""page_index"":1,""viewing_time"":20053},{""page_index"":2,""viewing_time"":10662},{""page_index"":3,""viewing_time"":16912},{""page_index"":4,""viewing_time"":7855},{""page_index"":5,""viewing_time"":8789},{""page_index"":6,""viewing_time"":5816},{""page_index"":7,""viewing_time"":8840},{""page_index"":8,""viewing_time"":7353},{""page_index"":9,""viewing_time"":8272},{""page_index"":10,""viewing_time"":8406},{""page_index"":11,""viewing_time"":7085},{""page_index"":12,""viewing_time"":7587.000000000058},{""page_index"":13,""viewing_time"":10512},{""page_index"":14,""viewing_time"":8690},{""page_index"":15,""viewing_time"":8589},{""page_index"":16,""viewing_time"":7169.999999999942},{""page_index"":17,""viewing_time"":7235}]","183244.00000000006","","","","","","","","","","","","","","","","","","","","","","","","",""
"pit-trial","20","451189","0.0-2.0-8.0-0.0","battery-v0.2","","","-1","","","22","1000","359","&#9776;","elianto","#3366ff99"," ","-1","0","0","[]","0","0","1","","","","","","","","",""
"pit-trial","21","454610","0.0-2.0-8.0-1.0","battery-v0.2","","","565.9999999999418","","","22","1000","359","&#9776;","elianto","#3366ff99"," "," ","1","+10","[149.9999999999418,1416.9999999999418]","2","0","1","","","","","","","","",""
"pit-trial","22","459075","0.0-2.0-8.0-2.0","battery-v0.2","","","1609.0000000000582","","","22","1000","359","&#9776;","elianto","#3366ff99"," "," ","1","+10","[2460.000000000058]","1","0","1","","","","","","","","",""
"pit-trial","23","462419","0.0-2.0-8.0-3.0","battery-v0.2","","","490.0000000000582","","","22","1000","359","&#9776;","elianto","#3366ff99"," "," ","1","0","[1341.0000000000582]","1","0","1","","","","","","","","",""
"pit-trial","24","465673","0.0-2.0-8.0-4.0","battery-v0.2","","","400","","","22","1000","359","&#9776;","elianto","#3366ff99"," "," ","1","+10","[1251]","1","0","1","","","","","","","","",""
"call-function","25","465675","0.0-2.0-9.0","battery-v0.2","","","","","","","","","","","","","","","","","","","","","","","","","","","",""
"pit-instructions","26","502803","0.0-2.0-10.0","battery-v0.2","","[{""page_index"":0,""viewing_time"":5425},{""page_index"":1,""viewing_time"":6584},{""page_index"":2,""viewing_time"":9392},{""page_index"":3,""viewing_time"":8238},{""page_index"":4,""viewing_time"":7487}]","37127","","","","","","","","","","","","","","","","","","","","","","","","",""
"pit-trial","27","506188","0.0-2.0-11.0-0.0","battery-v0.2","","","531","","","22","1000","359","&#9761;","elianto","#3366ff99","-1"," ","0","0","[1382]","1","0","2","","","","","","","","",""
"pit-trial","28","509134","0.0-2.0-11.0-1.0","battery-v0.2","","","89.99999999994179","","","22","1000","359","&#9761;","elianto","#3366ff99","-1"," ","0","0","[940.9999999999418]","1","0","2","","","","","","","","",""
"pit-trial","29","513988","0.0-2.0-11.0-2.0","battery-v0.2","","","-1","","","22","1000","359","&#9761;","elianto","#3366ff99","-1","-1","1","+10","[]","0","0","2","","","","","","","","",""
"pit-trial","30","518842","0.0-2.0-11.0-3.0","battery-v0.2","","","-1","","","22","1000","359","&#9761;","elianto","#3366ff99","-1","-1","1","0","[]","0","0","2","","","","","","","","",""
"pit-trial","31","521938","0.0-2.0-11.0-4.0","battery-v0.2","","","240.0000000000582","","","22","1000","359","&#9761;","elianto","#3366ff99","-1"," ","0","0","[1092]","1","0","2","","","","","","","","",""
"pit-trial","32","525548","0.0-2.0-11.1-0.1","battery-v0.2","","","756","","","22","1000","359","&#9761;","elianto","#3366ff99","-1"," ","0","0","[1606.9999999999418]","1","0","2","","","","","","","","",""
"pit-trial","33","530403","0.0-2.0-11.1-1.1","battery-v0.2","","","-1","","","22","1000","359","&#9761;","elianto","#3366ff99","-1","-1","1","+10","[]","0","0","2","","","","","","","","",""
"pit-trial","34","535257","0.0-2.0-11.1-2.1","battery-v0.2","","","-1","","","22","1000","359","&#9761;","elianto","#3366ff99","-1","-1","1","+10","[]","0","0","2","","","","","","","","",""
"pit-trial","35","540110","0.0-2.0-11.1-3.1","battery-v0.2","","","-1","","","22","1000","359","&#9761;","elianto","#3366ff99","-1","-1","1","0","[]","0","0","2","","","","","","","","",""
"pit-trial","36","544965","0.0-2.0-11.1-4.1","battery-v0.2","","","-1","","","22","1000","359","&#9761;","elianto","#3366ff99","-1","-1","1","+10","[]","0","0","2","","","","","","","","",""
"call-function","37","544967","0.0-2.0-12.0","battery-v0.2","","","","","","","","","","","","","","","","","","","","","","","","","","","",""
"pit-instructions","38","592102","0.0-2.0-13.0","battery-v0.2","","[{""page_index"":0,""viewing_time"":11929},{""page_index"":1,""viewing_time"":9559},{""page_index"":2,""viewing_time"":4997},{""page_index"":3,""viewing_time"":13937},{""page_index"":4,""viewing_time"":6701}]","47123","","","","","","","","","","","","","","","","","","","","","","","","",""
"pit-trial","39","596957","0.0-2.0-14.0-0.0","battery-v0.2","","","-1","","","22","1000","359","&#9826;","elianto","#f73b6a7A","-1","-1","1","0","[]","0","0","3","","","","","","","","",""
"pit-trial","40","601812","0.0-2.0-14.0-1.0","battery-v0.2","","","-1","","","22","1000","359","&#9826;","elianto","#f73b6a7A","-1","-1","1","0","[]","0","0","3","","","","","","","","",""
"pit-trial","41","606667","0.0-2.0-14.0-2.0","battery-v0.2","","","-1","","","22","1000","359","&#9826;","elianto","#f73b6a7A","-1","-1","1","0","[]","0","0","3","","","","","","","","",""
"pit-trial","42","609863","0.0-2.0-14.0-3.0","battery-v0.2","","","339","","","22","1000","359","&#9826;","elianto","#f73b6a7A","-1"," ","0","0","[1190]","1","0","3","","","","","","","","",""
"pit-trial","43","614717","0.0-2.0-14.0-4.0","battery-v0.2","","","-1","","","22","1000","359","&#9826;","elianto","#f73b6a7A","-1","-1","1","0","[]","0","0","3","","","","","","","","",""
"pit-trial","44","619573","0.0-2.0-14.1-0.1","battery-v0.2","","","-1","","","22","1000","359","&#9826;","elianto","#f73b6a7A","-1","-1","1","0","[]","0","0","3","","","","","","","","",""
"pit-trial","45","624428","0.0-2.0-14.1-1.1","battery-v0.2","","","-1","","","22","1000","359","&#9826;","elianto","#f73b6a7A","-1","-1","1","0","[]","0","0","3","","","","","","","","",""
"pit-trial","46","629282","0.0-2.0-14.1-2.1","battery-v0.2","","","-1","","","22","1000","359","&#9826;","elianto","#f73b6a7A","-1","-1","1","0","[]","0","0","3","","","","","","","","",""
"pit-trial","47","634136","0.0-2.0-14.1-3.1","battery-v0.2","","","-1","","","22","1000","359","&#9826;","elianto","#f73b6a7A","-1","-1","1","-10","[]","0","0","3","","","","","","","","",""
"pit-trial","48","638991","0.0-2.0-14.1-4.1","battery-v0.2","","","-1","","","22","1000","359","&#9826;","elianto","#f73b6a7A","-1","-1","1","0","[]","0","0","3","","","","","","","","",""
"call-function","49","638993","0.0-2.0-15.0","battery-v0.2","","","","","","","","","","","","","","","","","","","","","","","","","","","",""
"pit-instructions","50","672904","0.0-2.0-16.0","battery-v0.2","","[{""page_index"":0,""viewing_time"":9193},{""page_index"":1,""viewing_time"":11748},{""page_index"":2,""viewing_time"":6451},{""page_index"":3,""viewing_time"":6517}]","33910","","","","","","","","","","","","","","","","","","","","","","","","",""
"pit-trial","51","677759","0.0-2.0-17.0-0.0","battery-v0.2","","","-1","","","22","1000","359","&#9789;","elianto","#f73b6a7A"," ","-1","0","-10","[]","0","0","4","","","","","","","","",""
"pit-trial","52","682614","0.0-2.0-17.0-1.0","battery-v0.2","","","-1","","","22","1000","359","&#9789;","elianto","#f73b6a7A"," ","-1","0","-10","[]","0","0","4","","","","","","","","",""
"pit-trial","53","687468","0.0-2.0-17.0-2.0","battery-v0.2","","","-1","","","22","1000","359","&#9789;","elianto","#f73b6a7A"," ","-1","0","-10","[]","0","0","4","","","","","","","","",""
"pit-trial","54","692322","0.0-2.0-17.0-3.0","battery-v0.2","","","-1","","","22","1000","359","&#9789;","elianto","#f73b6a7A"," ","-1","0","0","[]","0","0","4","","","","","","","","",""
"pit-trial","55","697177","0.0-2.0-17.0-4.0","battery-v0.2","","","-1","","","22","1000","359","&#9789;","elianto","#f73b6a7A"," ","-1","0","-10","[4314.999999999884]","1","0","4","","","","","","","","",""
"pit-trial","56","700231","0.0-2.0-17.1-0.1","battery-v0.2","","","198","","","22","1000","359","&#9789;","elianto","#f73b6a7A"," "," ","1","0","[1049]","1","0","4","","","","","","","","",""
"pit-trial","57","703436","0.0-2.0-17.1-1.1","battery-v0.2","","","352","","","22","1000","359","&#9789;","elianto","#f73b6a7A"," "," ","1","0","[1203]","1","0","4","","","","","","","","",""
"pit-trial","58","706338","0.0-2.0-17.1-2.1","battery-v0.2","","","48","","","22","1000","359","&#9789;","elianto","#f73b6a7A"," "," ","1","0","[898]","1","0","4","","","","","","","","",""
"pit-trial","59","709247","0.0-2.0-17.1-3.1","battery-v0.2","","","54","","","22","1000","359","&#9789;","elianto","#f73b6a7A"," "," ","1","-10","[905]","1","0","4","","","","","","","","",""
"pit-trial","60","714102","0.0-2.0-17.1-4.1","battery-v0.2","","","-1","","","22","1000","359","&#9789;","elianto","#f73b6a7A"," ","-1","0","-10","[]","0","0","4","","","","","","","","",""
"pit-trial","61","718956","0.0-2.0-17.2-0.2","battery-v0.2","","","-1","","","22","1000","359","&#9789;","elianto","#f73b6a7A"," ","-1","0","-10","[]","0","0","4","","","","","","","","",""
"pit-trial","62","722349","0.0-2.0-17.2-1.2","battery-v0.2","","","540","","","22","1000","359","&#9789;","elianto","#f73b6a7A"," "," ","1","0","[1390]","1","0","4","","","","","","","","",""
"pit-trial","63","727204","0.0-2.0-17.2-2.2","battery-v0.2","","","-1","","","22","1000","359","&#9789;","elianto","#f73b6a7A"," ","-1","0","-10","[]","0","0","4","","","","","","","","",""
"pit-trial","64","732058","0.0-2.0-17.2-3.2","battery-v0.2","","","-1","","","22","1000","359","&#9789;","elianto","#f73b6a7A"," ","-1","0","0","[]","0","0","4","","","","","","","","",""
"pit-trial","65","736911","0.0-2.0-17.2-4.2","battery-v0.2","","","-1","","","22","1000","359","&#9789;","elianto","#f73b6a7A"," ","-1","0","-10","[]","0","0","4","","","","","","","","",""
"pit-trial","66","741768","0.0-2.0-17.3-0.3","battery-v0.2","","","-1","","","22","1000","359","&#9789;","elianto","#f73b6a7A"," ","-1","0","-10","[]","0","0","4","","","","","","","","",""
"pit-trial","67","745148","0.0-2.0-17.3-1.3","battery-v0.2","","","528","","","22","1000","359","&#9789;","elianto","#f73b6a7A"," "," ","1","0","[1378]","1","0","4","","","","","","","","",""
"pit-trial","68","748092","0.0-2.0-17.3-2.3","battery-v0.2","","","90","","","22","1000","359","&#9789;","elianto","#f73b6a7A"," "," ","1","0","[940,2432]","2","0","4","","","","","","","","",""
"pit-trial","69","751014","0.0-2.0-17.3-3.3","battery-v0.2","","","69","","","22","1000","359","&#9789;","elianto","#f73b6a7A"," "," ","1","-10","[920]","1","0","4","","","","","","","","",""
"pit-trial","70","754904","0.0-2.0-17.3-4.3","battery-v0.2","","","1036","","","22","1000","359","&#9789;","elianto","#f73b6a7A"," "," ","1","0","[1884.9999999998836]","1","0","4","","","","","","","","",""
"call-function","71","754905","0.0-2.0-18.0","battery-v0.2","","","","","","","","","","","","","","","","","","","","","","","","","","","",""
"pit-instructions","72","811342","0.0-2.0-19.0","battery-v0.2","","[{""page_index"":0,""viewing_time"":6436},{""page_index"":1,""viewing_time"":5564},{""page_index"":2,""viewing_time"":10528},{""page_index"":3,""viewing_time"":5315},{""page_index"":4,""viewing_time"":6282},{""page_index"":5,""viewing_time"":8690},{""page_index"":6,""viewing_time"":4830.000000000116},{""page_index"":7,""viewing_time"":5748.999999999884},{""page_index"":8,""viewing_time"":3041}]","56435","","","","","","","","","","","","","","","","","","","","","","","","",""
"pit-comprehension","73","815354","0.0-2.0-20.0-0.0","battery-v0.2","","","4008.9999999998836","[""SPACE""]","0","22","1000","359","","","","","","","","","","","","","","","","","","","",""
"pit-instructions","74","818427","0.0-2.0-20.0-1.0","battery-v0.2","","[{""page_index"":0,""viewing_time"":3025.0000000001164}]","3026","","","","","","","","","","","","","","","","","","","","","","","","",""
"pit-comprehension","75","822858","0.0-2.0-21.0-0.0","battery-v0.2","","","4427","[""10""]","0","22","1000","359","","","","","","","","","","","","","","","","","","","",""
"pit-instructions","76","824644","0.0-2.0-21.0-1.0","battery-v0.2","","[{""page_index"":0,""viewing_time"":1742}]","1743","","","","","","","","","","","","","","","","","","","","","","","","",""
"pit-comprehension","77","831164","0.0-2.0-22.0-0.0","battery-v0.2","","","6514.999999999884","[""-10""]","1","22","1000","359","","","","","","","","","","","","","","","","","","","",""
"pit-instructions","78","834137","0.0-2.0-22.0-1.0","battery-v0.2","","[{""page_index"":0,""viewing_time"":2928}]","2929","","","","","","","","","","","","","","","","","","","","","","","","",""
"pit-instructions","79","835089","0.0-2.0-22.0-2.0-0.0","battery-v0.2","","[{""page_index"":0,""viewing_time"":950}]","950","","","","","","","","","","","","","","","","","","","","","","","","",""
"pit-comprehension","80","842494","0.0-2.0-22.1-0.1","battery-v0.2","","","7401","[""0""]","0","22","1000","359","","","","","","","","","","","","","","","","","","","",""
"pit-instructions","81","844765","0.0-2.0-22.1-1.1","battery-v0.2","","[{""page_index"":0,""viewing_time"":2225}]","2226","","","","","","","","","","","","","","","","","","","","","","","","",""
"pit-comprehension","82","853075","0.0-2.0-23.0-0.0","battery-v0.2","","","8305","[""True""]","0","22","1000","359","","","","","","","","","","","","","","","","","","","",""
"pit-instructions","83","854558","0.0-2.0-23.0-1.0","battery-v0.2","","[{""page_index"":0,""viewing_time"":1435}]","1435","","","","","","","","","","","","","","","","","","","","","","","","",""
"pit-comprehension","84","862013","0.0-2.0-24.0-0.0","battery-v0.2","","","7450","[""True""]","0","22","1000","359","","","","","","","","","","","","","","","","","","","",""
"pit-instructions","85","863465","0.0-2.0-24.0-1.0","battery-v0.2","","[{""page_index"":0,""viewing_time"":1405.0000000001164}]","1405.0000000001164","","","","","","","","","","","","","","","","","","","","","","","","",""
"pit-comprehension","86","870903","0.0-2.0-25.0-0.0","battery-v0.2","","","7433","[""True""]","0","22","1000","359","","","","","","","","","","","","","","","","","","","",""
"pit-instructions","87","872406","0.0-2.0-25.0-1.0","battery-v0.2","","[{""page_index"":0,""viewing_time"":1456}]","1456","","","","","","","","","","","","","","","","","","","","","","","","",""
"pit-comprehension","88","877554","0.0-2.0-26.0-0.0","battery-v0.2","","","5145","[""True""]","1","22","1000","359","","","","","","","","","","","","","","","","","","","",""
"pit-instructions","89","879259","0.0-2.0-26.0-1.0","battery-v0.2","","[{""page_index"":0,""viewing_time"":1656}]","1657","","","","","","","","","","","","","","","","","","","","","","","","",""
"pit-instructions","90","879943","0.0-2.0-26.0-2.0-0.0","battery-v0.2","","[{""page_index"":0,""viewing_time"":680}]","680","","","","","","","","","","","","","","","","","","","","","","","","",""
"pit-comprehension","91","884406","0.0-2.0-26.1-0.1","battery-v0.2","","","4458.999999999884","[""True""]","1","22","1000","359","","","","","","","","","","","","","","","","","","","",""
"pit-instructions","92","886092","0.0-2.0-26.1-1.1","battery-v0.2","","[{""page_index"":0,""viewing_time"":1636}]","1637","","","","","","","","","","","","","","","","","","","","","","","","",""
"pit-instructions","93","887964","0.0-2.0-26.1-2.1-0.1","battery-v0.2","","[{""page_index"":0,""viewing_time"":1869}]","1870","","","","","","","","","","","","","","","","","","","","","","","","",""
"pit-comprehension","94","892277","0.0-2.0-26.2-0.2","battery-v0.2","","","4310","[""False""]","0","22","1000","359","","","","","","","","","","","","","","","","","","","",""
"pit-instructions","95","893796","0.0-2.0-26.2-1.2","battery-v0.2","","[{""page_index"":0,""viewing_time"":1468}]","1468","","","","","","","","","","","","","","","","","","","","","","","","",""
"pit-instructions","96","909622","0.0-3.0","battery-v0.2","","[{""page_index"":0,""viewing_time"":3404},{""page_index"":1,""viewing_time"":5499},{""page_index"":2,""viewing_time"":6918}]","15821","","","","","","","","","","","","","","","","","","","","","","","","",""
"pit-trial","97","913236","0.0-4.0","battery-v0.2","","","755","","","22","1000","359","&#9752;","elianto","#f73b6a7A"," "," ","1","0","[1606]","1","1","","","1000","1","3","3","lose","go","0","[]"
"pit-trial","98","916354","0.0-5.0","battery-v0.2","","","263","","","22","1000","359","&#9728;","elianto","#f73b6a7A","-1"," ","0","0","[1112.9999999998836]","1","1","","","1000","2","0","4","lose","no-go","1","0"
"pit-trial","99","919251","0.0-6.0","battery-v0.2","","","41.000000000116415","","","22","1000","359","&#9730;","elianto","#3366ff99"," "," ","1","+10","[891]","1","1","","","1000","3","1","1","win","go","0","0"
"pit-trial","100","922387","0.0-7.0","battery-v0.2","","","281","","","22","1000","359","&#9733;","elianto","#3366ff99","-1"," ","0","+10","[1132]","1","1","","","1000","4","2","2","win","no-go","1","0"
"pit-trial","101","925346","0.0-8.0","battery-v0.2","","","104","","","22","1000","359","&#9730;","elianto","#3366ff99"," "," ","1","0","[954]","1","1","","","1000","5","1","1","win","go","1","0"
"pit-trial","102","928242","0.0-9.0","battery-v0.2","","","39.000000000116415","","","22","1000","359","&#9752;","elianto","#f73b6a7A"," "," ","1","0","[889]","1","1","","","1000","6","3","3","lose","go","0","0"
"pit-trial","103","931300","0.0-10.0","battery-v0.2","","","202","","","22","1000","359","&#9733;","elianto","#3366ff99","-1"," ","0","0","[1053]","1","1","","","1000","7","2","2","win","no-go","0","0"
"pit-trial","104","936156","0.0-11.0","battery-v0.2","","","-1","","","22","1000","359","&#9728;","elianto","#f73b6a7A","-1","-1","1","0","[]","0","1","","","1000","8","0","4","lose","no-go","0","0"
"pit-trial","105","939736","0.0-12.0","battery-v0.2","","","723","","","22","1000","359","&#9733;","elianto","#3366ff99","-1"," ","0","0","[1574]","1","1","","","1000","9","2","2","win","no-go","0","0"
"pit-trial","106","942854","0.0-13.0","battery-v0.2","","","262","","","22","1000","359","&#9752;","elianto","#f73b6a7A"," "," ","1","0","[1113]","1","1","","","1000","10","3","3","lose","go","0","0"
"pit-trial","107","946262","0.0-14.0","battery-v0.2","","","553","","","22","1000","359","&#9730;","elianto","#3366ff99"," "," ","1","0","[1403]","1","1","","","1000","11","1","1","win","go","1","0"
"pit-trial","108","949848","0.0-15.0","battery-v0.2","","","730.0000000001164","","","22","1000","359","&#9728;","elianto","#f73b6a7A","-1"," ","0","-10","[1581.0000000001164]","1","1","","","1000","12","0","4","lose","no-go","0","0"
"pit-trial","109","954704","0.0-16.0","battery-v0.2","","","-1","","","22","1000","359","&#9728;","elianto","#f73b6a7A","-1","-1","1","0","[]","0","1","","","1000","13","0","4","lose","no-go","0","0"
"pit-trial","110","958025","0.0-17.0","battery-v0.2","","","465","","","22","1000","359","&#9730;","elianto","#3366ff99"," "," ","1","+10","[1314]","1","1","","","1000","14","1","1","win","go","0","0"
"pit-trial","111","961066","0.0-18.0","battery-v0.2","","","186","","","22","1000","359","&#9752;","elianto","#f73b6a7A"," "," ","1","-10","[1036]","1","1","","","1000","15","3","3","lose","go","1","0"
"pit-trial","112","964374","0.0-19.0","battery-v0.2","","","453","","","22","1000","359","&#9733;","elianto","#3366ff99","-1"," ","0","+10","[1303]","1","1","","","1000","16","2","2","win","no-go","1","0"
"pit-trial","113","967360","0.0-20.0","battery-v0.2","","","130","","","22","1000","359","&#9752;","elianto","#f73b6a7A"," "," ","1","0","[981]","1","1","","","1000","17","3","3","lose","go","0","0"
"pit-trial","114","970600","0.0-21.0","battery-v0.2","","","385","","","22","1000","359","&#9733;","elianto","#3366ff99","-1"," ","0","0","[1236]","1","1","","","1000","18","2","2","win","no-go","0","0"
"pit-trial","115","973641","0.0-22.0","battery-v0.2","","","186","","","22","1000","359","&#9730;","elianto","#3366ff99"," "," ","1","+10","[1037]","1","1","","","1000","19","1","1","win","go","0","0"
"pit-trial","116","976615","0.0-23.0","battery-v0.2","","","117.99999999988358","","","22","1000","359","&#9728;","elianto","#f73b6a7A","-1"," ","0","-10","[968]","1","1","","","1000","20","0","4","lose","no-go","0","0"
"pit-instructions","117","989369","0.0-24.0","battery-v0.2","","[{""page_index"":0,""viewing_time"":6586},{""page_index"":1,""viewing_time"":6164}]","12750","","","","","","","","","","","","","","","","","","","","","","","","",""
"pit-trial","118","992358","0.0-25.0","battery-v0.2","","","131","","","22","1000","359","q","elianto","#3366ff99","-1"," ","0","0","[982]","1","2","","","1000","21","0","2","win","no-go","0","0"
"pit-trial","119","997214","0.0-26.0","battery-v0.2","","","-1","","","22","1000","359","f","elianto","#f73b6a7A","-1","-1","1","0","[]","0","2","","","1000","22","2","4","lose","no-go","0","0"
"pit-trial","120","1000690","0.0-27.0","battery-v0.2","","","620","","","22","1000","359","x","elianto","#3366ff99"," "," ","1","+10","[1471]","1","2","","","1000","23","3","1","win","go","0","0"
"pit-trial","121","1005547","0.0-28.0","battery-v0.2","","","-1","","","22","1000","359","n","elianto","#f73b6a7A"," ","-1","0","-10","[]","0","2","","","1000","24","1","3","lose","go","0","0"
"pit-trial","122","1008907","0.0-29.0","battery-v0.2","","","505","","","22","1000","359","x","elianto","#3366ff99"," "," ","1","+10","[1355]","1","2","","","1000","25","3","1","win","go","0","0"
"pit-trial","123","1012076","0.0-30.0","battery-v0.2","","","314","","","22","1000","359","f","elianto","#f73b6a7A","-1"," ","0","-10","[1165]","1","2","","","1000","26","2","4","lose","no-go","0","0"
"pit-trial","124","1015359","0.0-31.0","battery-v0.2","","","427","","","22","1000","359","q","elianto","#3366ff99","-1"," ","0","0","[1278]","1","2","","","1000","27","0","2","win","no-go","0","0"
"pit-trial","125","1020215","0.0-32.0","battery-v0.2","","","-1","","","22","1000","359","n","elianto","#f73b6a7A"," ","-1","0","0","[]","0","2","","","1000","28","1","3","lose","go","1","0"
"pit-trial","126","1023434","0.0-33.0","battery-v0.2","","","364","","","22","1000","359","f","elianto","#f73b6a7A","-1"," ","0","-10","[1214]","1","2","","","1000","29","2","4","lose","no-go","0","0"
"pit-trial","127","1026388","0.0-34.0","battery-v0.2","","","96.99999999988358","","","22","1000","359","x","elianto","#3366ff99"," "," ","1","+10","[949]","1","2","","","1000","30","3","1","win","go","0","0"
"pit-trial","128","1029593","0.0-35.0","battery-v0.2","","","349","","","22","1000","359","n","elianto","#f73b6a7A"," "," ","1","0","[1200.0000000001164]","1","2","","","1000","31","1","3","lose","go","0","0"
"pit-trial","129","1032899","0.0-36.0","battery-v0.2","","","451","","","22","1000","359","q","elianto","#3366ff99","-1"," ","0","0","[1300.9999999998836]","1","2","","","1000","32","0","2","win","no-go","0","0"
"pit-trial","130","1037755","0.0-37.0","battery-v0.2","","","-1","","","22","1000","359","n","elianto","#f73b6a7A"," ","-1","0","-10","[]","0","2","","","1000","33","1","3","lose","go","0","0"
"pit-trial","131","1040691","0.0-38.0","battery-v0.2","","","78.99999999988358","","","22","1000","359","f","elianto","#f73b6a7A","-1"," ","0","-10","[930.9999999997672]","1","2","","","1000","34","2","4","lose","no-go","0","0"
"pit-trial","132","1043647","0.0-39.0","battery-v0.2","","","101.00000000011642","","","22","1000","359","q","elianto","#3366ff99","-1"," ","0","0","[952]","1","2","","","1000","35","0","2","win","no-go","0","0"
"pit-trial","133","1046959","0.0-40.0","battery-v0.2","","","456.9999999998836","","","22","1000","359","x","elianto","#3366ff99"," "," ","1","+10","[1308]","1","2","","","1000","36","3","1","win","go","0","0"
"pit-trial","134","1050354","0.0-41.0","battery-v0.2","","","540","","","22","1000","359","x","elianto","#3366ff99"," "," ","1","+10","[1390.9999999998836]","1","2","","","1000","37","3","1","win","go","0","0"
"pit-trial","135","1054466","0.0-42.0","battery-v0.2","","","1257","","","22","1000","359","q","elianto","#3366ff99","-1"," ","0","0","[2108]","1","2","","","1000","38","0","2","win","no-go","0","0"
"pit-trial","136","1057381","0.0-43.0","battery-v0.2","","","59","","","22","1000","359","f","elianto","#f73b6a7A","-1"," ","0","-10","[910]","1","2","","","1000","39","2","4","lose","no-go","0","0"
"pit-trial","137","1060443","0.0-44.0","battery-v0.2","","","205","","","22","1000","359","n","elianto","#f73b6a7A"," "," ","1","0","[1056]","1","2","","","1000","40","1","3","lose","go","0","0"
"pit-trial","138","1065301","0.0-45.0","battery-v0.2","","","-1","","","22","1000","359","n","elianto","#f73b6a7A"," ","-1","0","-10","[]","0","2","","","1000","41","1","3","lose","go","0","0"
"pit-trial","139","1068381","0.0-46.0","battery-v0.2","","","223","","","22","1000","359","x","elianto","#3366ff99"," "," ","1","0","[1075]","1","2","","","1000","42","3","1","win","go","1","0"
"pit-trial","140","1071810","0.0-47.0","battery-v0.2","","","574","","","22","1000","359","f","elianto","#f73b6a7A","-1"," ","0","-10","[1425]","1","2","","","1000","43","2","4","lose","no-go","0","0"
"pit-trial","141","1075071","0.0-48.0","battery-v0.2","","","406","","","22","1000","359","q","elianto","#3366ff99","-1"," ","0","0","[1257]","1","2","","","1000","44","0","2","win","no-go","0","0"
"pit-trial","142","1079927","0.0-49.0","battery-v0.2","","","-1","","","22","1000","359","n","elianto","#f73b6a7A"," ","-1","0","-10","[]","0","2","","","1000","45","1","3","lose","go","0","0"
"pit-trial","143","1084783","0.0-50.0","battery-v0.2","","","-1","","","22","1000","359","f","elianto","#f73b6a7A","-1","-1","1","0","[]","0","2","","","1000","46","2","4","lose","no-go","0","0"
"pit-trial","144","1088060","0.0-51.0","battery-v0.2","","","421","","","22","1000","359","x","elianto","#3366ff99"," "," ","1","0","[1272]","1","2","","","1000","47","3","1","win","go","1","0"
"pit-trial","145","1091405","0.0-52.0","battery-v0.2","","","489","","","22","1000","359","q","elianto","#3366ff99","-1"," ","0","0","[1339]","1","2","","","1000","48","0","2","win","no-go","0","0"
"pit-trial","146","1096261","0.0-53.0","battery-v0.2","","","-1","","","22","1000","359","f","elianto","#f73b6a7A","-1","-1","1","0","[]","0","2","","","1000","49","2","4","lose","no-go","0","0"
"pit-trial","147","1099488","0.0-54.0","battery-v0.2","","","372.99999999976717","","","22","1000","359","x","elianto","#3366ff99"," "," ","1","0","[1223]","1","2","","","1000","50","3","1","win","go","1","0"
"pit-trial","148","1102522","0.0-55.0","battery-v0.2","","","179","","","22","1000","359","n","elianto","#f73b6a7A"," "," ","1","0","[1029]","1","2","","","1000","51","1","3","lose","go","0","0"
"pit-trial","149","1105751","0.0-56.0","battery-v0.2","","","376","","","22","1000","359","q","elianto","#3366ff99","-1"," ","0","+10","[1226]","1","2","","","1000","52","0","2","win","no-go","1","0"
"pit-trial","150","1110607","0.0-57.0","battery-v0.2","","","-1","","","22","1000","359","t","elianto","#f73b6a7A"," ","-1","0","0","[]","0","2","","","1000","53","4","3","lose","go","1","0"
"pit-trial","151","1115463","0.0-58.0","battery-v0.2","","","-1","","","22","1000","359","n","elianto","#f73b6a7A"," ","-1","0","0","[]","0","2","","","1000","54","1","3","lose","go","1","0"
"pit-trial","152","1118418","0.0-59.0","battery-v0.2","","","99","","","22","1000","359","f","elianto","#f73b6a7A","-1"," ","0","0","[949]","1","2","","","1000","55","2","4","lose","no-go","1","0"
"pit-trial","153","1122334","0.0-60.0","battery-v0.2","","","1061","","","22","1000","359","b","elianto","#f73b6a7A","-1"," ","0","-10","[1912]","1","2","","","1000","56","5","4","lose","no-go","0","0"
"pit-trial","154","1126279","0.0-61.0","battery-v0.2","","","1089","","","22","1000","359","n","elianto","#f73b6a7A"," "," ","1","0","[1939]","1","2","","","1000","57","1","3","lose","go","0","0"
"pit-trial","155","1129396","0.0-62.0","battery-v0.2","","","262","","","22","1000","359","b","elianto","#f73b6a7A","-1"," ","0","-10","[1112]","1","2","","","1000","58","5","4","lose","no-go","0","0"
"pit-trial","156","1132281","0.0-63.0","battery-v0.2","","","29","","","22","1000","359","f","elianto","#f73b6a7A","-1"," ","0","-10","[880]","1","2","","","1000","59","2","4","lose","no-go","0","0"
"pit-trial","157","1135378","0.0-64.0","battery-v0.2","","","241","","","22","1000","359","t","elianto","#f73b6a7A"," "," ","1","0","[1091]","1","2","","","1000","60","4","3","lose","go","0","0"
"pit-trial","158","1138666","0.0-65.0","battery-v0.2","","","434","","","22","1000","359","t","elianto","#f73b6a7A"," "," ","1","0","[1284]","1","2","","","1000","61","4","3","lose","go","0","0"
"pit-trial","159","1141694","0.0-66.0","battery-v0.2","","","173","","","22","1000","359","c","elianto","#3366ff99","-1"," ","0","0","[1024]","1","2","","","1000","62","6","2","win","no-go","0","0"
"pit-trial","160","1144733","0.0-67.0","battery-v0.2","","","184","","","22","1000","359","f","elianto","#f73b6a7A","-1"," ","0","-10","[1034]","1","2","","","1000","63","2","4","lose","no-go","0","0"
"pit-trial","161","1149589","0.0-68.0","battery-v0.2","","","-1","","","22","1000","359","b","elianto","#f73b6a7A","-1","-1","1","0","[]","0","2","","","1000","64","5","4","lose","no-go","0","0"
"pit-trial","162","1152979","0.0-69.0","battery-v0.2","","","534","","","22","1000","359","b","elianto","#f73b6a7A","-1"," ","0","-10","[1385]","1","2","","","1000","65","5","4","lose","no-go","0","0"
"pit-trial","163","1155945","0.0-70.0","battery-v0.2","","","109","","","22","1000","359","c","elianto","#3366ff99","-1"," ","0","0","[960]","1","2","","","1000","66","6","2","win","no-go","0","0"
"pit-trial","164","1160801","0.0-71.0","battery-v0.2","","","-1","","","22","1000","359","t","elianto","#f73b6a7A"," ","-1","0","-10","[]","0","2","","","1000","67","4","3","lose","go","0","0"
"pit-trial","165","1164473","0.0-72.0","battery-v0.2","","","815","","","22","1000","359","f","elianto","#f73b6a7A","-1"," ","0","-10","[1666]","1","2","","","1000","68","2","4","lose","no-go","0","0"
"pit-trial","166","1167792","0.0-73.0","battery-v0.2","","","463","","","22","1000","359","c","elianto","#3366ff99","-1"," ","0","0","[1314]","1","2","","","1000","69","6","2","win","no-go","0","0"
"pit-trial","167","1172300","0.0-74.0","battery-v0.2","","","1651","","","22","1000","359","z","elianto","#3366ff99"," "," ","1","+10","[2502]","1","2","","","1000","70","7","1","win","go","0","0"
"pit-trial","168","1177156","0.0-75.0","battery-v0.2","","","-1","","","22","1000","359","b","elianto","#f73b6a7A","-1","-1","1","0","[]","0","2","","","1000","71","5","4","lose","no-go","0","0"
"pit-trial","169","1180395","0.0-76.0","battery-v0.2","","","383.00000000023283","","","22","1000","359","t","elianto","#f73b6a7A"," "," ","1","-10","[1234.0000000002328]","1","2","","","1000","72","4","3","lose","go","1","0"
"pit-trial","170","1183388","0.0-77.0","battery-v0.2","","","137.99999999976717","","","22","1000","359","z","elianto","#3366ff99"," "," ","1","+10","[989]","1","2","","","1000","73","7","1","win","go","0","0"
"pit-trial","171","1186598","0.0-78.0","battery-v0.2","","","355","","","22","1000","359","b","elianto","#f73b6a7A","-1"," ","0","0","[1205]","1","2","","","1000","74","5","4","lose","no-go","1","0"
"pit-trial","172","1191454","0.0-79.0","battery-v0.2","","","-1","","","22","1000","359","t","elianto","#f73b6a7A"," ","-1","0","-10","[]","0","2","","","1000","75","4","3","lose","go","0","0"
"pit-trial","173","1194417","0.0-80.0","battery-v0.2","","","107","","","22","1000","359","c","elianto","#3366ff99","-1"," ","0","0","[959]","1","2","","","1000","76","6","2","win","no-go","0","0"
"pit-trial","174","1197855","0.0-81.0","battery-v0.2","","","582","","","22","1000","359","c","elianto","#3366ff99","-1"," ","0","0","[1432]","1","2","","","1000","77","6","2","win","no-go","0","0"
"pit-trial","175","1202711","0.0-82.0","battery-v0.2","","","-1","","","22","1000","359","t","elianto","#f73b6a7A"," ","-1","0","-10","[]","0","2","","","1000","78","4","3","lose","go","0","0"
"pit-trial","176","1205953","0.0-83.0","battery-v0.2","","","385.00000000023283","","","22","1000","359","b","elianto","#f73b6a7A","-1"," ","0","-10","[1237.0000000002328,1351]","2","2","","","1000","79","5","4","lose","no-go","0","0"
"pit-trial","177","1208840","0.0-84.0","battery-v0.2","","","30.99999999976717","","","22","1000","359","z","elianto","#3366ff99"," "," ","1","0","[882]","1","2","","","1000","80","7","1","win","go","1","0"
"pit-trial","178","1213696","0.0-85.0","battery-v0.2","","","-1","","","22","1000","359","b","elianto","#f73b6a7A","-1","-1","1","0","[]","0","2","","","1000","81","5","4","lose","no-go","0","0"
"pit-trial","179","1216900","0.0-86.0","battery-v0.2","","","348","","","22","1000","359","z","elianto","#3366ff99"," "," ","1","+10","[1199]","1","2","","","1000","82","7","1","win","go","0","0"
"pit-trial","180","1221756","0.0-87.0","battery-v0.2","","","-1","","","22","1000","359","t","elianto","#f73b6a7A"," ","-1","0","-10","[]","0","2","","","1000","83","4","3","lose","go","0","0"
"pit-trial","181","1224764","0.0-88.0","battery-v0.2","","","152","","","22","1000","359","c","elianto","#3366ff99","-1"," ","0","+10","[1003]","1","2","","","1000","84","6","2","win","no-go","1","0"
"pit-trial","182","1227879","0.0-89.0","battery-v0.2","","","260","","","22","1000","359","c","elianto","#3366ff99","-1"," ","0","+10","[1110]","1","2","","","1000","85","6","2","win","no-go","1","0"
"pit-trial","183","1232735","0.0-90.0","battery-v0.2","","","-1","","","22","1000","359","b","elianto","#f73b6a7A","-1","-1","1","0","[]","0","2","","","1000","86","5","4","lose","no-go","0","0"
"pit-trial","184","1236035","0.0-91.0","battery-v0.2","","","443","","","22","1000","359","z","elianto","#3366ff99"," "," ","1","+10","[1293]","1","2","","","1000","87","7","1","win","go","0","0"
"pit-trial","185","1240891","0.0-92.0","battery-v0.2","","","-1","","","22","1000","359","t","elianto","#f73b6a7A"," ","-1","0","0","[]","0","2","","","1000","88","4","3","lose","go","1","0"
"pit-trial","186","1245747","0.0-93.0","battery-v0.2","","","-1","","","22","1000","359","t","elianto","#f73b6a7A"," ","-1","0","0","[]","0","2","","","1000","89","4","3","lose","go","1","0"
"pit-trial","187","1249131","0.0-94.0","battery-v0.2","","","530","","","22","1000","359","b","elianto","#f73b6a7A","-1"," ","0","-10","[1379.9999999997672]","1","2","","","1000","90","5","4","lose","no-go","0","0"
"pit-trial","188","1252398","0.0-95.0","battery-v0.2","","","412","","","22","1000","359","c","elianto","#3366ff99","-1"," ","0","0","[1261.9999999997672]","1","2","","","1000","91","6","2","win","no-go","0","0"
"pit-trial","189","1255669","0.0-96.0","battery-v0.2","","","414","","","22","1000","359","z","elianto","#3366ff99"," "," ","1","+10","[1264]","1","2","","","1000","92","7","1","win","go","0","0"
"pit-trial","190","1259368","0.0-97.0","battery-v0.2","","","843.0000000002328","","","22","1000","359","h","elianto","#3366ff99"," "," ","1","+10","[1693]","1","2","","","1000","93","8","1","win","go","0","0"
"pit-trial","191","1262640","0.0-98.0","battery-v0.2","","","416","","","22","1000","359","z","elianto","#3366ff99"," "," ","1","+10","[1266]","1","2","","","1000","94","7","1","win","go","0","0"
"pit-trial","192","1265959","0.0-99.0","battery-v0.2","","","463","","","22","1000","359","c","elianto","#3366ff99","-1"," ","0","0","[1313]","1","2","","","1000","95","6","2","win","no-go","0","0"
"pit-trial","193","1270814","0.0-100.0","battery-v0.2","","","-1","","","22","1000","359","t","elianto","#f73b6a7A"," ","-1","0","-10","[]","0","2","","","1000","96","4","3","lose","go","0","0"
"pit-trial","194","1273794","0.0-101.0","battery-v0.2","","","124","","","22","1000","359","c","elianto","#3366ff99","-1"," ","0","0","[975]","1","2","","","1000","97","6","2","win","no-go","0","0"
"pit-trial","195","1277032","0.0-102.0","battery-v0.2","","","381","","","22","1000","359","h","elianto","#3366ff99"," "," ","1","0","[1233]","1","2","","","1000","98","8","1","win","go","1","0"
"pit-trial","196","1280356","0.0-103.0","battery-v0.2","","","469","","","22","1000","359","z","elianto","#3366ff99"," "," ","1","0","[1319]","1","2","","","1000","99","7","1","win","go","1","0"
"pit-trial","197","1285212","0.0-104.0","battery-v0.2","","","-1","","","22","1000","359","t","elianto","#f73b6a7A"," ","-1","0","-10","[]","0","2","","","1000","100","4","3","lose","go","0","0"
"pit-trial","198","1288613","0.0-105.0","battery-v0.2","","","545","","","22","1000","359","c","elianto","#3366ff99","-1"," ","0","0","[1396]","1","2","","","1000","101","6","2","win","no-go","0","0"
"pit-trial","199","1292131","0.0-106.0","battery-v0.2","","","662","","","22","1000","359","y","elianto","#3366ff99","-1"," ","0","0","[1511.9999999997672]","1","2","","","1000","102","9","2","win","no-go","0","0"
"pit-trial","200","1295446","0.0-107.0","battery-v0.2","","","460","","","22","1000","359","z","elianto","#3366ff99"," "," ","1","+10","[1310]","1","2","","","1000","103","7","1","win","go","0","0"
"pit-trial","201","1298628","0.0-108.0","battery-v0.2","","","327","","","22","1000","359","h","elianto","#3366ff99"," "," ","1","+10","[1177]","1","2","","","1000","104","8","1","win","go","0","0"
"pit-trial","202","1301932","0.0-109.0","battery-v0.2","","","448.99999999976717","","","22","1000","359","z","elianto","#3366ff99"," "," ","1","+10","[1300]","1","2","","","1000","105","7","1","win","go","0","0"
"pit-trial","203","1305298","0.0-110.0","battery-v0.2","","","510","","","22","1000","359","c","elianto","#3366ff99","-1"," ","0","0","[1361]","1","2","","","1000","106","6","2","win","no-go","0","0"
"pit-trial","204","1308588","0.0-111.0","battery-v0.2","","","436.00000000023283","","","22","1000","359","y","elianto","#3366ff99","-1"," ","0","0","[1286.0000000002328]","1","2","","","1000","107","9","2","win","no-go","0","0"
"pit-trial","205","1312122","0.0-112.0","battery-v0.2","","","676.9999999997672","","","22","1000","359","h","elianto","#3366ff99"," "," ","1","+10","[1528]","1","2","","","1000","108","8","1","win","go","0","0"
"pit-trial","206","1316976","0.0-113.0","battery-v0.2","","","-1","","","22","1000","359","r","elianto","#f73b6a7A"," ","-1","0","0","[]","0","2","","","1000","109","10","3","lose","go","1","0"
"pit-trial","207","1320394","0.0-114.0","battery-v0.2","","","562","","","22","1000","359","y","elianto","#3366ff99","-1"," ","0","0","[1413]","1","2","","","1000","110","9","2","win","no-go","0","0"
"pit-trial","208","1323865","0.0-115.0","battery-v0.2","","","616","","","22","1000","359","h","elianto","#3366ff99"," "," ","1","+10","[1468]","1","2","","","1000","111","8","1","win","go","0","0"
"pit-trial","209","1328721","0.0-116.0","battery-v0.2","","","-1","","","22","1000","359","m","elianto","#f73b6a7A","-1","-1","1","0","[]","0","2","","","1000","112","11","4","lose","no-go","0","0"
"pit-trial","210","1332161","0.0-117.0","battery-v0.2","","","584","","","22","1000","359","y","elianto","#3366ff99","-1"," ","0","0","[1435]","1","2","","","1000","113","9","2","win","no-go","0","0"
"pit-trial","211","1335592","0.0-118.0","battery-v0.2","","","575","","","22","1000","359","h","elianto","#3366ff99"," "," ","1","+10","[1425.9999999997672]","1","2","","","1000","114","8","1","win","go","0","0"
"pit-trial","212","1339353","0.0-119.0","battery-v0.2","","","906","","","22","1000","359","r","elianto","#f73b6a7A"," "," ","1","0","[1757]","1","2","","","1000","115","10","3","lose","go","0","0"
"pit-trial","213","1343045","0.0-120.0","battery-v0.2","","","836","","","22","1000","359","m","elianto","#f73b6a7A","-1"," ","0","-10","[1685.9999999997672]","1","2","","","1000","116","11","4","lose","no-go","0","0"
"pit-trial","214","1346254","0.0-121.0","battery-v0.2","","","351","","","22","1000","359","h","elianto","#3366ff99"," "," ","1","+10","[1203]","1","2","","","1000","117","8","1","win","go","0","0"
"pit-trial","215","1351110","0.0-122.0","battery-v0.2","","","-1","","","22","1000","359","m","elianto","#f73b6a7A","-1","-1","1","-10","[]","0","2","","","1000","118","11","4","lose","no-go","1","0"
"pit-trial","216","1354358","0.0-123.0","battery-v0.2","","","392","","","22","1000","359","r","elianto","#f73b6a7A"," "," ","1","0","[1243]","1","2","","","1000","119","10","3","lose","go","0","0"
"pit-trial","217","1357622","0.0-124.0","battery-v0.2","","","409","","","22","1000","359","y","elianto","#3366ff99","-1"," ","0","0","[1260]","1","2","","","1000","120","9","2","win","no-go","0","0"
"pit-trial","218","1362477","0.0-125.0","battery-v0.2","","","-1","","","22","1000","359","m","elianto","#f73b6a7A","-1","-1","1","-10","[]","0","2","","","1000","121","11","4","lose","no-go","1","0"
"pit-trial","219","1365820","0.0-126.0","battery-v0.2","","","487.00000000023283","","","22","1000","359","y","elianto","#3366ff99","-1"," ","0","0","[1338.0000000002328]","1","2","","","1000","122","9","2","win","no-go","0","0"
"pit-trial","220","1370676","0.0-127.0","battery-v0.2","","","-1","","","22","1000","359","r","elianto","#f73b6a7A"," ","-1","0","-10","[]","0","2","","","1000","123","10","3","lose","go","0","0"
"pit-trial","221","1374793","0.0-128.0","battery-v0.2","","","1262","","","22","1000","359","h","elianto","#3366ff99"," "," ","1","+10","[2112]","1","2","","","1000","124","8","1","win","go","0","0"
"pit-trial","222","1378386","0.0-129.0","battery-v0.2","","","738","","","22","1000","359","y","elianto","#3366ff99","-1"," ","0","0","[1589]","1","2","","","1000","125","9","2","win","no-go","0","0"
"pit-trial","223","1383242","0.0-130.0","battery-v0.2","","","-1","","","22","1000","359","m","elianto","#f73b6a7A","-1","-1","1","0","[]","0","2","","","1000","126","11","4","lose","no-go","0","0"
"pit-trial","224","1386509","0.0-131.0","battery-v0.2","","","409.99999999976717","","","22","1000","359","h","elianto","#3366ff99"," "," ","1","+10","[1261]","1","2","","","1000","127","8","1","win","go","0","0"
"pit-trial","225","1391365","0.0-132.0","battery-v0.2","","","-1","","","22","1000","359","r","elianto","#f73b6a7A"," ","-1","0","-10","[]","0","2","","","1000","128","10","3","lose","go","0","0"
"pit-trial","226","1394665","0.0-133.0","battery-v0.2","","","444","","","22","1000","359","y","elianto","#3366ff99","-1"," ","0","+10","[1295]","1","2","","","1000","129","9","2","win","no-go","1","0"
"pit-trial","227","1398048","0.0-134.0","battery-v0.2","","","527","","","22","1000","359","h","elianto","#3366ff99"," "," ","1","+10","[1378]","1","2","","","1000","130","8","1","win","go","0","0"
"pit-trial","228","1402904","0.0-135.0","battery-v0.2","","","-1","","","22","1000","359","r","elianto","#f73b6a7A"," ","-1","0","0","[]","0","2","","","1000","131","10","3","lose","go","1","0"
"pit-trial","229","1406094","0.0-136.0","battery-v0.2","","","336","","","22","1000","359","m","elianto","#f73b6a7A","-1"," ","0","-10","[1186]","1","2","","","1000","132","11","4","lose","no-go","0","0"
"pit-trial","230","1409370","0.0-137.0","battery-v0.2","","","419.00000000023283","","","22","1000","359","y","elianto","#3366ff99","-1"," ","0","0","[1271.0000000002328]","1","2","","","1000","133","9","2","win","no-go","0","0"
"pit-trial","231","1414226","0.0-138.0","battery-v0.2","","","-1","","","22","1000","359","r","elianto","#f73b6a7A"," ","-1","0","-10","[]","0","2","","","1000","134","10","3","lose","go","0","0"
"pit-trial","232","1419081","0.0-139.0","battery-v0.2","","","-1","","","22","1000","359","m","elianto","#f73b6a7A","-1","-1","1","0","[]","0","2","","","1000","135","11","4","lose","no-go","0","0"
"pit-trial","233","1422330","0.0-140.0","battery-v0.2","","","394","","","22","1000","359","h","elianto","#3366ff99"," "," ","1","+10","[1245]","1","2","","","1000","136","8","1","win","go","0","0"
"pit-trial","234","1427186","0.0-141.0","battery-v0.2","","","-1","","","22","1000","359","m","elianto","#f73b6a7A","-1","-1","1","0","[]","0","2","","","1000","137","11","4","lose","no-go","0","0"
"pit-trial","235","1430448","0.0-142.0","battery-v0.2","","","404.99999999976717","","","22","1000","359","y","elianto","#3366ff99","-1"," ","0","0","[1255]","1","2","","","1000","138","9","2","win","no-go","0","0"
"pit-trial","236","1434080","0.0-143.0","battery-v0.2","","","776","","","22","1000","359","h","elianto","#3366ff99"," "," ","1","+10","[1626]","1","2","","","1000","139","8","1","win","go","0","0"
"pit-trial","237","1438936","0.0-144.0","battery-v0.2","","","-1","","","22","1000","359","r","elianto","#f73b6a7A"," ","-1","0","-10","[]","0","2","","","1000","140","10","3","lose","go","0","0"
"pit-instructions","238","1479116","0.0-145.0","battery-v0.2","","[{""page_index"":0,""viewing_time"":5082.000000000233},{""page_index"":1,""viewing_time"":35093.99999999977}]","40176","","","","","","","","","","","","","","","","","","","","","","","","",""
"pit-trial","239","1483973","0.0-146.0","battery-v0.2","","","-1","","","22","1000","359","k","elianto","#f73b6a7A"," ","-1","0","0","[]","0","3","","","1000","141","3","3","lose","go","1","0"
"pit-trial","240","1487065","0.0-147.0","battery-v0.2","","","235","","","22","1000","359","j","elianto","#3366ff99","-1"," ","0","0","[1086]","1","3","","","1000","142","1","2","win","no-go","0","0"
"pit-trial","241","1490698","0.0-148.0","battery-v0.2","","","777","","","22","1000","359","v","elianto","#3366ff99","-1"," ","0","0","[1626.9999999997672]","1","3","","","1000","143","0","2","win","no-go","0","0"
"pit-trial","242","1493930","0.0-149.0","battery-v0.2","","","375","","","22","1000","359","d","elianto","#3366ff99"," "," ","1","+10","[1226]","1","3","","","1000","144","2","1","win","go","0","0"
"pit-trial","243","1497171","0.0-150.0","battery-v0.2","","","387","","","22","1000","359","d","elianto","#3366ff99"," "," ","1","+10","[1236]","1","3","","","1000","145","2","1","win","go","0","0"
"pit-trial","244","1500522","0.0-151.0","battery-v0.2","","","496","","","22","1000","359","j","elianto","#3366ff99","-1"," ","0","0","[1345]","1","3","","","1000","146","1","2","win","no-go","0","0"
"pit-trial","245","1505377","0.0-152.0","battery-v0.2","","","-1","","","22","1000","359","k","elianto","#f73b6a7A"," ","-1","0","-10","[]","0","3","","","1000","147","3","3","lose","go","0","0"
"pit-trial","246","1508395","0.0-153.0","battery-v0.2","","","162","","","22","1000","359","v","elianto","#3366ff99","-1"," ","0","0","[1013]","1","3","","","1000","148","0","2","win","no-go","0","0"
"pit-trial","247","1511606","0.0-154.0","battery-v0.2","","","356","","","22","1000","359","d","elianto","#3366ff99"," "," ","1","+10","[1206]","1","3","","","1000","149","2","1","win","go","0","0"
"pit-trial","248","1514987","0.0-155.0","battery-v0.2","","","525","","","22","1000","359","v","elianto","#3366ff99","-1"," ","0","0","[1376]","1","3","","","1000","150","0","2","win","no-go","0","0"
"pit-trial","249","1518270","0.0-156.0","battery-v0.2","","","426","","","22","1000","359","j","elianto","#3366ff99","-1"," ","0","+10","[1277]","1","3","","","1000","151","1","2","win","no-go","1","0"
"pit-trial","250","1523125","0.0-157.0","battery-v0.2","","","-1","","","22","1000","359","k","elianto","#f73b6a7A"," ","-1","0","-10","[]","0","3","","","1000","152","3","3","lose","go","0","0"
"pit-trial","251","1526346","0.0-158.0","battery-v0.2","","","365","","","22","1000","359","v","elianto","#3366ff99","-1"," ","0","0","[1216.9999999997672]","1","3","","","1000","153","0","2","win","no-go","0","0"
"pit-trial","252","1529599","0.0-159.0","battery-v0.2","","","397","","","22","1000","359","d","elianto","#3366ff99"," "," ","1","+10","[1247]","1","3","","","1000","154","2","1","win","go","0","0"
"pit-trial","253","1534455","0.0-160.0","battery-v0.2","","","-1","","","22","1000","359","k","elianto","#f73b6a7A"," ","-1","0","-10","[]","0","3","","","1000","155","3","3","lose","go","0","0"
"pit-trial","254","1537635","0.0-161.0","battery-v0.2","","","323","","","22","1000","359","j","elianto","#3366ff99","-1"," ","0","0","[1174]","1","3","","","1000","156","1","2","win","no-go","0","0"
"pit-trial","255","1540930","0.0-162.0","battery-v0.2","","","439","","","22","1000","359","v","elianto","#3366ff99","-1"," ","0","0","[1290]","1","3","","","1000","157","0","2","win","no-go","0","0"
"pit-trial","256","1545786","0.0-163.0","battery-v0.2","","","-1","","","22","1000","359","k","elianto","#f73b6a7A"," ","-1","0","-10","[]","0","3","","","1000","158","3","3","lose","go","0","0"
"pit-trial","257","1548875","0.0-164.0","battery-v0.2","","","234","","","22","1000","359","j","elianto","#3366ff99","-1"," ","0","0","[1084]","1","3","","","1000","159","1","2","win","no-go","0","0"
"pit-trial","258","1552070","0.0-165.0","battery-v0.2","","","339","","","22","1000","359","d","elianto","#3366ff99"," "," ","1","0","[1190]","1","3","","","1000","160","2","1","win","go","1","0"
"pit-trial","259","1556928","0.0-166.0","battery-v0.2","","","-1","","","22","1000","359","k","elianto","#f73b6a7A"," ","-1","0","-10","[]","0","3","","","1000","161","3","3","lose","go","0","0"
"pit-trial","260","1560549","0.0-167.0","battery-v0.2","","","765.9999999997672","","","22","1000","359","v","elianto","#3366ff99","-1"," ","0","0","[1617]","1","3","","","1000","162","0","2","win","no-go","0","0"
"pit-trial","261","1564545","0.0-168.0","battery-v0.2","","","1143","","","22","1000","359","j","elianto","#3366ff99","-1"," ","0","0","[1992.9999999997672]","1","3","","","1000","163","1","2","win","no-go","0","0"
"pit-trial","262","1567808","0.0-169.0","battery-v0.2","","","405","","","22","1000","359","d","elianto","#3366ff99"," "," ","1","+10","[1256]","1","3","","","1000","164","2","1","win","go","0","0"
"pit-trial","263","1571085","0.0-170.0","battery-v0.2","","","420","","","22","1000","359","j","elianto","#3366ff99","-1"," ","0","0","[1271]","1","3","","","1000","165","1","2","win","no-go","0","0"
"pit-trial","264","1574401","0.0-171.0","battery-v0.2","","","460","","","22","1000","359","k","elianto","#f73b6a7A"," "," ","1","0","[1311]","1","3","","","1000","166","3","3","lose","go","0","0"
"pit-trial","265","1577671","0.0-172.0","battery-v0.2","","","413","","","22","1000","359","d","elianto","#3366ff99"," "," ","1","+10","[1264]","1","3","","","1000","167","2","1","win","go","0","0"
"pit-trial","266","1581168","0.0-173.0","battery-v0.2","","","641.0000000002328","","","22","1000","359","v","elianto","#3366ff99","-1"," ","0","0","[1492.0000000002328]","1","3","","","1000","168","0","2","win","no-go","0","0"
"pit-trial","267","1586024","0.0-174.0","battery-v0.2","","","-1","","","22","1000","359","k","elianto","#f73b6a7A"," ","-1","0","-10","[]","0","3","","","1000","169","3","3","lose","go","0","0"
"pit-trial","268","1589177","0.0-175.0","battery-v0.2","","","296.99999999976717","","","22","1000","359","d","elianto","#3366ff99"," "," ","1","0","[1148]","1","3","","","1000","170","2","1","win","go","1","0"
"pit-trial","269","1592567","0.0-176.0","battery-v0.2","","","532.9999999997672","","","22","1000","359","v","elianto","#3366ff99","-1"," ","0","+10","[1384]","1","3","","","1000","171","0","2","win","no-go","1","0"
"pit-trial","270","1597422","0.0-177.0","battery-v0.2","","","-1","","","22","1000","359","j","elianto","#3366ff99","-1","-1","1","+10","[2992.000000000233]","1","3","","","1000","172","1","2","win","no-go","0","0"
"pit-trial","271","1602278","0.0-178.0","battery-v0.2","","","-1","","","22","1000","359","e","elianto","#f73b6a7A","-1","-1","1","0","[]","0","3","","","1000","173","4","4","lose","no-go","0","0"
"pit-trial","272","1607136","0.0-179.0","battery-v0.2","","","-1","","","22","1000","359","w","elianto","#f73b6a7A"," ","-1","0","-10","[]","0","3","","","1000","174","5","3","lose","go","0","0"
"pit-trial","273","1610096","0.0-180.0","battery-v0.2","","","104","","","22","1000","359","d","elianto","#3366ff99"," "," ","1","+10","[955]","1","3","","","1000","175","2","1","win","go","0","0"
"pit-trial","274","1613357","0.0-181.0","battery-v0.2","","","406","","","22","1000","359","v","elianto","#3366ff99","-1"," ","0","0","[1255.9999999997672]","1","3","","","1000","176","0","2","win","no-go","0","0"
"pit-trial","275","1616680","0.0-182.0","battery-v0.2","","","467","","","22","1000","359","v","elianto","#3366ff99","-1"," ","0","0","[1317]","1","3","","","1000","177","0","2","win","no-go","0","0"
"pit-trial","276","1621537","0.0-183.0","battery-v0.2","","","-1","","","22","1000","359","e","elianto","#f73b6a7A","-1","-1","1","-10","[]","0","3","","","1000","178","4","4","lose","no-go","1","0"
"pit-trial","277","1624681","0.0-184.0","battery-v0.2","","","289","","","22","1000","359","d","elianto","#3366ff99"," "," ","1","+10","[1140]","1","3","","","1000","179","2","1","win","go","0","0"
"pit-trial","278","1629537","0.0-185.0","battery-v0.2","","","-1","","","22","1000","359","w","elianto","#f73b6a7A"," ","-1","0","-10","[]","0","3","","","1000","180","5","3","lose","go","0","0"
"pit-trial","279","1632764","0.0-186.0","battery-v0.2","","","371.00000000023283","","","22","1000","359","d","elianto","#3366ff99"," "," ","1","+10","[1222.0000000002328]","1","3","","","1000","181","2","1","win","go","0","0"
"pit-trial","280","1636046","0.0-187.0","battery-v0.2","","","427","","","22","1000","359","s","elianto","#3366ff99","-1"," ","0","0","[1278]","1","3","","","1000","182","6","2","win","no-go","0","0"
"pit-trial","281","1640902","0.0-188.0","battery-v0.2","","","-1","","","22","1000","359","e","elianto","#f73b6a7A","-1","-1","1","0","[]","0","3","","","1000","183","4","4","lose","no-go","0","0"
"pit-trial","282","1644094","0.0-189.0","battery-v0.2","","","337","","","22","1000","359","w","elianto","#f73b6a7A"," "," ","1","0","[1187]","1","3","","","1000","184","5","3","lose","go","0","0"
"pit-trial","283","1648659","0.0-190.0","battery-v0.2","","","1709","","","22","1000","359","w","elianto","#f73b6a7A"," "," ","1","0","[2559]","1","3","","","1000","185","5","3","lose","go","0","0"
"pit-trial","284","1652008","0.0-191.0","battery-v0.2","","","493.99999999976717","","","22","1000","359","e","elianto","#f73b6a7A","-1"," ","0","-10","[1345]","1","3","","","1000","186","4","4","lose","no-go","0","0"
"pit-trial","285","1655226","0.0-192.0","battery-v0.2","","","362.00000000023283","","","22","1000","359","d","elianto","#3366ff99"," "," ","1","+10","[1214.0000000002328]","1","3","","","1000","187","2","1","win","go","0","0"
"pit-trial","286","1658538","0.0-193.0","battery-v0.2","","","454.99999999976717","","","22","1000","359","s","elianto","#3366ff99","-1"," ","0","0","[1306]","1","3","","","1000","188","6","2","win","no-go","0","0"
"pit-trial","287","1661757","0.0-194.0","battery-v0.2","","","363","","","22","1000","359","e","elianto","#f73b6a7A","-1"," ","0","0","[1214]","1","3","","","1000","189","4","4","lose","no-go","1","0"
"pit-trial","288","1665585","0.0-195.0","battery-v0.2","","","972","","","22","1000","359","w","elianto","#f73b6a7A"," "," ","1","-10","[1823]","1","3","","","1000","190","5","3","lose","go","1","0"
"pit-trial","289","1668508","0.0-196.0","battery-v0.2","","","68","","","22","1000","359","p","elianto","#f73b6a7A","-1"," ","0","-10","[919]","1","3","","","1000","191","7","4","lose","no-go","0","0"
"pit-trial","290","1672476","0.0-197.0","battery-v0.2","","","1111","","","22","1000","359","s","elianto","#3366ff99","-1"," ","0","0","[1962]","1","3","","","1000","192","6","2","win","no-go","0","0"
"pit-trial","291","1675956","0.0-198.0","battery-v0.2","","","626","","","22","1000","359","w","elianto","#f73b6a7A"," "," ","1","0","[1476]","1","3","","","1000","193","5","3","lose","go","0","0"
"pit-trial","292","1679111","0.0-199.0","battery-v0.2","","","301.00000000023283","","","22","1000","359","e","elianto","#f73b6a7A","-1"," ","0","-10","[1152.0000000002328]","1","3","","","1000","194","4","4","lose","no-go","0","0"
"pit-trial","293","1682327","0.0-200.0","battery-v0.2","","","360.99999999976717","","","22","1000","359","s","elianto","#3366ff99","-1"," ","0","0","[1212]","1","3","","","1000","195","6","2","win","no-go","0","0"
"pit-trial","294","1685629","0.0-201.0","battery-v0.2","","","446","","","22","1000","359","p","elianto","#f73b6a7A","-1"," ","0","-10","[1296]","1","3","","","1000","196","7","4","lose","no-go","0","0"
"pit-trial","295","1688662","0.0-202.0","battery-v0.2","","","177","","","22","1000","359","e","elianto","#f73b6a7A","-1"," ","0","-10","[1028]","1","3","","","1000","197","4","4","lose","no-go","0","0"
"pit-trial","296","1691873","0.0-203.0","battery-v0.2","","","356","","","22","1000","359","p","elianto","#f73b6a7A","-1"," ","0","-10","[1206]","1","3","","","1000","198","7","4","lose","no-go","0","0"
"pit-trial","297","1695098","0.0-204.0","battery-v0.2","","","367","","","22","1000","359","s","elianto","#3366ff99","-1"," ","0","+10","[1219]","1","3","","","1000","199","6","2","win","no-go","1","0"
"pit-trial","298","1699953","0.0-205.0","battery-v0.2","","","-1","","","22","1000","359","w","elianto","#f73b6a7A"," ","-1","0","0","[]","0","3","","","1000","200","5","3","lose","go","1","0"
"pit-trial","299","1703228","0.0-206.0","battery-v0.2","","","419","","","22","1000","359","e","elianto","#f73b6a7A","-1"," ","0","-10","[1271]","1","3","","","1000","201","4","4","lose","no-go","0","0"
"pit-trial","300","1706711","0.0-207.0","battery-v0.2","","","627","","","22","1000","359","p","elianto","#f73b6a7A","-1"," ","0","-10","[1478]","1","3","","","1000","202","7","4","lose","no-go","0","0"
"pit-trial","301","1709820","0.0-208.0","battery-v0.2","","","254","","","22","1000","359","s","elianto","#3366ff99","-1"," ","0","0","[1104]","1","3","","","1000","203","6","2","win","no-go","0","0"
"pit-trial","302","1712972","0.0-209.0","battery-v0.2","","","297","","","22","1000","359","w","elianto","#f73b6a7A"," "," ","1","0","[1148]","1","3","","","1000","204","5","3","lose","go","0","0"
"pit-trial","303","1716034","0.0-210.0","battery-v0.2","","","205","","","22","1000","359","p","elianto","#f73b6a7A","-1"," ","0","-10","[1055.9999999997672]","1","3","","","1000","205","7","4","lose","no-go","0","0"
"pit-trial","304","1719188","0.0-211.0","battery-v0.2","","","296.99999999976717","","","22","1000","359","e","elianto","#f73b6a7A","-1"," ","0","-10","[1148]","1","3","","","1000","206","4","4","lose","no-go","0","0"
"pit-trial","305","1722372","0.0-212.0","battery-v0.2","","","329.00000000023283","","","22","1000","359","w","elianto","#f73b6a7A"," "," ","1","0","[1179.0000000002328]","1","3","","","1000","207","5","3","lose","go","0","0"
"pit-trial","306","1725649","0.0-213.0","battery-v0.2","","","420.99999999976717","","","22","1000","359","s","elianto","#3366ff99","-1"," ","0","0","[1271]","1","3","","","1000","208","6","2","win","no-go","0","0"
"pit-trial","307","1728581","0.0-214.0","battery-v0.2","","","77","","","22","1000","359","s","elianto","#3366ff99","-1"," ","0","0","[928]","1","3","","","1000","209","6","2","win","no-go","0","0"
"pit-trial","308","1731690","0.0-215.0","battery-v0.2","","","253","","","22","1000","359","p","elianto","#f73b6a7A","-1"," ","0","-10","[1105]","1","3","","","1000","210","7","4","lose","no-go","0","0"
"pit-trial","309","1734981","0.0-216.0","battery-v0.2","","","435.99999999976717","","","22","1000","359","e","elianto","#f73b6a7A","-1"," ","0","-10","[1286]","1","3","","","1000","211","4","4","lose","no-go","0","0"
"pit-trial","310","1737916","0.0-217.0","battery-v0.2","","","80","","","22","1000","359","w","elianto","#f73b6a7A"," "," ","1","-10","[930]","1","3","","","1000","212","5","3","lose","go","1","0"
"pit-trial","311","1741582","0.0-218.0","battery-v0.2","","","812","","","22","1000","359","p","elianto","#f73b6a7A","-1"," ","0","-10","[1661.9999999997672]","1","3","","","1000","213","7","4","lose","no-go","0","0"
"pit-trial","312","1745135","0.0-219.0","battery-v0.2","","","698","","","22","1000","359","s","elianto","#3366ff99","-1"," ","0","+10","[1548]","1","3","","","1000","214","6","2","win","no-go","1","0"
"pit-trial","313","1749374","0.0-220.0","battery-v0.2","","","1383","","","22","1000","359","g","elianto","#f73b6a7A","-1"," ","0","-10","[2234]","1","3","","","1000","215","8","4","lose","no-go","0","0"
"pit-trial","314","1754230","0.0-221.0","battery-v0.2","","","-1","","","22","1000","359","w","elianto","#f73b6a7A"," ","-1","0","-10","[]","0","3","","","1000","216","5","3","lose","go","0","0"
"pit-trial","315","1757498","0.0-222.0","battery-v0.2","","","412.00000000023283","","","22","1000","359","s","elianto","#3366ff99","-1"," ","0","0","[1263.0000000002328]","1","3","","","1000","217","6","2","win","no-go","0","0"
"pit-trial","316","1762354","0.0-223.0","battery-v0.2","","","-1","","","22","1000","359","p","elianto","#f73b6a7A","-1","-1","1","-10","[]","0","3","","","1000","218","7","4","lose","no-go","1","0"
"pit-trial","317","1767216","0.0-224.0","battery-v0.2","","","-1","","","22","1000","359","w","elianto","#f73b6a7A"," ","-1","0","-10","[]","0","3","","","1000","219","5","3","lose","go","0","0"
"pit-trial","318","1772080","0.0-225.0","battery-v0.2","","","-1","","","22","1000","359","g","elianto","#f73b6a7A","-1","-1","1","0","[]","0","3","","","1000","220","8","4","lose","no-go","0","0"
"pit-trial","319","1776941","0.0-226.0","battery-v0.2","","","-1","","","22","1000","359","l","elianto","#f73b6a7A"," ","-1","0","-10","[]","0","3","","","1000","221","10","3","lose","go","0","0"
"pit-trial","320","1780323","0.0-227.0","battery-v0.2","","","524","","","22","1000","359","a","elianto","#3366ff99"," "," ","1","0","[1375]","1","3","","","1000","222","9","1","win","go","1","0"
"pit-trial","321","1783663","0.0-228.0","battery-v0.2","","","481","","","22","1000","359","s","elianto","#3366ff99","-1"," ","0","0","[1333]","1","3","","","1000","223","6","2","win","no-go","0","0"
"pit-trial","322","1788521","0.0-229.0","battery-v0.2","","","-1","","","22","1000","359","g","elianto","#f73b6a7A","-1","-1","1","0","[]","0","3","","","1000","224","8","4","lose","no-go","0","0"
"pit-trial","323","1793379","0.0-230.0","battery-v0.2","","","-1","","","22","1000","359","g","elianto","#f73b6a7A","-1","-1","1","-10","[]","0","3","","","1000","225","8","4","lose","no-go","1","0"
"pit-trial","324","1798236","0.0-231.0","battery-v0.2","","","-1","","","22","1000","359","l","elianto","#f73b6a7A"," ","-1","0","-10","[]","0","3","","","1000","226","10","3","lose","go","0","0"
"pit-trial","325","1802468","0.0-232.0","battery-v0.2","","","1375","","","22","1000","359","s","elianto","#3366ff99","-1"," ","0","0","[2226]","1","3","","","1000","227","6","2","win","no-go","0","0"
"pit-trial","326","1805758","0.0-233.0","battery-v0.2","","","431.99999999976717","","","22","1000","359","a","elianto","#3366ff99"," "," ","1","+10","[1283]","1","3","","","1000","228","9","1","win","go","0","0"
"pit-trial","327","1808976","0.0-234.0","battery-v0.2","","","360.99999999976717","","","22","1000","359","a","elianto","#3366ff99"," "," ","1","+10","[1212]","1","3","","","1000","229","9","1","win","go","0","0"
"pit-trial","328","1812428","0.0-235.0","battery-v0.2","","","597","","","22","1000","359","l","elianto","#f73b6a7A"," "," ","1","-10","[1447]","1","3","","","1000","230","10","3","lose","go","1","0"
"pit-trial","329","1816558","0.0-236.0","battery-v0.2","","","1274.0000000002328","","","22","1000","359","g","elianto","#f73b6a7A","-1"," ","0","-10","[2124.000000000233]","1","3","","","1000","231","8","4","lose","no-go","0","0"
"pit-trial","330","1819804","0.0-237.0","battery-v0.2","","","388.99999999976717","","","22","1000","359","u","elianto","#3366ff99"," "," ","1","+10","[1240]","1","3","","","1000","232","11","1","win","go","0","0"
"pit-trial","331","1824660","0.0-238.0","battery-v0.2","","","-1","","","22","1000","359","l","elianto","#f73b6a7A"," ","-1","0","0","[]","0","3","","","1000","233","10","3","lose","go","1","0"
"pit-trial","332","1829515","0.0-239.0","battery-v0.2","","","-1","","","22","1000","359","g","elianto","#f73b6a7A","-1","-1","1","0","[]","0","3","","","1000","234","8","4","lose","no-go","0","0"
"pit-trial","333","1832885","0.0-240.0","battery-v0.2","","","513","","","22","1000","359","a","elianto","#3366ff99"," "," ","1","+10","[1363.9999999997672]","1","3","","","1000","235","9","1","win","go","0","0"
"pit-trial","334","1836231","0.0-241.0","battery-v0.2","","","488.99999999976717","","","22","1000","359","u","elianto","#3366ff99"," "," ","1","+10","[1341]","1","3","","","1000","236","11","1","win","go","0","0"
"pit-trial","335","1839589","0.0-242.0","battery-v0.2","","","504","","","22","1000","359","u","elianto","#3366ff99"," "," ","1","+10","[1354]","1","3","","","1000","237","11","1","win","go","0","0"
"pit-trial","336","1844446","0.0-243.0","battery-v0.2","","","-1","","","22","1000","359","l","elianto","#f73b6a7A"," ","-1","0","-10","[]","0","3","","","1000","238","10","3","lose","go","0","0"
"pit-trial","337","1847828","0.0-244.0","battery-v0.2","","","526.0000000002328","","","22","1000","359","g","elianto","#f73b6a7A","-1"," ","0","-10","[1377.0000000002328]","1","3","","","1000","239","8","4","lose","no-go","0","0"
"pit-trial","338","1851048","0.0-245.0","battery-v0.2","","","365","","","22","1000","359","a","elianto","#3366ff99"," "," ","1","0","[1216]","1","3","","","1000","240","9","1","win","go","1","0"
"pit-trial","339","1854410","0.0-246.0","battery-v0.2","","","506","","","22","1000","359","a","elianto","#3366ff99"," "," ","1","+10","[1357]","1","3","","","1000","241","9","1","win","go","0","0"
"pit-trial","340","1859266","0.0-247.0","battery-v0.2","","","-1","","","22","1000","359","l","elianto","#f73b6a7A"," ","-1","0","-10","[]","0","3","","","1000","242","10","3","lose","go","0","0"
"pit-trial","341","1862394","0.0-248.0","battery-v0.2","","","272","","","22","1000","359","g","elianto","#f73b6a7A","-1"," ","0","-10","[1122.9999999997672]","1","3","","","1000","243","8","4","lose","no-go","0","0"
"pit-trial","342","1865695","0.0-249.0","battery-v0.2","","","447","","","22","1000","359","u","elianto","#3366ff99"," "," ","1","+10","[1297]","1","3","","","1000","244","11","1","win","go","0","0"
"pit-trial","343","1870551","0.0-250.0","battery-v0.2","","","-1","","","22","1000","359","g","elianto","#f73b6a7A","-1","-1","1","-10","[]","0","3","","","1000","245","8","4","lose","no-go","1","0"
"pit-trial","344","1874067","0.0-251.0","battery-v0.2","","","659.9999999997672","","","22","1000","359","u","elianto","#3366ff99"," "," ","1","+10","[1510]","1","3","","","1000","246","11","1","win","go","0","0"
"pit-trial","345","1877526","0.0-252.0","battery-v0.2","","","602","","","22","1000","359","a","elianto","#3366ff99"," "," ","1","+10","[1452]","1","3","","","1000","247","9","1","win","go","0","0"
"pit-trial","346","1882382","0.0-253.0","battery-v0.2","","","-1","","","22","1000","359","l","elianto","#f73b6a7A"," ","-1","0","-10","[]","0","3","","","1000","248","10","3","lose","go","0","0"
"pit-trial","347","1887238","0.0-254.0","battery-v0.2","","","-1","","","22","1000","359","l","elianto","#f73b6a7A"," ","-1","0","-10","[]","0","3","","","1000","249","10","3","lose","go","0","0"
"pit-trial","348","1890586","0.0-255.0","battery-v0.2","","","494","","","22","1000","359","a","elianto","#3366ff99"," "," ","1","+10","[1344]","1","3","","","1000","250","9","1","win","go","0","0"
"pit-trial","349","1893853","0.0-256.0","battery-v0.2","","","412","","","22","1000","359","u","elianto","#3366ff99"," "," ","1","+10","[1262]","1","3","","","1000","251","11","1","win","go","0","0"
"pit-trial","350","1898708","0.0-257.0","battery-v0.2","","","-1","","","22","1000","359","g","elianto","#f73b6a7A","-1","-1","1","0","[]","0","3","","","1000","252","8","4","lose","no-go","0","0"
"pit-trial","351","1902023","0.0-258.0","battery-v0.2","","","459.00000000023283","","","22","1000","359","a","elianto","#3366ff99"," "," ","1","0","[1310.0000000002328]","1","3","","","1000","253","9","1","win","go","1","0"
"pit-trial","352","1906878","0.0-259.0","battery-v0.2","","","-1","","","22","1000","359","l","elianto","#f73b6a7A"," ","-1","0","-10","[]","0","3","","","1000","254","10","3","lose","go","0","0"
"pit-trial","353","1910080","0.0-260.0","battery-v0.2","","","346","","","22","1000","359","u","elianto","#3366ff99"," "," ","1","+10","[1196.0000000002328]","1","3","","","1000","255","11","1","win","go","0","0"
"pit-trial","354","1914936","0.0-261.0","battery-v0.2","","","-1","","","22","1000","359","g","elianto","#f73b6a7A","-1","-1","1","0","[]","0","3","","","1000","256","8","4","lose","no-go","0","0"
"pit-trial","355","1918133","0.0-262.0","battery-v0.2","","","341","","","22","1000","359","g","elianto","#f73b6a7A","-1"," ","0","-10","[1192]","1","3","","","1000","257","8","4","lose","no-go","0","0"
"pit-trial","356","1922989","0.0-263.0","battery-v0.2","","","-1","","","22","1000","359","l","elianto","#f73b6a7A"," ","-1","0","-10","[]","0","3","","","1000","258","10","3","lose","go","0","0"
"pit-trial","357","1926541","0.0-264.0","battery-v0.2","","","697","","","22","1000","359","a","elianto","#3366ff99"," "," ","1","+10","[1548]","1","3","","","1000","259","9","1","win","go","0","0"
"pit-trial","358","1929937","0.0-265.0","battery-v0.2","","","539.9999999997672","","","22","1000","359","u","elianto","#3366ff99"," "," ","1","+10","[1391]","1","3","","","1000","260","11","1","win","go","0","0"
"pit-instructions","359","1935511","0.0-266.0","battery-v0.2","","[{""page_index"":0,""viewing_time"":5568}]","5569","","","","","","","","","","","","","","","","","","","","","","","","",""
