"trial_type","trial_index","time_elapsed","internal_node_id","task_version","success","view_history","rt","responses","num_errors","age","subject","participantId","rune","rune_set","hex","correct","choice","accuracy","outcome","keys","total_keys","block","practice","value","sub","trial","stimulus","robot","valence","action","sham","browser_interactions"
"pavlovia","0","15","0.0-0.0","battery-v0.2","","","","","","","","","","","","","","","","","","","","","","","","","","","",""
"fullscreen","1","4335","0.0-1.0","battery-v0.2","true","","","","","","","","","","","","","","","","","","","","","","","","","","",""
"pit-instructions","2","8971","0.0-2.0-0.0","battery-v0.2","","[{""page_index"":0,""viewing_time"":4632.899999976158}]","4633.5","","","","","","","","","","","","","","","","","","","","","","","","",""
"pit-comprehension","3","12802","0.0-2.0-1.0-0.0","battery-v0.2","","","3828.8000000715256","[""shark""]","0","19","854","426","","","","","","","","","","","","","","","","","","","",""
"pit-instructions","4","16348","0.0-2.0-1.0-1.0","battery-v0.2","","[{""page_index"":0,""viewing_time"":3527.899999976158}]","3528.100000023842","","","","","","","","","","","","","","","","","","","","","","","","",""
"pit-comprehension","5","18819","0.0-2.0-2.0-0.0","battery-v0.2","","","2468.8000000715256","[""tiger""]","0","19","854","426","","","","","","","","","","","","","","","","","","","",""
"pit-instructions","6","20421","0.0-2.0-2.0-1.0","battery-v0.2","","[{""page_index"":0,""viewing_time"":1600.1000000238419}]","1600.2999999523163","","","","","","","","","","","","","","","","","","","","","","","","",""
"pit-instructions","7","123711","0.0-2.0-3.0","battery-v0.2","","[{""page_index"":0,""viewing_time"":13051.300000071526},{""page_index"":1,""viewing_time"":6084.199999928474},{""page_index"":2,""viewing_time"":7065.800000071526},{""page_index"":3,""viewing_time"":5371.299999952316},{""page_index"":4,""viewing_time"":5906},{""page_index"":5,""viewing_time"":5966.800000071526},{""page_index"":6,""viewing_time"":7272.099999904633},{""page_index"":7,""viewing_time"":6391.900000095367},{""page_index"":8,""viewing_time"":6516.099999904633},{""page_index"":9,""viewing_time"":8798},{""page_index"":10,""viewing_time"":11691.100000023842},{""page_index"":11,""viewing_time"":6863},{""page_index"":12,""viewing_time"":7190.800000071526},{""page_index"":13,""viewing_time"":5119.199999928474}]","103288","","","","","","","","","","","","","","","","","","","","","","","","",""
"pit-trial","8","127178","0.0-2.0-4.0-0.0","battery-v0.2","","","598.8999999761581","","","19","854","426","&#9784;","elianto","#FFFFF080"," "," ","1","&#10004","[1452.2999999523163]","1","0","0","","","","","","","","",""
"pit-trial","9","130930","0.0-2.0-4.1-0.1","battery-v0.2","","","893","","","19","854","426","&#9784;","elianto","#FFFFF080"," "," ","1","&#10004","[1743]","1","0","0","","","","","","","","",""
"pit-trial","10","134376","0.0-2.0-4.2-0.2","battery-v0.2","","","589.5","","","19","854","426","&#9784;","elianto","#FFFFF080"," "," ","1","&#10004","[1439.8999999761581]","1","0","0","","","","","","","","",""
"pit-trial","11","137730","0.0-2.0-4.3-0.3","battery-v0.2","","","486.89999997615814","","","19","854","426","&#9784;","elianto","#FFFFF080"," "," ","1","&#10004","[1338.5]","1","0","0","","","","","","","","",""
"pit-trial","12","141015","0.0-2.0-4.4-0.4","battery-v0.2","","","421.39999997615814","","","19","854","426","&#9784;","elianto","#FFFFF080"," "," ","1","&#10004","[1272.6000000238419]","1","0","0","","","","","","","","",""
"pit-instructions","13","162151","0.0-2.0-5.0","battery-v0.2","","[{""page_index"":0,""viewing_time"":5074.300000071526},{""page_index"":1,""viewing_time"":5448.099999904633},{""page_index"":2,""viewing_time"":4678.800000071526},{""page_index"":3,""viewing_time"":5933.199999928474}]","21134.700000047684","","","","","","","","","","","","","","","","","","","","","","","","",""
"pit-trial","14","167012","0.0-2.0-6.0-0.0","battery-v0.2","","","-1","","","19","854","426","&#9854;","elianto","#FFFFF080","-1","-1","1","&#10004","[]","0","0","1","","","","","","","","",""
"pit-trial","15","171872","0.0-2.0-6.1-0.1","battery-v0.2","","","-1","","","19","854","426","&#9854;","elianto","#FFFFF080","-1","-1","1","&#10004","[]","0","0","1","","","","","","","","",""
"pit-trial","16","176736","0.0-2.0-6.2-0.2","battery-v0.2","","","-1","","","19","854","426","&#9854;","elianto","#FFFFF080","-1","-1","1","&#10004","[]","0","0","1","","","","","","","","",""
"pit-trial","17","181597","0.0-2.0-6.3-0.3","battery-v0.2","","","-1","","","19","854","426","&#9854;","elianto","#FFFFF080","-1","-1","1","&#10004","[]","0","0","1","","","","","","","","",""
"pit-trial","18","186468","0.0-2.0-6.4-0.4","battery-v0.2","","","-1","","","19","854","426","&#9854;","elianto","#FFFFF080","-1","-1","1","&#10004","[]","0","0","1","","","","","","","","",""
"pit-instructions","19","303395","0.0-2.0-7.0","battery-v0.2","","[{""page_index"":0,""viewing_time"":5744.899999976158},{""page_index"":1,""viewing_time"":7262.700000047684},{""page_index"":2,""viewing_time"":6476.799999952316},{""page_index"":3,""viewing_time"":6076.200000047684},{""page_index"":4,""viewing_time"":5109.899999976158},{""page_index"":5,""viewing_time"":5216},{""page_index"":6,""viewing_time"":4864.399999976158},{""page_index"":7,""viewing_time"":9520.799999952316},{""page_index"":8,""viewing_time"":6613.800000071526},{""page_index"":9,""viewing_time"":6568.199999928474},{""page_index"":10,""viewing_time"":6178.700000047684},{""page_index"":11,""viewing_time"":4597.299999952316},{""page_index"":12,""viewing_time"":6913.400000095367},{""page_index"":13,""viewing_time"":7054.699999928474},{""page_index"":14,""viewing_time"":7175.600000023842},{""page_index"":15,""viewing_time"":6304.200000047684},{""page_index"":16,""viewing_time"":7320.099999904633},{""page_index"":17,""viewing_time"":7927.5}]","116925.39999997616","","","","","","","","","","","","","","","","","","","","","","","","",""
"pit-trial","20","308265","0.0-2.0-8.0-0.0","battery-v0.2","","","-1","","","19","854","426","&#9776;","elianto","#3366ff99"," ","-1","0","0","[]","0","0","1","","","","","","","","",""
"pit-trial","21","313132","0.0-2.0-8.0-1.0","battery-v0.2","","","-1","","","19","854","426","&#9776;","elianto","#3366ff99"," ","-1","0","0","[]","0","0","1","","","","","","","","",""
"pit-trial","22","316571","0.0-2.0-8.0-2.0","battery-v0.2","","","581.1000000238419","","","19","854","426","&#9776;","elianto","#3366ff99"," "," ","1","+10","[1431.1999999284744]","1","0","1","","","","","","","","",""
"pit-trial","23","320022","0.0-2.0-8.0-3.0","battery-v0.2","","","595.6000000238419","","","19","854","426","&#9776;","elianto","#3366ff99"," "," ","1","0","[1447.5]","1","0","1","","","","","","","","",""
"pit-trial","24","323306","0.0-2.0-8.0-4.0","battery-v0.2","","","426.10000002384186","","","19","854","426","&#9776;","elianto","#3366ff99"," "," ","1","+10","[1276.6999999284744]","1","0","1","","","","","","","","",""
"pit-trial","25","326678","0.0-2.0-8.1-0.1","battery-v0.2","","","507.09999990463257","","","19","854","426","&#9776;","elianto","#3366ff99"," "," ","1","+10","[1368.7999999523163]","1","0","1","","","","","","","","",""
"pit-trial","26","330030","0.0-2.0-8.1-1.1","battery-v0.2","","","490","","","19","854","426","&#9776;","elianto","#3366ff99"," "," ","1","+10","[1348.2999999523163]","1","0","1","","","","","","","","",""
"pit-trial","27","333348","0.0-2.0-8.1-2.1","battery-v0.2","","","464.5","","","19","854","426","&#9776;","elianto","#3366ff99"," "," ","1","+10","[1316.3999999761581]","1","0","1","","","","","","","","",""
"pit-trial","28","336621","0.0-2.0-8.1-3.1","battery-v0.2","","","417.7999999523163","","","19","854","426","&#9776;","elianto","#3366ff99"," "," ","1","0","[1270.6000000238419]","1","0","1","","","","","","","","",""
"pit-trial","29","339901","0.0-2.0-8.1-4.1","battery-v0.2","","","427.5","","","19","854","426","&#9776;","elianto","#3366ff99"," "," ","1","+10","[1277.8000000715256]","1","0","1","","","","","","","","",""
"call-function","30","339902","0.0-2.0-9.0","battery-v0.2","","","","","","","","","","","","","","","","","","","","","","","","","","","",""
"pit-instructions","31","386665","0.0-2.0-10.0","battery-v0.2","","[{""page_index"":0,""viewing_time"":10295},{""page_index"":1,""viewing_time"":9609.600000023842},{""page_index"":2,""viewing_time"":10150.399999976158},{""page_index"":3,""viewing_time"":9390.899999976158},{""page_index"":4,""viewing_time"":7316.700000047684}]","46762.800000071526","","","","","","","","","","","","","","","","","","","","","","","","",""
"pit-trial","32","391534","0.0-2.0-11.0-0.0","battery-v0.2","","","-1","","","19","854","426","&#9761;","elianto","#3366ff99","-1","-1","1","+10","[]","0","0","2","","","","","","","","",""
"pit-trial","33","396410","0.0-2.0-11.0-1.0","battery-v0.2","","","-1","","","19","854","426","&#9761;","elianto","#3366ff99","-1","-1","1","+10","[]","0","0","2","","","","","","","","",""
"pit-trial","34","401277","0.0-2.0-11.0-2.0","battery-v0.2","","","-1","","","19","854","426","&#9761;","elianto","#3366ff99","-1","-1","1","+10","[]","0","0","2","","","","","","","","",""
"pit-trial","35","406147","0.0-2.0-11.0-3.0","battery-v0.2","","","-1","","","19","854","426","&#9761;","elianto","#3366ff99","-1","-1","1","0","[]","0","0","2","","","","","","","","",""
"pit-trial","36","411020","0.0-2.0-11.0-4.0","battery-v0.2","","","-1","","","19","854","426","&#9761;","elianto","#3366ff99","-1","-1","1","+10","[]","0","0","2","","","","","","","","",""
"call-function","37","411021","0.0-2.0-12.0","battery-v0.2","","","","","","","","","","","","","","","","","","","","","","","","","","","",""
"pit-instructions","38","442661","0.0-2.0-13.0","battery-v0.2","","[{""page_index"":0,""viewing_time"":5930.900000095367},{""page_index"":1,""viewing_time"":6896.099999904633},{""page_index"":2,""viewing_time"":3995},{""page_index"":3,""viewing_time"":10042.800000071526},{""page_index"":4,""viewing_time"":4775.100000023842}]","31640.300000071526","","","","","","","","","","","","","","","","","","","","","","","","",""
"pit-trial","39","447520","0.0-2.0-14.0-0.0","battery-v0.2","","","-1","","","19","854","426","&#9826;","elianto","#f73b6a7A","-1","-1","1","0","[]","0","0","3","","","","","","","","",""
"pit-trial","40","452379","0.0-2.0-14.0-1.0","battery-v0.2","","","-1","","","19","854","426","&#9826;","elianto","#f73b6a7A","-1","-1","1","0","[]","0","0","3","","","","","","","","",""
"pit-trial","41","457246","0.0-2.0-14.0-2.0","battery-v0.2","","","-1","","","19","854","426","&#9826;","elianto","#f73b6a7A","-1","-1","1","0","[]","0","0","3","","","","","","","","",""
"pit-trial","42","462107","0.0-2.0-14.0-3.0","battery-v0.2","","","-1","","","19","854","426","&#9826;","elianto","#f73b6a7A","-1","-1","1","-10","[]","0","0","3","","","","","","","","",""
"pit-trial","43","466970","0.0-2.0-14.0-4.0","battery-v0.2","","","-1","","","19","854","426","&#9826;","elianto","#f73b6a7A","-1","-1","1","0","[]","0","0","3","","","","","","","","",""
"call-function","44","466971","0.0-2.0-15.0","battery-v0.2","","","","","","","","","","","","","","","","","","","","","","","","","","","",""
"pit-instructions","45","492485","0.0-2.0-16.0","battery-v0.2","","[{""page_index"":0,""viewing_time"":6708.5},{""page_index"":1,""viewing_time"":8991},{""page_index"":2,""viewing_time"":4765},{""page_index"":3,""viewing_time"":5049}]","25513.799999952316","","","","","","","","","","","","","","","","","","","","","","","","",""
"pit-trial","46","495794","0.0-2.0-17.0-0.0","battery-v0.2","","","442.7999999523163","","","19","854","426","&#9789;","elianto","#f73b6a7A"," "," ","1","0","[1293.5]","1","0","4","","","","","","","","",""
"pit-trial","47","499045","0.0-2.0-17.0-1.0","battery-v0.2","","","388.60000002384186","","","19","854","426","&#9789;","elianto","#f73b6a7A"," "," ","1","0","[1240.1999999284744]","1","0","4","","","","","","","","",""
"pit-trial","48","502231","0.0-2.0-17.0-2.0","battery-v0.2","","","322.7999999523163","","","19","854","426","&#9789;","elianto","#f73b6a7A"," "," ","1","0","[1172.8999999761581]","1","0","4","","","","","","","","",""
"pit-trial","49","505386","0.0-2.0-17.0-3.0","battery-v0.2","","","277.1999999284744","","","19","854","426","&#9789;","elianto","#f73b6a7A"," "," ","1","-10","[1139.2999999523163]","1","0","4","","","","","","","","",""
"pit-trial","50","508515","0.0-2.0-17.0-4.0","battery-v0.2","","","278.10000002384186","","","19","854","426","&#9789;","elianto","#f73b6a7A"," "," ","1","0","[1128.6000000238419]","1","0","4","","","","","","","","",""
"call-function","51","508516","0.0-2.0-18.0","battery-v0.2","","","","","","","","","","","","","","","","","","","","","","","","","","","",""
"pit-instructions","52","596696","0.0-2.0-19.0","battery-v0.2","","[{""page_index"":0,""viewing_time"":6452.100000023842},{""page_index"":1,""viewing_time"":4517.200000047684},{""page_index"":2,""viewing_time"":10321.099999904633},{""page_index"":3,""viewing_time"":7635.700000047684},{""page_index"":4,""viewing_time"":9666.399999976158},{""page_index"":5,""viewing_time"":8575.100000023842},{""page_index"":6,""viewing_time"":30760.899999976158},{""page_index"":7,""viewing_time"":6270.700000047684},{""page_index"":8,""viewing_time"":3979.100000023842}]","88178.60000002384","","","","","","","","","","","","","","","","","","","","","","","","",""
"pit-comprehension","53","601732","0.0-2.0-20.0-0.0","battery-v0.2","","","5034.299999952316","[""SPACE""]","0","19","854","426","","","","","","","","","","","","","","","","","","","",""
"pit-instructions","54","606479","0.0-2.0-20.0-1.0","battery-v0.2","","[{""page_index"":0,""viewing_time"":4734.5}]","4734.700000047684","","","","","","","","","","","","","","","","","","","","","","","","",""
"pit-comprehension","55","612859","0.0-2.0-21.0-0.0","battery-v0.2","","","6378","[""10""]","0","19","854","426","","","","","","","","","","","","","","","","","","","",""
"pit-instructions","56","615437","0.0-2.0-21.0-1.0","battery-v0.2","","[{""page_index"":0,""viewing_time"":2566.8000000715256}]","2567","","","","","","","","","","","","","","","","","","","","","","","","",""
"pit-comprehension","57","621959","0.0-2.0-22.0-0.0","battery-v0.2","","","6519.699999928474","[""0""]","0","19","854","426","","","","","","","","","","","","","","","","","","","",""
"pit-instructions","58","624737","0.0-2.0-22.0-1.0","battery-v0.2","","[{""page_index"":0,""viewing_time"":2765.8000000715256}]","2766.100000023842","","","","","","","","","","","","","","","","","","","","","","","","",""
"pit-comprehension","59","633877","0.0-2.0-23.0-0.0","battery-v0.2","","","9138.400000095367","[""True""]","0","19","854","426","","","","","","","","","","","","","","","","","","","",""
"pit-instructions","60","635637","0.0-2.0-23.0-1.0","battery-v0.2","","[{""page_index"":0,""viewing_time"":1749}]","1749.0999999046326","","","","","","","","","","","","","","","","","","","","","","","","",""
"pit-comprehension","61","643055","0.0-2.0-24.0-0.0","battery-v0.2","","","7415.699999928474","[""True""]","0","19","854","426","","","","","","","","","","","","","","","","","","","",""
"pit-instructions","62","644582","0.0-2.0-24.0-1.0","battery-v0.2","","[{""page_index"":0,""viewing_time"":1513.8000000715256}]","1514.1000000238419","","","","","","","","","","","","","","","","","","","","","","","","",""
"pit-comprehension","63","650974","0.0-2.0-25.0-0.0","battery-v0.2","","","6390","[""True""]","0","19","854","426","","","","","","","","","","","","","","","","","","","",""
"pit-instructions","64","652427","0.0-2.0-25.0-1.0","battery-v0.2","","[{""page_index"":0,""viewing_time"":1440.8999999761581}]","1441","","","","","","","","","","","","","","","","","","","","","","","","",""
"pit-comprehension","65","657349","0.0-2.0-26.0-0.0","battery-v0.2","","","4920.100000023842","[""False""]","0","19","854","426","","","","","","","","","","","","","","","","","","","",""
"pit-instructions","66","659202","0.0-2.0-26.0-1.0","battery-v0.2","","[{""page_index"":0,""viewing_time"":1841.3000000715256}]","1841.3999999761581","","","","","","","","","","","","","","","","","","","","","","","","",""
"pit-instructions","67","746731","0.0-3.0","battery-v0.2","","[{""page_index"":0,""viewing_time"":6556.899999976158},{""page_index"":1,""viewing_time"":6652.299999952316},{""page_index"":2,""viewing_time"":74318.30000007153}]","87527.89999997616","","","","","","","","","","","","","","","","","","","","","","","","",""
"pit-trial","68","750989","0.0-4.0","battery-v0.2","","","1402","","","19","854","426","&#9728;","elianto","#f73b6a7A","-1"," ","0","-10","[2253.8000000715256]","1","1","","","854","1","0","4","lose","no-go","0","[]"
"pit-trial","69","755028","0.0-5.0","battery-v0.2","","","1186.3999999761581","","","19","854","426","&#9752;","elianto","#f73b6a7A"," "," ","1","-10","[2037.8000000715256]","1","1","","","854","2","3","3","lose","go","1","0"
"pit-trial","70","758717","0.0-6.0","battery-v0.2","","","836","","","19","854","426","&#9733;","elianto","#3366ff99","-1"," ","0","+10","[1686.6999999284744]","1","1","","","854","3","2","2","win","no-go","1","0"
"pit-trial","71","762733","0.0-7.0","battery-v0.2","","","1162.1999999284744","","","19","854","426","&#9730;","elianto","#3366ff99"," "," ","1","+10","[2013.7999999523163]","1","1","","","854","4","1","1","win","go","0","0"
"pit-trial","72","766293","0.0-8.0","battery-v0.2","","","701.7000000476837","","","19","854","426","&#9730;","elianto","#3366ff99"," "," ","1","+10","[1557.7000000476837]","1","1","","","854","5","1","1","win","go","0","0"
"pit-trial","73","771147","0.0-9.0","battery-v0.2","","","-1","","","19","854","426","&#9728;","elianto","#f73b6a7A","-1","-1","1","-10","[]","0","1","","","854","6","0","4","lose","no-go","1","0"
"pit-trial","74","774797","0.0-10.0","battery-v0.2","","","796.7999999523163","","","19","854","426","&#9733;","elianto","#3366ff99","-1"," ","0","0","[1648.0999999046326]","1","1","","","854","7","2","2","win","no-go","0","0"
"pit-trial","75","779649","0.0-11.0","battery-v0.2","","","-1","","","19","854","426","&#9752;","elianto","#f73b6a7A"," ","-1","0","-10","[]","0","1","","","854","8","3","3","lose","go","0","0"
"pit-trial","76","784125","0.0-12.0","battery-v0.2","","","1623.5","","","19","854","426","&#9728;","elianto","#f73b6a7A","-1"," ","0","-10","[2473.9000000953674]","1","1","","","854","9","0","4","lose","no-go","0","0"
"pit-trial","77","788109","0.0-13.0","battery-v0.2","","","1132.1000000238419","","","19","854","426","&#9733;","elianto","#3366ff99","-1"," ","0","0","[1982.3999999761581]","1","1","","","854","10","2","2","win","no-go","0","0"
"pit-trial","78","792076","0.0-14.0","battery-v0.2","","","1115.2999999523163","","","19","854","426","&#9730;","elianto","#3366ff99"," "," ","1","+10","[1965.7000000476837]","1","1","","","854","11","1","1","win","go","0","0"
"pit-trial","79","796937","0.0-15.0","battery-v0.2","","","-1","","","19","854","426","&#9752;","elianto","#f73b6a7A"," ","-1","0","-10","[]","0","1","","","854","12","3","3","lose","go","0","0"
"pit-trial","80","801372","0.0-16.0","battery-v0.2","","","1584","","","19","854","426","&#9728;","elianto","#f73b6a7A","-1"," ","0","-10","[2434.2000000476837]","1","1","","","854","13","0","4","lose","no-go","0","0"
"pit-trial","81","805012","0.0-17.0","battery-v0.2","","","788","","","19","854","426","&#9733;","elianto","#3366ff99","-1"," ","0","+10","[1639.1000000238419]","1","1","","","854","14","2","2","win","no-go","1","0"
"pit-trial","82","809865","0.0-18.0","battery-v0.2","","","-1","","","19","854","426","&#9752;","elianto","#f73b6a7A"," ","-1","0","-10","[]","0","1","","","854","15","3","3","lose","go","0","0"
"pit-trial","83","813716","0.0-19.0","battery-v0.2","","","999.8999999761581","","","19","854","426","&#9730;","elianto","#3366ff99"," "," ","1","0","[1850.1999999284744]","1","1","","","854","16","1","1","win","go","1","0"
"pit-trial","84","817597","0.0-20.0","battery-v0.2","","","1028.3000000715256","","","19","854","426","&#9752;","elianto","#f73b6a7A"," "," ","1","0","[1878.5]","1","1","","","854","17","3","3","lose","go","0","0"
"pit-trial","85","821340","0.0-21.0","battery-v0.2","","","890.5","","","19","854","426","&#9730;","elianto","#3366ff99"," "," ","1","+10","[1741.6000000238419]","1","1","","","854","18","1","1","win","go","0","0"
"pit-trial","86","826208","0.0-22.0","battery-v0.2","","","-1","","","19","854","426","&#9733;","elianto","#3366ff99","-1","-1","1","+10","[]","0","1","","","854","19","2","2","win","no-go","0","0"
"pit-trial","87","831061","0.0-23.0","battery-v0.2","","","-1","","","19","854","426","&#9728;","elianto","#f73b6a7A","-1","-1","1","0","[]","0","1","","","854","20","0","4","lose","no-go","0","0"
"pit-instructions","88","859460","0.0-24.0","battery-v0.2","","[{""page_index"":0,""viewing_time"":21080.100000023842},{""page_index"":1,""viewing_time"":7317}]","28397.399999976158","","","","","","","","","","","","","","","","","","","","","","","","",""
"pit-trial","89","863069","0.0-25.0","battery-v0.2","","","745.8999999761581","","","19","854","426","a","elianto","#3366ff99"," "," ","1","+10","[1606.5]","1","2","","","854","21","2","1","win","go","0","0"
"pit-trial","90","867002","0.0-26.0","battery-v0.2","","","1064.3999999761581","","","19","854","426","l","elianto","#3366ff99","-1"," ","0","0","[1916.1000000238419]","1","2","","","854","22","1","2","win","no-go","0","0"
"pit-trial","91","871650","0.0-27.0","battery-v0.2","","","1779.8999999761581","","","19","854","426","u","elianto","#3366ff99","-1"," ","0","+10","[2632.100000023842]","1","2","","","854","23","0","2","win","no-go","1","0"
"pit-trial","92","875956","0.0-28.0","battery-v0.2","","","1437.2999999523163","","","19","854","426","g","elianto","#f73b6a7A"," "," ","1","-10","[2289.1999999284744]","1","2","","","854","24","3","3","lose","go","1","0"
"pit-trial","93","879895","0.0-29.0","battery-v0.2","","","1079.8000000715256","","","19","854","426","u","elianto","#3366ff99","-1"," ","0","+10","[1934.4000000953674]","1","2","","","854","25","0","2","win","no-go","1","0"
"pit-trial","94","883654","0.0-30.0","battery-v0.2","","","893.2999999523163","","","19","854","426","l","elianto","#3366ff99","-1"," ","0","0","[1747.2999999523163]","1","2","","","854","26","1","2","win","no-go","0","0"
"pit-trial","95","887534","0.0-31.0","battery-v0.2","","","1015.8999999761581","","","19","854","426","a","elianto","#3366ff99"," "," ","1","+10","[1876.1000000238419]","1","2","","","854","27","2","1","win","go","0","0"
"pit-trial","96","892387","0.0-32.0","battery-v0.2","","","-1","","","19","854","426","g","elianto","#f73b6a7A"," ","-1","0","-10","[]","0","2","","","854","28","3","3","lose","go","0","0"
"pit-trial","97","896157","0.0-33.0","battery-v0.2","","","916.2000000476837","","","19","854","426","u","elianto","#3366ff99","-1"," ","0","0","[1767]","1","2","","","854","29","0","2","win","no-go","0","0"
"pit-trial","98","901009","0.0-34.0","battery-v0.2","","","-1","","","19","854","426","l","elianto","#3366ff99","-1","-1","1","+10","[]","0","2","","","854","30","1","2","win","no-go","0","0"
"pit-trial","99","904892","0.0-35.0","battery-v0.2","","","1030.8999999761581","","","19","854","426","a","elianto","#3366ff99"," "," ","1","+10","[1881.7999999523163]","1","2","","","854","31","2","1","win","go","0","0"
"pit-trial","100","909744","0.0-36.0","battery-v0.2","","","-1","","","19","854","426","g","elianto","#f73b6a7A"," ","-1","0","-10","[]","0","2","","","854","32","3","3","lose","go","0","0"
"pit-trial","101","913348","0.0-37.0","battery-v0.2","","","750.7999999523163","","","19","854","426","a","elianto","#3366ff99"," "," ","1","+10","[1601.8999999761581]","1","2","","","854","33","2","1","win","go","0","0"
"pit-trial","102","918201","0.0-38.0","battery-v0.2","","","-1","","","19","854","426","l","elianto","#3366ff99","-1","-1","1","+10","[]","0","2","","","854","34","1","2","win","no-go","0","0"
"pit-trial","103","921916","0.0-39.0","battery-v0.2","","","861.1000000238419","","","19","854","426","u","elianto","#3366ff99","-1"," ","0","0","[1712.8999999761581]","1","2","","","854","35","0","2","win","no-go","0","0"
"pit-trial","104","925420","0.0-40.0","battery-v0.2","","","651.6000000238419","","","19","854","426","g","elianto","#f73b6a7A"," "," ","1","0","[1502]","1","2","","","854","36","3","3","lose","go","0","0"
"pit-trial","105","928885","0.0-41.0","battery-v0.2","","","611.6000000238419","","","19","854","426","g","elianto","#f73b6a7A"," "," ","1","-10","[1462.5]","1","2","","","854","37","3","3","lose","go","1","0"
"pit-trial","106","932476","0.0-42.0","battery-v0.2","","","738.8999999761581","","","19","854","426","u","elianto","#3366ff99","-1"," ","0","+10","[1589.8999999761581]","1","2","","","854","38","0","2","win","no-go","1","0"
"pit-trial","107","937330","0.0-43.0","battery-v0.2","","","-1","","","19","854","426","l","elianto","#3366ff99","-1","-1","1","+10","[]","0","2","","","854","39","1","2","win","no-go","0","0"
"pit-trial","108","940780","0.0-44.0","battery-v0.2","","","596.6999999284744","","","19","854","426","a","elianto","#3366ff99"," "," ","1","+10","[1448.6999999284744]","1","2","","","854","40","2","1","win","go","0","0"
"pit-trial","109","944485","0.0-45.0","battery-v0.2","","","851","","","19","854","426","g","elianto","#f73b6a7A"," "," ","1","0","[1702.5]","1","2","","","854","41","3","3","lose","go","0","0"
"pit-trial","110","949337","0.0-46.0","battery-v0.2","","","-1","","","19","854","426","l","elianto","#3366ff99","-1","-1","1","+10","[]","0","2","","","854","42","1","2","win","no-go","0","0"
"pit-trial","111","952796","0.0-47.0","battery-v0.2","","","606.8000000715256","","","19","854","426","a","elianto","#3366ff99"," "," ","1","+10","[1457.5]","1","2","","","854","43","2","1","win","go","0","0"
"pit-trial","112","956340","0.0-48.0","battery-v0.2","","","692.1000000238419","","","19","854","426","u","elianto","#3366ff99","-1"," ","0","0","[1542.8999999761581]","1","2","","","854","44","0","2","win","no-go","0","0"
"pit-trial","113","961194","0.0-49.0","battery-v0.2","","","-1","","","19","854","426","l","elianto","#3366ff99","-1","-1","1","+10","[]","0","2","","","854","45","1","2","win","no-go","0","0"
"pit-trial","114","965028","0.0-50.0","battery-v0.2","","","981","","","19","854","426","u","elianto","#3366ff99","-1"," ","0","0","[1832.5]","1","2","","","854","46","0","2","win","no-go","0","0"
"pit-trial","115","968516","0.0-51.0","battery-v0.2","","","635.1000000238419","","","19","854","426","a","elianto","#3366ff99"," "," ","1","0","[1486]","1","2","","","854","47","2","1","win","go","1","0"
"pit-trial","116","972044","0.0-52.0","battery-v0.2","","","675.1999999284744","","","19","854","426","g","elianto","#f73b6a7A"," "," ","1","0","[1526]","1","2","","","854","48","3","3","lose","go","0","0"
"pit-trial","117","976897","0.0-53.0","battery-v0.2","","","-1","","","19","854","426","u","elianto","#3366ff99","-1","-1","1","+10","[]","0","2","","","854","49","0","2","win","no-go","0","0"
"pit-trial","118","980301","0.0-54.0","battery-v0.2","","","551.7999999523163","","","19","854","426","a","elianto","#3366ff99"," "," ","1","0","[1402.5]","1","2","","","854","50","2","1","win","go","1","0"
"pit-trial","119","985155","0.0-55.0","battery-v0.2","","","-1","","","19","854","426","l","elianto","#3366ff99","-1","-1","1","+10","[]","0","2","","","854","51","1","2","win","no-go","0","0"
"pit-trial","120","988852","0.0-56.0","battery-v0.2","","","844.7999999523163","","","19","854","426","g","elianto","#f73b6a7A"," "," ","1","0","[1695.6000000238419]","1","2","","","854","52","3","3","lose","go","0","0"
"pit-trial","121","992477","0.0-57.0","battery-v0.2","","","771.8999999761581","","","19","854","426","a","elianto","#3366ff99"," "," ","1","0","[1622.4000000953674]","1","2","","","854","53","2","1","win","go","1","0"
"pit-trial","122","996781","0.0-58.0","battery-v0.2","","","1451","","","19","854","426","s","elianto","#f73b6a7A"," "," ","1","-10","[2301.7999999523163]","1","2","","","854","54","5","3","lose","go","1","0"
"pit-trial","123","1000444","0.0-59.0","battery-v0.2","","","810.0999999046326","","","19","854","426","u","elianto","#3366ff99","-1"," ","0","+10","[1661.5999999046326]","1","2","","","854","55","0","2","win","no-go","1","0"
"pit-trial","124","1004732","0.0-60.0","battery-v0.2","","","1435.4000000953674","","","19","854","426","p","elianto","#f73b6a7A","-1"," ","0","-10","[2286.5]","1","2","","","854","56","4","4","lose","no-go","0","0"
"pit-trial","125","1008725","0.0-61.0","battery-v0.2","","","1139.3000000715256","","","19","854","426","p","elianto","#f73b6a7A","-1"," ","0","-10","[1990.7000000476837]","1","2","","","854","57","4","4","lose","no-go","0","0"
"pit-trial","126","1012740","0.0-62.0","battery-v0.2","","","1163.2000000476837","","","19","854","426","u","elianto","#3366ff99","-1"," ","0","0","[2013.8999999761581]","1","2","","","854","58","0","2","win","no-go","0","0"
"pit-trial","127","1016300","0.0-63.0","battery-v0.2","","","708.1999999284744","","","19","854","426","a","elianto","#3366ff99"," "," ","1","+10","[1558.6999999284744]","1","2","","","854","59","2","1","win","go","0","0"
"pit-trial","128","1021152","0.0-64.0","battery-v0.2","","","-1","","","19","854","426","s","elianto","#f73b6a7A"," ","-1","0","-10","[]","0","2","","","854","60","5","3","lose","go","0","0"
"pit-trial","129","1024708","0.0-65.0","battery-v0.2","","","704.5","","","19","854","426","s","elianto","#f73b6a7A"," "," ","1","-10","[1554.7000000476837]","1","2","","","854","61","5","3","lose","go","1","0"
"pit-trial","130","1028389","0.0-66.0","battery-v0.2","","","827.8999999761581","","","19","854","426","a","elianto","#3366ff99"," "," ","1","+10","[1678.5]","1","2","","","854","62","2","1","win","go","0","0"
"pit-trial","131","1033249","0.0-67.0","battery-v0.2","","","-1","","","19","854","426","p","elianto","#f73b6a7A","-1","-1","1","0","[]","0","2","","","854","63","4","4","lose","no-go","0","0"
"pit-trial","132","1037133","0.0-68.0","battery-v0.2","","","1031.6000000238419","","","19","854","426","w","elianto","#3366ff99","-1"," ","0","+10","[1882.1000000238419]","1","2","","","854","64","6","2","win","no-go","1","0"
"pit-trial","133","1041837","0.0-69.0","battery-v0.2","","","1850.6000000238419","","","19","854","426","s","elianto","#f73b6a7A"," "," ","1","0","[2702.100000023842]","1","2","","","854","65","5","3","lose","go","0","0"
"pit-trial","134","1046689","0.0-70.0","battery-v0.2","","","-1","","","19","854","426","p","elianto","#f73b6a7A","-1","-1","1","0","[]","0","2","","","854","66","4","4","lose","no-go","0","0"
"pit-trial","135","1050389","0.0-71.0","battery-v0.2","","","847","","","19","854","426","a","elianto","#3366ff99"," "," ","1","+10","[1697]","1","2","","","854","67","2","1","win","go","0","0"
"pit-trial","136","1055242","0.0-72.0","battery-v0.2","","","-1","","","19","854","426","w","elianto","#3366ff99","-1","-1","1","+10","[]","0","2","","","854","68","6","2","win","no-go","0","0"
"pit-trial","137","1059756","0.0-73.0","battery-v0.2","","","1661.6999999284744","","","19","854","426","s","elianto","#f73b6a7A"," "," ","1","0","[2512.899999976158]","1","2","","","854","69","5","3","lose","go","0","0"
"pit-trial","138","1064610","0.0-74.0","battery-v0.2","","","-1","","","19","854","426","w","elianto","#3366ff99","-1","-1","1","+10","[]","0","2","","","854","70","6","2","win","no-go","0","0"
"pit-trial","139","1069463","0.0-75.0","battery-v0.2","","","-1","","","19","854","426","p","elianto","#f73b6a7A","-1","-1","1","0","[]","0","2","","","854","71","4","4","lose","no-go","0","0"
"pit-trial","140","1073837","0.0-76.0","battery-v0.2","","","1521","","","19","854","426","e","elianto","#f73b6a7A","-1"," ","0","-10","[2371.7999999523163]","1","2","","","854","72","7","4","lose","no-go","0","0"
"pit-trial","141","1078085","0.0-77.0","battery-v0.2","","","1394","","","19","854","426","s","elianto","#f73b6a7A"," "," ","1","0","[2246]","1","2","","","854","73","5","3","lose","go","0","0"
"pit-trial","142","1082939","0.0-78.0","battery-v0.2","","","-1","","","19","854","426","p","elianto","#f73b6a7A","-1","-1","1","0","[]","0","2","","","854","74","4","4","lose","no-go","0","0"
"pit-trial","143","1087793","0.0-79.0","battery-v0.2","","","-1","","","19","854","426","w","elianto","#3366ff99","-1","-1","1","+10","[]","0","2","","","854","75","6","2","win","no-go","0","0"
"pit-trial","144","1092495","0.0-80.0","battery-v0.2","","","1838.2000000476837","","","19","854","426","e","elianto","#f73b6a7A","-1"," ","0","-10","[2689.5]","1","2","","","854","76","7","4","lose","no-go","0","0"
"pit-trial","145","1097347","0.0-81.0","battery-v0.2","","","-1","","","19","854","426","w","elianto","#3366ff99","-1","-1","1","+10","[]","0","2","","","854","77","6","2","win","no-go","0","0"
"pit-trial","146","1102200","0.0-82.0","battery-v0.2","","","-1","","","19","854","426","p","elianto","#f73b6a7A","-1","-1","1","0","[]","0","2","","","854","78","4","4","lose","no-go","0","0"
"pit-trial","147","1107054","0.0-83.0","battery-v0.2","","","-1","","","19","854","426","e","elianto","#f73b6a7A","-1","-1","1","0","[]","0","2","","","854","79","7","4","lose","no-go","0","0"
"pit-trial","148","1110910","0.0-84.0","battery-v0.2","","","1001.6999999284744","","","19","854","426","s","elianto","#f73b6a7A"," "," ","1","0","[1853.1999999284744]","1","2","","","854","80","5","3","lose","go","0","0"
"pit-trial","149","1115763","0.0-85.0","battery-v0.2","","","-1","","","19","854","426","e","elianto","#f73b6a7A","-1","-1","1","0","[]","0","2","","","854","81","7","4","lose","no-go","0","0"
"pit-trial","150","1120625","0.0-86.0","battery-v0.2","","","-1","","","19","854","426","p","elianto","#f73b6a7A","-1","-1","1","0","[]","0","2","","","854","82","4","4","lose","no-go","0","0"
"pit-trial","151","1124853","0.0-87.0","battery-v0.2","","","1374.1000000238419","","","19","854","426","s","elianto","#f73b6a7A"," "," ","1","0","[2225.9000000953674]","1","2","","","854","83","5","3","lose","go","0","0"
"pit-trial","152","1129715","0.0-88.0","battery-v0.2","","","-1","","","19","854","426","w","elianto","#3366ff99","-1","-1","1","+10","[]","0","2","","","854","84","6","2","win","no-go","0","0"
"pit-trial","153","1134567","0.0-89.0","battery-v0.2","","","-1","","","19","854","426","w","elianto","#3366ff99","-1","-1","1","+10","[]","0","2","","","854","85","6","2","win","no-go","0","0"
"pit-trial","154","1139419","0.0-90.0","battery-v0.2","","","-1","","","19","854","426","e","elianto","#f73b6a7A","-1","-1","1","0","[]","0","2","","","854","86","7","4","lose","no-go","0","0"
"pit-trial","155","1143564","0.0-91.0","battery-v0.2","","","1292.7000000476837","","","19","854","426","s","elianto","#f73b6a7A"," "," ","1","0","[2143.5]","1","2","","","854","87","5","3","lose","go","0","0"
"pit-trial","156","1148416","0.0-92.0","battery-v0.2","","","-1","","","19","854","426","p","elianto","#f73b6a7A","-1","-1","1","0","[]","0","2","","","854","88","4","4","lose","no-go","0","0"
"pit-trial","157","1153269","0.0-93.0","battery-v0.2","","","-1","","","19","854","426","e","elianto","#f73b6a7A","-1","-1","1","0","[]","0","2","","","854","89","7","4","lose","no-go","0","0"
"pit-trial","158","1157013","0.0-94.0","battery-v0.2","","","891.6000000238419","","","19","854","426","p","elianto","#f73b6a7A","-1"," ","0","-10","[1742.2000000476837]","1","2","","","854","90","4","4","lose","no-go","0","0"
"pit-trial","159","1161880","0.0-95.0","battery-v0.2","","","-1","","","19","854","426","w","elianto","#3366ff99","-1","-1","1","+10","[]","0","2","","","854","91","6","2","win","no-go","0","0"
"pit-trial","160","1165612","0.0-96.0","battery-v0.2","","","880.2999999523163","","","19","854","426","s","elianto","#f73b6a7A"," "," ","1","0","[1731.1000000238419]","1","2","","","854","92","5","3","lose","go","0","0"
"pit-trial","161","1169012","0.0-97.0","battery-v0.2","","","547.1999999284744","","","19","854","426","s","elianto","#f73b6a7A"," "," ","1","0","[1398.2999999523163]","1","2","","","854","93","5","3","lose","go","0","0"
"pit-trial","162","1172933","0.0-98.0","battery-v0.2","","","1067.2999999523163","","","19","854","426","k","elianto","#f73b6a7A","-1"," ","0","-10","[1919.2000000476837]","1","2","","","854","94","8","4","lose","no-go","0","0"
"pit-trial","163","1177787","0.0-99.0","battery-v0.2","","","-1","","","19","854","426","w","elianto","#3366ff99","-1","-1","1","+10","[]","0","2","","","854","95","6","2","win","no-go","0","0"
"pit-trial","164","1182639","0.0-100.0","battery-v0.2","","","-1","","","19","854","426","e","elianto","#f73b6a7A","-1","-1","1","0","[]","0","2","","","854","96","7","4","lose","no-go","0","0"
"pit-trial","165","1186509","0.0-101.0","battery-v0.2","","","1016.3999999761581","","","19","854","426","s","elianto","#f73b6a7A"," "," ","1","0","[1868.2999999523163]","1","2","","","854","97","5","3","lose","go","0","0"
"pit-trial","166","1190068","0.0-102.0","battery-v0.2","","","706.6999999284744","","","19","854","426","k","elianto","#f73b6a7A","-1"," ","0","-10","[1557.3999999761581]","1","2","","","854","98","8","4","lose","no-go","0","0"
"pit-trial","167","1194921","0.0-103.0","battery-v0.2","","","-1","","","19","854","426","e","elianto","#f73b6a7A","-1","-1","1","0","[]","0","2","","","854","99","7","4","lose","no-go","0","0"
"pit-trial","168","1199775","0.0-104.0","battery-v0.2","","","-1","","","19","854","426","w","elianto","#3366ff99","-1","-1","1","+10","[]","0","2","","","854","100","6","2","win","no-go","0","0"
"pit-trial","169","1204628","0.0-105.0","battery-v0.2","","","-1","","","19","854","426","w","elianto","#3366ff99","-1","-1","1","+10","[]","0","2","","","854","101","6","2","win","no-go","0","0"
"pit-trial","170","1209484","0.0-106.0","battery-v0.2","","","-1","","","19","854","426","k","elianto","#f73b6a7A","-1","-1","1","-10","[]","0","2","","","854","102","8","4","lose","no-go","1","0"
"pit-trial","171","1213236","0.0-107.0","battery-v0.2","","","900.7000000476837","","","19","854","426","j","elianto","#f73b6a7A"," "," ","1","0","[1750.8999999761581]","1","2","","","854","103","10","3","lose","go","0","0"
"pit-trial","172","1217101","0.0-108.0","battery-v0.2","","","1012.3999999761581","","","19","854","426","d","elianto","#3366ff99"," "," ","1","+10","[1862.8999999761581]","1","2","","","854","104","9","1","win","go","0","0"
"pit-trial","173","1221961","0.0-109.0","battery-v0.2","","","-1","","","19","854","426","w","elianto","#3366ff99","-1","-1","1","0","[]","0","2","","","854","105","6","2","win","no-go","1","0"
"pit-trial","174","1226815","0.0-110.0","battery-v0.2","","","-1","","","19","854","426","k","elianto","#f73b6a7A","-1","-1","1","0","[]","0","2","","","854","106","8","4","lose","no-go","0","0"
"pit-trial","175","1230301","0.0-111.0","battery-v0.2","","","634.4000000953674","","","19","854","426","d","elianto","#3366ff99"," "," ","1","+10","[1484.6000000238419]","1","2","","","854","107","9","1","win","go","0","0"
"pit-trial","176","1235154","0.0-112.0","battery-v0.2","","","-1","","","19","854","426","j","elianto","#f73b6a7A"," ","-1","0","0","[]","0","2","","","854","108","10","3","lose","go","1","0"
"pit-trial","177","1238740","0.0-113.0","battery-v0.2","","","733.3999999761581","","","19","854","426","d","elianto","#3366ff99"," "," ","1","+10","[1585]","1","2","","","854","109","9","1","win","go","0","0"
"pit-trial","178","1242422","0.0-114.0","battery-v0.2","","","827.9000000953674","","","19","854","426","j","elianto","#f73b6a7A"," "," ","1","0","[1679.1000000238419]","1","2","","","854","110","10","3","lose","go","0","0"
"pit-trial","179","1247275","0.0-115.0","battery-v0.2","","","-1","","","19","854","426","k","elianto","#f73b6a7A","-1","-1","1","0","[]","0","2","","","854","111","8","4","lose","no-go","0","0"
"pit-trial","180","1250964","0.0-116.0","battery-v0.2","","","837.7999999523163","","","19","854","426","v","elianto","#3366ff99"," "," ","1","0","[1688.0999999046326]","1","2","","","854","112","11","1","win","go","1","0"
"pit-trial","181","1254542","0.0-117.0","battery-v0.2","","","725.1999999284744","","","19","854","426","v","elianto","#3366ff99"," "," ","1","+10","[1575.7999999523163]","1","2","","","854","113","11","1","win","go","0","0"
"pit-trial","182","1258796","0.0-118.0","battery-v0.2","","","1402.2000000476837","","","19","854","426","j","elianto","#f73b6a7A"," "," ","1","0","[2252.399999976158]","1","2","","","854","114","10","3","lose","go","0","0"
"pit-trial","183","1263648","0.0-119.0","battery-v0.2","","","-1","","","19","854","426","k","elianto","#f73b6a7A","-1","-1","1","0","[]","0","2","","","854","115","8","4","lose","no-go","0","0"
"pit-trial","184","1267204","0.0-120.0","battery-v0.2","","","704.6000000238419","","","19","854","426","d","elianto","#3366ff99"," "," ","1","+10","[1554.5]","1","2","","","854","116","9","1","win","go","0","0"
"pit-trial","185","1270773","0.0-121.0","battery-v0.2","","","716.6999999284744","","","19","854","426","v","elianto","#3366ff99"," "," ","1","0","[1567.0999999046326]","1","2","","","854","117","11","1","win","go","1","0"
"pit-trial","186","1274637","0.0-122.0","battery-v0.2","","","1010.9000000953674","","","19","854","426","d","elianto","#3366ff99"," "," ","1","+10","[1861.5]","1","2","","","854","118","9","1","win","go","0","0"
"pit-trial","187","1278869","0.0-123.0","battery-v0.2","","","1379.6000000238419","","","19","854","426","j","elianto","#f73b6a7A"," "," ","1","0","[2230.4000000953674]","1","2","","","854","119","10","3","lose","go","0","0"
"pit-trial","188","1283722","0.0-124.0","battery-v0.2","","","-1","","","19","854","426","k","elianto","#f73b6a7A","-1","-1","1","0","[]","0","2","","","854","120","8","4","lose","no-go","0","0"
"pit-trial","189","1287388","0.0-125.0","battery-v0.2","","","812.8999999761581","","","19","854","426","d","elianto","#3366ff99"," "," ","1","+10","[1664.8999999761581]","1","2","","","854","121","9","1","win","go","0","0"
"pit-trial","190","1291542","0.0-126.0","battery-v0.2","","","1299.1000000238419","","","19","854","426","j","elianto","#f73b6a7A"," "," ","1","-10","[2151]","1","2","","","854","122","10","3","lose","go","1","0"
"pit-trial","191","1296395","0.0-127.0","battery-v0.2","","","-1","","","19","854","426","v","elianto","#3366ff99"," ","-1","0","0","[]","0","2","","","854","123","11","1","win","go","0","0"
"pit-trial","192","1301247","0.0-128.0","battery-v0.2","","","-1","","","19","854","426","k","elianto","#f73b6a7A","-1","-1","1","0","[]","0","2","","","854","124","8","4","lose","no-go","0","0"
"pit-trial","193","1305092","0.0-129.0","battery-v0.2","","","992.2999999523163","","","19","854","426","j","elianto","#f73b6a7A"," "," ","1","0","[1843.5]","1","2","","","854","125","10","3","lose","go","0","0"
"pit-trial","194","1309946","0.0-130.0","battery-v0.2","","","-1","","","19","854","426","v","elianto","#3366ff99"," ","-1","0","+10","[]","0","2","","","854","126","11","1","win","go","1","0"
"pit-trial","195","1313524","0.0-131.0","battery-v0.2","","","725.2000000476837","","","19","854","426","d","elianto","#3366ff99"," "," ","1","+10","[1576.1000000238419]","1","2","","","854","127","9","1","win","go","0","0"
"pit-trial","196","1318377","0.0-132.0","battery-v0.2","","","-1","","","19","854","426","k","elianto","#f73b6a7A","-1","-1","1","0","[]","0","2","","","854","128","8","4","lose","no-go","0","0"
"pit-trial","197","1322165","0.0-133.0","battery-v0.2","","","934.5","","","19","854","426","j","elianto","#f73b6a7A"," "," ","1","0","[1785.8999999761581]","1","2","","","854","129","10","3","lose","go","0","0"
"pit-trial","198","1327018","0.0-134.0","battery-v0.2","","","-1","","","19","854","426","v","elianto","#3366ff99"," ","-1","0","0","[]","0","2","","","854","130","11","1","win","go","0","0"
"pit-trial","199","1330668","0.0-135.0","battery-v0.2","","","798.2000000476837","","","19","854","426","d","elianto","#3366ff99"," "," ","1","0","[1648.7000000476837]","1","2","","","854","131","9","1","win","go","1","0"
"pit-trial","200","1335522","0.0-136.0","battery-v0.2","","","-1","","","19","854","426","k","elianto","#f73b6a7A","-1","-1","1","0","[]","0","2","","","854","132","8","4","lose","no-go","0","0"
"pit-trial","201","1339380","0.0-137.0","battery-v0.2","","","1006.5","","","19","854","426","v","elianto","#3366ff99"," "," ","1","+10","[1857]","1","2","","","854","133","11","1","win","go","0","0"
"pit-trial","202","1343629","0.0-138.0","battery-v0.2","","","1395.6000000238419","","","19","854","426","j","elianto","#f73b6a7A"," "," ","1","0","[2246.6999999284744]","1","2","","","854","134","10","3","lose","go","0","0"
"pit-trial","203","1347252","0.0-139.0","battery-v0.2","","","771.7999999523163","","","19","854","426","d","elianto","#3366ff99"," "," ","1","+10","[1622.1000000238419]","1","2","","","854","135","9","1","win","go","0","0"
"pit-trial","204","1352106","0.0-140.0","battery-v0.2","","","-1","","","19","854","426","k","elianto","#f73b6a7A","-1","-1","1","0","[]","0","2","","","854","136","8","4","lose","no-go","0","0"
"pit-trial","205","1356959","0.0-141.0","battery-v0.2","","","-1","","","19","854","426","v","elianto","#3366ff99"," ","-1","0","+10","[]","0","2","","","854","137","11","1","win","go","1","0"
"pit-trial","206","1361823","0.0-142.0","battery-v0.2","","","-1","","","19","854","426","k","elianto","#f73b6a7A","-1","-1","1","-10","[]","0","2","","","854","138","8","4","lose","no-go","1","0"
"pit-trial","207","1365325","0.0-143.0","battery-v0.2","","","648.2999999523163","","","19","854","426","d","elianto","#3366ff99"," "," ","1","+10","[1499.5]","1","2","","","854","139","9","1","win","go","0","0"
"pit-trial","208","1369188","0.0-144.0","battery-v0.2","","","1010.8000000715256","","","19","854","426","j","elianto","#f73b6a7A"," "," ","1","0","[1861.8000000715256]","1","2","","","854","140","10","3","lose","go","0","0"
"pit-instructions","209","1419499","0.0-145.0","battery-v0.2","","[{""page_index"":0,""viewing_time"":34938.39999997616},{""page_index"":1,""viewing_time"":15371.700000047684}]","50310.300000071526","","","","","","","","","","","","","","","","","","","","","","","","",""
"pit-trial","210","1423570","0.0-146.0","battery-v0.2","","","1211.3999999761581","","","19","854","426","m","elianto","#3366ff99","-1"," ","0","0","[2062]","1","3","","","854","141","0","2","win","no-go","0","0"
"pit-trial","211","1427334","0.0-147.0","battery-v0.2","","","909.8000000715256","","","19","854","426","r","elianto","#f73b6a7A"," "," ","1","0","[1760]","1","3","","","854","142","1","3","lose","go","0","0"
"pit-trial","212","1431056","0.0-148.0","battery-v0.2","","","846.6000000238419","","","19","854","426","h","elianto","#3366ff99"," "," ","1","+10","[1707.9000000953674]","1","3","","","854","143","3","1","win","go","0","0"
"pit-trial","213","1434836","0.0-149.0","battery-v0.2","","","926.8000000715256","","","19","854","426","y","elianto","#f73b6a7A","-1"," ","0","0","[1778.6000000238419]","1","3","","","854","144","2","4","lose","no-go","1","0"
"pit-trial","214","1438683","0.0-150.0","battery-v0.2","","","985.6000000238419","","","19","854","426","h","elianto","#3366ff99"," "," ","1","0","[1837.7000000476837]","1","3","","","854","145","3","1","win","go","1","0"
"pit-trial","215","1442627","0.0-151.0","battery-v0.2","","","1092.8999999761581","","","19","854","426","y","elianto","#f73b6a7A","-1"," ","0","-10","[1943.6999999284744]","1","3","","","854","146","2","4","lose","no-go","0","0"
"pit-trial","216","1446324","0.0-152.0","battery-v0.2","","","845","","","19","854","426","m","elianto","#3366ff99","-1"," ","0","0","[1695.1999999284744]","1","3","","","854","147","0","2","win","no-go","0","0"
"pit-trial","217","1450253","0.0-153.0","battery-v0.2","","","1075.6000000238419","","","19","854","426","r","elianto","#f73b6a7A"," "," ","1","0","[1926.3000000715256]","1","3","","","854","148","1","3","lose","go","0","0"
"pit-trial","218","1455105","0.0-154.0","battery-v0.2","","","-1","","","19","854","426","m","elianto","#3366ff99","-1","-1","1","+10","[]","0","3","","","854","149","0","2","win","no-go","0","0"
"pit-trial","219","1459958","0.0-155.0","battery-v0.2","","","-1","","","19","854","426","h","elianto","#3366ff99"," ","-1","0","+10","[]","0","3","","","854","150","3","1","win","go","1","0"
"pit-trial","220","1464811","0.0-156.0","battery-v0.2","","","-1","","","19","854","426","r","elianto","#f73b6a7A"," ","-1","0","0","[]","0","3","","","854","151","1","3","lose","go","1","0"
"pit-trial","221","1469663","0.0-157.0","battery-v0.2","","","-1","","","19","854","426","y","elianto","#f73b6a7A","-1","-1","1","0","[]","0","3","","","854","152","2","4","lose","no-go","0","0"
"pit-trial","222","1474519","0.0-158.0","battery-v0.2","","","-1","","","19","854","426","r","elianto","#f73b6a7A"," ","-1","0","0","[]","0","3","","","854","153","1","3","lose","go","1","0"
"pit-trial","223","1479371","0.0-159.0","battery-v0.2","","","-1","","","19","854","426","h","elianto","#3366ff99"," ","-1","0","0","[]","0","3","","","854","154","3","1","win","go","0","0"
"pit-trial","224","1484223","0.0-160.0","battery-v0.2","","","-1","","","19","854","426","m","elianto","#3366ff99","-1","-1","1","0","[]","0","3","","","854","155","0","2","win","no-go","1","0"
"pit-trial","225","1489077","0.0-161.0","battery-v0.2","","","-1","","","19","854","426","y","elianto","#f73b6a7A","-1","-1","1","0","[]","0","3","","","854","156","2","4","lose","no-go","0","0"
"pit-trial","226","1493931","0.0-162.0","battery-v0.2","","","-1","","","19","854","426","r","elianto","#f73b6a7A"," ","-1","0","0","[]","0","3","","","854","157","1","3","lose","go","1","0"
"pit-trial","227","1498783","0.0-163.0","battery-v0.2","","","-1","","","19","854","426","m","elianto","#3366ff99","-1","-1","1","+10","[]","0","3","","","854","158","0","2","win","no-go","0","0"
"pit-trial","228","1502308","0.0-164.0","battery-v0.2","","","672.1000000238419","","","19","854","426","h","elianto","#3366ff99"," "," ","1","+10","[1523.1999999284744]","1","3","","","854","159","3","1","win","go","0","0"
"pit-trial","229","1507173","0.0-165.0","battery-v0.2","","","-1","","","19","854","426","y","elianto","#f73b6a7A","-1","-1","1","0","[]","0","3","","","854","160","2","4","lose","no-go","0","0"
"pit-trial","230","1512026","0.0-166.0","battery-v0.2","","","-1","","","19","854","426","y","elianto","#f73b6a7A","-1","-1","1","0","[]","0","3","","","854","161","2","4","lose","no-go","0","0"
"pit-trial","231","1516879","0.0-167.0","battery-v0.2","","","-1","","","19","854","426","r","elianto","#f73b6a7A"," ","-1","0","0","[]","0","3","","","854","162","1","3","lose","go","1","0"
"pit-trial","232","1521731","0.0-168.0","battery-v0.2","","","-1","","","19","854","426","m","elianto","#3366ff99","-1","-1","1","+10","[]","0","3","","","854","163","0","2","win","no-go","0","0"
"pit-trial","233","1525156","0.0-169.0","battery-v0.2","","","571.8999999761581","","","19","854","426","h","elianto","#3366ff99"," "," ","1","+10","[1423]","1","3","","","854","164","3","1","win","go","0","0"
"pit-trial","234","1530009","0.0-170.0","battery-v0.2","","","-1","","","19","854","426","m","elianto","#3366ff99","-1","-1","1","0","[]","0","3","","","854","165","0","2","win","no-go","1","0"
"pit-trial","235","1534875","0.0-171.0","battery-v0.2","","","-1","","","19","854","426","r","elianto","#f73b6a7A"," ","-1","0","-10","[]","0","3","","","854","166","1","3","lose","go","0","0"
"pit-trial","236","1538436","0.0-172.0","battery-v0.2","","","708.6000000238419","","","19","854","426","h","elianto","#3366ff99"," "," ","1","0","[1559.5]","1","3","","","854","167","3","1","win","go","1","0"
"pit-trial","237","1543302","0.0-173.0","battery-v0.2","","","-1","","","19","854","426","y","elianto","#f73b6a7A","-1","-1","1","0","[]","0","3","","","854","168","2","4","lose","no-go","0","0"
"pit-trial","238","1546645","0.0-174.0","battery-v0.2","","","489.2999999523163","","","19","854","426","h","elianto","#3366ff99"," "," ","1","+10","[1340.9000000953674]","1","3","","","854","169","3","1","win","go","0","0"
"pit-trial","239","1551498","0.0-175.0","battery-v0.2","","","-1","","","19","854","426","m","elianto","#3366ff99","-1","-1","1","+10","[]","0","3","","","854","170","0","2","win","no-go","0","0"
"pit-trial","240","1556363","0.0-176.0","battery-v0.2","","","-1","","","19","854","426","r","elianto","#f73b6a7A"," ","-1","0","-10","[]","0","3","","","854","171","1","3","lose","go","0","0"
"pit-trial","241","1561218","0.0-177.0","battery-v0.2","","","-1","","","19","854","426","y","elianto","#f73b6a7A","-1","-1","1","0","[]","0","3","","","854","172","2","4","lose","no-go","0","0"
"pit-trial","242","1566071","0.0-178.0","battery-v0.2","","","-1","","","19","854","426","r","elianto","#f73b6a7A"," ","-1","0","-10","[]","0","3","","","854","173","1","3","lose","go","0","0"
"pit-trial","243","1570014","0.0-179.0","battery-v0.2","","","1088.0999999046326","","","19","854","426","c","elianto","#f73b6a7A","-1"," ","0","-10","[1939.8999999761581]","1","3","","","854","174","5","4","lose","no-go","0","0"
"pit-trial","244","1573725","0.0-180.0","battery-v0.2","","","859.3000000715256","","","19","854","426","z","elianto","#f73b6a7A"," "," ","1","0","[1709.5]","1","3","","","854","175","4","3","lose","go","0","0"
"pit-trial","245","1578577","0.0-181.0","battery-v0.2","","","-1","","","19","854","426","y","elianto","#f73b6a7A","-1","-1","1","0","[]","0","3","","","854","176","2","4","lose","no-go","0","0"
"pit-trial","246","1583430","0.0-182.0","battery-v0.2","","","-1","","","19","854","426","y","elianto","#f73b6a7A","-1","-1","1","0","[]","0","3","","","854","177","2","4","lose","no-go","0","0"
"pit-trial","247","1587365","0.0-183.0","battery-v0.2","","","1081.8000000715256","","","19","854","426","z","elianto","#f73b6a7A"," "," ","1","0","[1933]","1","3","","","854","178","4","3","lose","go","0","0"
"pit-trial","248","1592219","0.0-184.0","battery-v0.2","","","-1","","","19","854","426","r","elianto","#f73b6a7A"," ","-1","0","-10","[]","0","3","","","854","179","1","3","lose","go","0","0"
"pit-trial","249","1597071","0.0-185.0","battery-v0.2","","","-1","","","19","854","426","c","elianto","#f73b6a7A","-1","-1","1","0","[]","0","3","","","854","180","5","4","lose","no-go","0","0"
"pit-trial","250","1600733","0.0-186.0","battery-v0.2","","","808.8999999761581","","","19","854","426","b","elianto","#3366ff99","-1"," ","0","0","[1660]","1","3","","","854","181","6","2","win","no-go","0","0"
"pit-trial","251","1605586","0.0-187.0","battery-v0.2","","","-1","","","19","854","426","y","elianto","#f73b6a7A","-1","-1","1","0","[]","0","3","","","854","182","2","4","lose","no-go","0","0"
"pit-trial","252","1609324","0.0-188.0","battery-v0.2","","","885.5","","","19","854","426","c","elianto","#f73b6a7A","-1"," ","0","0","[1736.5999999046326]","1","3","","","854","183","5","4","lose","no-go","1","0"
"pit-trial","253","1613213","0.0-189.0","battery-v0.2","","","1036","","","19","854","426","z","elianto","#f73b6a7A"," "," ","1","-10","[1886.5999999046326]","1","3","","","854","184","4","3","lose","go","1","0"
"pit-trial","254","1617532","0.0-190.0","battery-v0.2","","","1465.7000000476837","","","19","854","426","z","elianto","#f73b6a7A"," "," ","1","0","[2317.7000000476837]","1","3","","","854","185","4","3","lose","go","0","0"
"pit-trial","255","1622385","0.0-191.0","battery-v0.2","","","-1","","","19","854","426","y","elianto","#f73b6a7A","-1","-1","1","-10","[]","0","3","","","854","186","2","4","lose","no-go","1","0"
"pit-trial","256","1626445","0.0-192.0","battery-v0.2","","","1207.2999999523163","","","19","854","426","b","elianto","#3366ff99","-1"," ","0","+10","[2057.899999976158]","1","3","","","854","187","6","2","win","no-go","1","0"
"pit-trial","257","1630053","0.0-193.0","battery-v0.2","","","755","","","19","854","426","c","elianto","#f73b6a7A","-1"," ","0","-10","[1606.3000000715256]","1","3","","","854","188","5","4","lose","no-go","0","0"
"pit-trial","258","1633948","0.0-194.0","battery-v0.2","","","1043.8999999761581","","","19","854","426","b","elianto","#3366ff99","-1"," ","0","0","[1893.8999999761581]","1","3","","","854","189","6","2","win","no-go","0","0"
"pit-trial","259","1638182","0.0-195.0","battery-v0.2","","","1380.0999999046326","","","19","854","426","z","elianto","#f73b6a7A"," "," ","1","-10","[2230.6999999284744]","1","3","","","854","190","4","3","lose","go","1","0"
"pit-trial","260","1641908","0.0-196.0","battery-v0.2","","","873.9000000953674","","","19","854","426","t","elianto","#3366ff99"," "," ","1","+10","[1724.4000000953674]","1","3","","","854","191","7","1","win","go","0","0"
"pit-trial","261","1646762","0.0-197.0","battery-v0.2","","","-1","","","19","854","426","c","elianto","#f73b6a7A","-1","-1","1","0","[]","0","3","","","854","192","5","4","lose","no-go","0","0"
"pit-trial","262","1651615","0.0-198.0","battery-v0.2","","","-1","","","19","854","426","c","elianto","#f73b6a7A","-1","-1","1","0","[]","0","3","","","854","193","5","4","lose","no-go","0","0"
"pit-trial","263","1655004","0.0-199.0","battery-v0.2","","","536.6999999284744","","","19","854","426","t","elianto","#3366ff99"," "," ","1","+10","[1387.5]","1","3","","","854","194","7","1","win","go","0","0"
"pit-trial","264","1659141","0.0-200.0","battery-v0.2","","","1284.8000000715256","","","19","854","426","z","elianto","#f73b6a7A"," "," ","1","-10","[2135]","1","3","","","854","195","4","3","lose","go","1","0"
"pit-trial","265","1663993","0.0-201.0","battery-v0.2","","","-1","","","19","854","426","b","elianto","#3366ff99","-1","-1","1","+10","[]","0","3","","","854","196","6","2","win","no-go","0","0"
"pit-trial","266","1667508","0.0-202.0","battery-v0.2","","","661.7000000476837","","","19","854","426","t","elianto","#3366ff99"," "," ","1","0","[1513.5]","1","3","","","854","197","7","1","win","go","1","0"
"pit-trial","267","1672360","0.0-203.0","battery-v0.2","","","-1","","","19","854","426","c","elianto","#f73b6a7A","-1","-1","1","0","[]","0","3","","","854","198","5","4","lose","no-go","0","0"
"pit-trial","268","1677213","0.0-204.0","battery-v0.2","","","-1","","","19","854","426","b","elianto","#3366ff99","-1","-1","1","+10","[]","0","3","","","854","199","6","2","win","no-go","0","0"
"pit-trial","269","1681532","0.0-205.0","battery-v0.2","","","1466.3999999761581","","","19","854","426","z","elianto","#f73b6a7A"," "," ","1","0","[2317.399999976158]","1","3","","","854","200","4","3","lose","go","0","0"
"pit-trial","270","1686385","0.0-206.0","battery-v0.2","","","-1","","","19","854","426","b","elianto","#3366ff99","-1","-1","1","+10","[]","0","3","","","854","201","6","2","win","no-go","0","0"
"pit-trial","271","1689901","0.0-207.0","battery-v0.2","","","662.2999999523163","","","19","854","426","t","elianto","#3366ff99"," "," ","1","+10","[1512.8999999761581]","1","3","","","854","202","7","1","win","go","0","0"
"pit-trial","272","1694754","0.0-208.0","battery-v0.2","","","-1","","","19","854","426","c","elianto","#f73b6a7A","-1","-1","1","0","[]","0","3","","","854","203","5","4","lose","no-go","0","0"
"pit-trial","273","1698580","0.0-209.0","battery-v0.2","","","972.8999999761581","","","19","854","426","z","elianto","#f73b6a7A"," "," ","1","0","[1824.0999999046326]","1","3","","","854","204","4","3","lose","go","0","0"
"pit-trial","274","1702116","0.0-210.0","battery-v0.2","","","683","","","19","854","426","t","elianto","#3366ff99"," "," ","1","+10","[1534]","1","3","","","854","205","7","1","win","go","0","0"
"pit-trial","275","1706978","0.0-211.0","battery-v0.2","","","-1","","","19","854","426","b","elianto","#3366ff99","-1","-1","1","+10","[]","0","3","","","854","206","6","2","win","no-go","0","0"
"pit-trial","276","1711395","0.0-212.0","battery-v0.2","","","1565.5","","","19","854","426","z","elianto","#f73b6a7A"," "," ","1","0","[2415.7000000476837]","1","3","","","854","207","4","3","lose","go","0","0"
"pit-trial","277","1716248","0.0-213.0","battery-v0.2","","","-1","","","19","854","426","c","elianto","#f73b6a7A","-1","-1","1","0","[]","0","3","","","854","208","5","4","lose","no-go","0","0"
"pit-trial","278","1719781","0.0-214.0","battery-v0.2","","","680.1999999284744","","","19","854","426","t","elianto","#3366ff99"," "," ","1","+10","[1530.5999999046326]","1","3","","","854","209","7","1","win","go","0","0"
"pit-trial","279","1723932","0.0-215.0","battery-v0.2","","","1291.2000000476837","","","19","854","426","z","elianto","#f73b6a7A"," "," ","1","0","[2141.5]","1","3","","","854","210","4","3","lose","go","0","0"
"pit-trial","280","1728786","0.0-216.0","battery-v0.2","","","-1","","","19","854","426","c","elianto","#f73b6a7A","-1","-1","1","0","[]","0","3","","","854","211","5","4","lose","no-go","0","0"
"pit-trial","281","1733637","0.0-217.0","battery-v0.2","","","-1","","","19","854","426","b","elianto","#3366ff99","-1","-1","1","0","[]","0","3","","","854","212","6","2","win","no-go","1","0"
"pit-trial","282","1737516","0.0-218.0","battery-v0.2","","","1010.6000000238419","","","19","854","426","z","elianto","#f73b6a7A"," "," ","1","0","[1862]","1","3","","","854","213","4","3","lose","go","0","0"
"pit-trial","283","1741212","0.0-219.0","battery-v0.2","","","843.0999999046326","","","19","854","426","t","elianto","#3366ff99"," "," ","1","+10","[1694.0999999046326]","1","3","","","854","214","7","1","win","go","0","0"
"pit-trial","284","1746065","0.0-220.0","battery-v0.2","","","-1","","","19","854","426","b","elianto","#3366ff99","-1","-1","1","+10","[]","0","3","","","854","215","6","2","win","no-go","0","0"
"pit-trial","285","1749772","0.0-221.0","battery-v0.2","","","853.9000000953674","","","19","854","426","x","elianto","#3366ff99"," "," ","1","+10","[1705.2000000476837]","1","3","","","854","216","8","1","win","go","0","0"
"pit-trial","286","1754624","0.0-222.0","battery-v0.2","","","-1","","","19","854","426","b","elianto","#3366ff99","-1","-1","1","0","[]","0","3","","","854","217","6","2","win","no-go","1","0"
"pit-trial","287","1758076","0.0-223.0","battery-v0.2","","","589.0999999046326","","","19","854","426","x","elianto","#3366ff99"," "," ","1","0","[1450.0999999046326]","1","3","","","854","218","8","1","win","go","1","0"
"pit-trial","288","1761716","0.0-224.0","battery-v0.2","","","786.8999999761581","","","19","854","426","t","elianto","#3366ff99"," "," ","1","+10","[1638.7999999523163]","1","3","","","854","219","7","1","win","go","0","0"
"pit-trial","289","1765573","0.0-225.0","battery-v0.2","","","1002.8000000715256","","","19","854","426","z","elianto","#f73b6a7A"," "," ","1","0","[1854.3000000715256]","1","3","","","854","220","4","3","lose","go","0","0"
"pit-trial","290","1769148","0.0-226.0","battery-v0.2","","","722.3000000715256","","","19","854","426","t","elianto","#3366ff99"," "," ","1","+10","[1573.3000000715256]","1","3","","","854","221","7","1","win","go","0","0"
"pit-trial","291","1772909","0.0-227.0","battery-v0.2","","","908.3000000715256","","","19","854","426","f","elianto","#3366ff99","-1"," ","0","+10","[1758.6000000238419]","1","3","","","854","222","9","2","win","no-go","1","0"
"pit-trial","292","1776432","0.0-228.0","battery-v0.2","","","666.3999999761581","","","19","854","426","x","elianto","#3366ff99"," "," ","1","0","[1517.7999999523163]","1","3","","","854","223","8","1","win","go","1","0"
"pit-trial","293","1781285","0.0-229.0","battery-v0.2","","","-1","","","19","854","426","b","elianto","#3366ff99","-1","-1","1","0","[]","0","3","","","854","224","6","2","win","no-go","1","0"
"pit-trial","294","1785085","0.0-230.0","battery-v0.2","","","946.7999999523163","","","19","854","426","f","elianto","#3366ff99","-1"," ","0","+10","[1797.7999999523163]","1","3","","","854","225","9","2","win","no-go","1","0"
"pit-trial","295","1788614","0.0-231.0","battery-v0.2","","","674.7999999523163","","","19","854","426","t","elianto","#3366ff99"," "," ","1","+10","[1526.1999999284744]","1","3","","","854","226","7","1","win","go","0","0"
"pit-trial","296","1793466","0.0-232.0","battery-v0.2","","","-1","","","19","854","426","x","elianto","#3366ff99"," ","-1","0","0","[]","0","3","","","854","227","8","1","win","go","0","0"
"pit-trial","297","1798319","0.0-233.0","battery-v0.2","","","-1","","","19","854","426","b","elianto","#3366ff99","-1","-1","1","+10","[]","0","3","","","854","228","6","2","win","no-go","0","0"
"pit-trial","298","1802061","0.0-234.0","battery-v0.2","","","888.1000000238419","","","19","854","426","q","elianto","#f73b6a7A","-1"," ","0","-10","[1739.7999999523163]","1","3","","","854","229","11","4","lose","no-go","0","0"
"pit-trial","299","1805676","0.0-235.0","battery-v0.2","","","763.3999999761581","","","19","854","426","n","elianto","#f73b6a7A"," "," ","1","0","[1613.8999999761581]","1","3","","","854","230","10","3","lose","go","0","0"
"pit-trial","300","1809237","0.0-236.0","battery-v0.2","","","707.8999999761581","","","19","854","426","f","elianto","#3366ff99","-1"," ","0","0","[1558]","1","3","","","854","231","9","2","win","no-go","0","0"
"pit-trial","301","1814090","0.0-237.0","battery-v0.2","","","-1","","","19","854","426","x","elianto","#3366ff99"," ","-1","0","0","[]","0","3","","","854","232","8","1","win","go","0","0"
"pit-trial","302","1818021","0.0-238.0","battery-v0.2","","","1078","","","19","854","426","n","elianto","#f73b6a7A"," "," ","1","-10","[1928.2999999523163]","1","3","","","854","233","10","3","lose","go","1","0"
"pit-trial","303","1821468","0.0-239.0","battery-v0.2","","","595.5999999046326","","","19","854","426","f","elianto","#3366ff99","-1"," ","0","+10","[1445.8999999761581]","1","3","","","854","234","9","2","win","no-go","1","0"
"pit-trial","304","1824940","0.0-240.0","battery-v0.2","","","620","","","19","854","426","x","elianto","#3366ff99"," "," ","1","+10","[1470.8999999761581]","1","3","","","854","235","8","1","win","go","0","0"
"pit-trial","305","1828836","0.0-241.0","battery-v0.2","","","1044.4000000953674","","","19","854","426","q","elianto","#f73b6a7A","-1"," ","0","0","[1894.6000000238419]","1","3","","","854","236","11","4","lose","no-go","1","0"
"pit-trial","306","1832342","0.0-242.0","battery-v0.2","","","652","","","19","854","426","f","elianto","#3366ff99","-1"," ","0","+10","[1503.1000000238419]","1","3","","","854","237","9","2","win","no-go","1","0"
"pit-trial","307","1835988","0.0-243.0","battery-v0.2","","","793.5","","","19","854","426","x","elianto","#3366ff99"," "," ","1","0","[1644.2000000476837]","1","3","","","854","238","8","1","win","go","1","0"
"pit-trial","308","1840148","0.0-244.0","battery-v0.2","","","1308.2000000476837","","","19","854","426","n","elianto","#f73b6a7A"," "," ","1","0","[2159.2000000476837]","1","3","","","854","239","10","3","lose","go","0","0"
"pit-trial","309","1843885","0.0-245.0","battery-v0.2","","","884","","","19","854","426","q","elianto","#f73b6a7A","-1"," ","0","-10","[1734.6000000238419]","1","3","","","854","240","11","4","lose","no-go","0","0"
"pit-trial","310","1848750","0.0-246.0","battery-v0.2","","","-1","","","19","854","426","x","elianto","#3366ff99"," ","-1","0","0","[]","0","3","","","854","241","8","1","win","go","0","0"
"pit-trial","311","1853036","0.0-247.0","battery-v0.2","","","1432.6000000238419","","","19","854","426","n","elianto","#f73b6a7A"," "," ","1","0","[2283.600000023842]","1","3","","","854","242","10","3","lose","go","0","0"
"pit-trial","312","1856661","0.0-248.0","battery-v0.2","","","772","","","19","854","426","q","elianto","#f73b6a7A","-1"," ","0","0","[1622.2000000476837]","1","3","","","854","243","11","4","lose","no-go","1","0"
"pit-trial","313","1860228","0.0-249.0","battery-v0.2","","","713.5","","","19","854","426","f","elianto","#3366ff99","-1"," ","0","0","[1564.6999999284744]","1","3","","","854","244","9","2","win","no-go","0","0"
"pit-trial","314","1863853","0.0-250.0","battery-v0.2","","","772.4000000953674","","","19","854","426","n","elianto","#f73b6a7A"," "," ","1","0","[1622.7000000476837]","1","3","","","854","245","10","3","lose","go","0","0"
"pit-trial","315","1868706","0.0-251.0","battery-v0.2","","","-1","","","19","854","426","x","elianto","#3366ff99"," ","-1","0","0","[]","0","3","","","854","246","8","1","win","go","0","0"
"pit-trial","316","1872684","0.0-252.0","battery-v0.2","","","1125.8999999761581","","","19","854","426","f","elianto","#3366ff99","-1"," ","0","+10","[1976.3999999761581]","1","3","","","854","247","9","2","win","no-go","1","0"
"pit-trial","317","1876900","0.0-253.0","battery-v0.2","","","1362.8000000715256","","","19","854","426","q","elianto","#f73b6a7A","-1"," ","0","-10","[2214.4000000953674]","1","3","","","854","248","11","4","lose","no-go","0","0"
"pit-trial","318","1880885","0.0-254.0","battery-v0.2","","","1131.9000000953674","","","19","854","426","n","elianto","#f73b6a7A"," "," ","1","0","[1982.3000000715256]","1","3","","","854","249","10","3","lose","go","0","0"
"pit-trial","319","1885739","0.0-255.0","battery-v0.2","","","-1","","","19","854","426","x","elianto","#3366ff99"," ","-1","0","0","[]","0","3","","","854","250","8","1","win","go","0","0"
"pit-trial","320","1889612","0.0-256.0","battery-v0.2","","","1020.7000000476837","","","19","854","426","f","elianto","#3366ff99","-1"," ","0","0","[1871.3999999761581]","1","3","","","854","251","9","2","win","no-go","0","0"
"pit-trial","321","1893926","0.0-257.0","battery-v0.2","","","1459.1999999284744","","","19","854","426","q","elianto","#f73b6a7A","-1"," ","0","-10","[2311]","1","3","","","854","252","11","4","lose","no-go","0","0"
"pit-trial","322","1897516","0.0-258.0","battery-v0.2","","","738.2000000476837","","","19","854","426","x","elianto","#3366ff99"," "," ","1","+10","[1588.5]","1","3","","","854","253","8","1","win","go","0","0"
"pit-trial","323","1901420","0.0-259.0","battery-v0.2","","","1052.3000000715256","","","19","854","426","q","elianto","#f73b6a7A","-1"," ","0","-10","[1902.7000000476837]","1","3","","","854","254","11","4","lose","no-go","0","0"
"pit-trial","324","1905029","0.0-260.0","battery-v0.2","","","755.6999999284744","","","19","854","426","n","elianto","#f73b6a7A"," "," ","1","0","[1605.8999999761581]","1","3","","","854","255","10","3","lose","go","0","0"
"pit-trial","325","1909220","0.0-261.0","battery-v0.2","","","1338.1000000238419","","","19","854","426","f","elianto","#3366ff99","-1"," ","0","0","[2189.3000000715256]","1","3","","","854","256","9","2","win","no-go","0","0"
"pit-trial","326","1912578","0.0-262.0","battery-v0.2","","","492.09999990463257","","","19","854","426","x","elianto","#3366ff99"," "," ","1","0","[1342.6999999284744]","1","3","","","854","257","8","1","win","go","1","0"
"pit-trial","327","1917430","0.0-263.0","battery-v0.2","","","-1","","","19","854","426","f","elianto","#3366ff99","-1","-1","1","+10","[]","0","3","","","854","258","9","2","win","no-go","0","0"
"pit-trial","328","1922284","0.0-264.0","battery-v0.2","","","-1","","","19","854","426","q","elianto","#f73b6a7A","-1","-1","1","0","[]","0","3","","","854","259","11","4","lose","no-go","0","0"
"pit-trial","329","1926421","0.0-265.0","battery-v0.2","","","1284.2999999523163","","","19","854","426","n","elianto","#f73b6a7A"," "," ","1","0","[2135]","1","3","","","854","260","10","3","lose","go","0","0"
"pit-instructions","330","1937231","0.0-266.0","battery-v0.2","","[{""page_index"":0,""viewing_time"":10809.800000071526}]","10810","","","","","","","","","","","","","","","","","","","","","","","","",""
