"trial_type","trial_index","time_elapsed","internal_node_id","task_version","view_history","rt","rune","rune_set","hex","correct","choice","accuracy","outcome","keys","total_keys","block","practice","value","responses","num_errors"
"pavlovia","0","37","0.0-0.0","battery-v0.2","","","","","","","","","","","","","","","",""
"pit-instructions","1","33001","0.0-1.0-0.0","battery-v0.2","[{""page_index"":0,""viewing_time"":4975.029999855906},{""page_index"":1,""viewing_time"":2882.4899999890476},{""page_index"":2,""viewing_time"":1580.775000154972},{""page_index"":3,""viewing_time"":2259.7699998877943},{""page_index"":4,""viewing_time"":3578.925000037998},{""page_index"":5,""viewing_time"":2334.030000027269},{""page_index"":6,""viewing_time"":2506.5349999349564},{""page_index"":7,""viewing_time"":6052.820000099018},{""page_index"":8,""viewing_time"":4381.359999999404},{""page_index"":9,""viewing_time"":2407.554999925196}]","32960.44999989681","","","","","","","","","","","","","",""
"pit-trial","2","36478","0.0-1.0-1.0-0.0","battery-v0.2","","769.5049999747425","1","elianto","#3366ff99","32","32","1","+10","2269.6050000377","1","0","1","","",""
"pit-trial","3","40049","0.0-1.0-1.1-0.1","battery-v0.2","","861.934999935329","1","elianto","#3366ff99","32","32","1","+10","2362.1050000656396","1","0","1","","",""
"pit-trial","4","43873","0.0-1.0-1.2-0.2","battery-v0.2","","1114.609999815002","1","elianto","#3366ff99","32","32","1","+10","2614.8749999701977","1","0","1","","",""
"pit-trial","5","47550","0.0-1.0-1.3-0.3","battery-v0.2","","969.8299998417497","1","elianto","#3366ff99","32","32","1","+10","2471.309999935329","1","0","1","","",""
"call-function","6","47555","0.0-1.0-2.0","battery-v0.2","","","","","","","","","","","","","","","",""
"pit-instructions","7","53170","0.0-1.0-3.0","battery-v0.2","[{""page_index"":0,""viewing_time"":3659.144999925047},{""page_index"":1,""viewing_time"":1954.3449999764562}]","5613.889999920502","","","","","","","","","","","","","",""
"pit-trial","8","56631","0.0-1.0-4.0-0.0","battery-v0.2","","754.5899997930974","2","elianto","#3366ff99","-1","32","0","+1","2254.8299999907613","1","0","2","","",""
"pit-trial","9","59970","0.0-1.0-4.1-0.1","battery-v0.2","","632.3349999729544","2","elianto","#3366ff99","-1","32","0","+1","2132.9100001603365","1","0","2","","",""
"pit-trial","10","62976","0.0-1.0-4.2-0.2","battery-v0.2","","296.7499999795109","2","elianto","#3366ff99","-1","32","0","+1","1796.739999903366","1","0","2","","",""
"pit-trial","11","66163","0.0-1.0-4.3-0.3","battery-v0.2","","477.2050001192838","2","elianto","#3366ff99","-1","32","0","+1","1978.4299999009818","1","0","2","","",""
"pit-trial","12","69288","0.0-1.0-4.4-0.4","battery-v0.2","","413.9649998396635","2","elianto","#3366ff99","-1","32","0","+1","1916.5300000458956","1","0","2","","",""
"pit-trial","13","72442","0.0-1.0-4.5-0.5","battery-v0.2","","445.4799999948591","2","elianto","#3366ff99","-1","32","0","+1","1946.155000012368","1","0","2","","",""
"pit-trial","14","75900","0.0-1.0-4.6-0.6","battery-v0.2","","747.6249998435378","2","elianto","#3366ff99","-1","32","0","+1","2247.8650000412017","1","0","2","","",""
"pit-trial","15","79040","0.0-1.0-4.7-0.7","battery-v0.2","","428.94500005058944","2","elianto","#3366ff99","-1","32","0","+1","1929.4749998953193","1","0","2","","",""
"pit-trial","16","82454","0.0-1.0-4.8-0.8","battery-v0.2","","701.8349999561906","2","elianto","#3366ff99","-1","32","0","+1","2203.8750001229346","1","0","2","","",""
"pit-trial","17","85499","0.0-1.0-4.9-0.9","battery-v0.2","","335.54999995976686","2","elianto","#3366ff99","-1","32","0","+1","1837.80000009574","1","0","2","","",""
"pit-trial","18","88536","0.0-1.0-4.10-0.10","battery-v0.2","","327.5350001640618","2","elianto","#3366ff99","-1","32","0","+1","1827.6349999941885","1","0","2","","",""
"pit-trial","19","91581","0.0-1.0-4.11-0.11","battery-v0.2","","337.4199999962002","2","elianto","#3366ff99","-1","32","0","+1","1838.319999864325","1","0","2","","",""
"pit-trial","20","94611","0.0-1.0-4.12-0.12","battery-v0.2","","319.2999998573214","2","elianto","#3366ff99","-1","32","0","+1","1821.3849999010563","1","0","2","","",""
"pit-trial","21","97594","0.0-1.0-4.13-0.13","battery-v0.2","","274.1499999538064","2","elianto","#3366ff99","-1","32","0","+1","1776.1999999638647","1","0","2","","",""
"pit-trial","22","100865","0.0-1.0-4.14-0.14","battery-v0.2","","563.2099998183548","2","elianto","#3366ff99","-1","32","0","+1","2063.2650000043213","1","0","2","","",""
"pit-trial","23","104051","0.0-1.0-4.15-0.15","battery-v0.2","","478.1349999830127","2","elianto","#3366ff99","-1","32","0","+1","1978.5350000020117","1","0","2","","",""
"pit-trial","24","107061","0.0-1.0-4.16-0.16","battery-v0.2","","299.3649998679757","2","elianto","#3366ff99","-1","32","0","+1","1801.5000000596046","1","0","2","","",""
"pit-trial","25","110061","0.0-1.0-4.17-0.17","battery-v0.2","","293.35499997250736","2","elianto","#3366ff99","-1","32","0","+1","1793.4699999168515","1","0","2","","",""
"pit-trial","26","113314","0.0-1.0-4.18-0.18","battery-v0.2","","544.2500000353903","2","elianto","#3366ff99","-1","32","0","+1","2045.3850000631064","1","0","2","","",""
"pit-trial","27","116278","0.0-1.0-4.19-0.19","battery-v0.2","","252.76500009931624","2","elianto","#3366ff99","-1","32","0","+1","1753.7400000728667","1","0","2","","",""
"pit-trial","28","119694","0.0-1.0-4.20-0.20","battery-v0.2","","701.2699998449534","2","elianto","#3366ff99","-1","32","0","+1","2204.86000017263","1","0","2","","",""
"pit-trial","29","122913","0.0-1.0-4.21-0.21","battery-v0.2","","508.8500001002103","2","elianto","#3366ff99","-1","32","0","+1","2011.1899999901652","1","0","2","","",""
"pit-trial","30","125959","0.0-1.0-4.22-0.22","battery-v0.2","","334.15000000968575","2","elianto","#3366ff99","-1","32","0","+1","1836.06499992311","1","0","2","","",""
"pit-trial","31","129312","0.0-1.0-4.23-0.23","battery-v0.2","","646.1950000375509","2","elianto","#3366ff99","-1","32","0","+1","2146.839999826625","1","0","2","","",""
"pit-trial","32","133326","0.0-1.0-4.24-0.24","battery-v0.2","","-1","2","elianto","#3366ff99","-1","-1","1","+10","","0","0","2","","",""
"pit-trial","33","137339","0.0-1.0-4.25-0.25","battery-v0.2","","-1","2","elianto","#3366ff99","-1","-1","1","+10","","0","0","2","","",""
"pit-trial","34","141350","0.0-1.0-4.26-0.26","battery-v0.2","","-1","2","elianto","#3366ff99","-1","-1","1","+10","","0","0","2","","",""
"call-function","35","141354","0.0-1.0-5.0","battery-v0.2","","","","","","","","","","","","","","","",""
"pit-instructions","36","152562","0.0-1.0-6.0","battery-v0.2","[{""page_index"":0,""viewing_time"":7380.744999973103},{""page_index"":1,""viewing_time"":3826.2350000441074}]","11207.430000184104","","","","","","","","","","","","","",""
"pit-trial","37","156574","0.0-1.0-7.0-0.0","battery-v0.2","","-1","3","elianto","#f73b6a7A","-1","-1","1","-1","2840.665000025183","1","0","3","","",""
"pit-trial","38","159895","0.0-1.0-7.1-0.1","battery-v0.2","","612.0649999938905","3","elianto","#f73b6a7A","-1","32","0","-10","2112.2049998957664","1","0","3","","",""
"pit-trial","39","163908","0.0-1.0-7.2-0.2","battery-v0.2","","-1","3","elianto","#f73b6a7A","-1","-1","1","-1","","0","0","3","","",""
"pit-trial","40","167921","0.0-1.0-7.3-0.3","battery-v0.2","","-1","3","elianto","#f73b6a7A","-1","-1","1","-1","","0","0","3","","",""
"pit-trial","41","171928","0.0-1.0-7.4-0.4","battery-v0.2","","-1","3","elianto","#f73b6a7A","-1","-1","1","-1","","0","0","3","","",""
"call-function","42","171932","0.0-1.0-8.0","battery-v0.2","","","","","","","","","","","","","","","",""
"pit-instructions","43","176098","0.0-1.0-9.0","battery-v0.2","[{""page_index"":0,""viewing_time"":2453.290000092238},{""page_index"":1,""viewing_time"":1712.5049999449402}]","4166.205000132322","","","","","","","","","","","","","",""
"pit-trial","44","179894","0.0-1.0-10.0-0.0","battery-v0.2","","1086.5450000856072","4","elianto","#f73b6a7A","32","32","1","-1","2587.115000002086","1","0","4","","",""
"pit-trial","45","182861","0.0-1.0-10.1-0.1","battery-v0.2","","256.90000015310943","4","elianto","#f73b6a7A","32","32","1","-1","1756.9450000301003","1","0","4","","",""
"pit-trial","46","185819","0.0-1.0-10.2-0.2","battery-v0.2","","250.9800000116229","4","elianto","#f73b6a7A","32","32","1","-1","1751.0699999984354","1","0","4","","",""
"pit-trial","47","188830","0.0-1.0-10.3-0.3","battery-v0.2","","302.9149998910725","4","elianto","#f73b6a7A","32","32","1","-1","1804.1300000622869","1","0","4","","",""
"call-function","48","188834","0.0-1.0-11.0","battery-v0.2","","","","","","","","","","","","","","","",""
"pit-instructions","49","198371","0.0-1.0-12.0","battery-v0.2","[{""page_index"":0,""viewing_time"":1410.6900000479072},{""page_index"":1,""viewing_time"":1679.2750000022352},{""page_index"":2,""viewing_time"":2997.359999921173},{""page_index"":3,""viewing_time"":1081.0499999206513},{""page_index"":4,""viewing_time"":1662.8450001589954},{""page_index"":5,""viewing_time"":704.2000000365078}]","9535.854999907315","","","","","","","","","","","","","",""
"pit-comprehension","50","217015","0.0-1.0-13.0","battery-v0.2","","18637.800000142306","","","","","","","","","","","","","Press SPACE,+10,-1,True,True","0"
