"trial_type","trial_index","time_elapsed","internal_node_id","task_version","success","view_history","rt","responses","num_errors","age","subject","participantId","rune","rune_set","hex","correct","choice","accuracy","outcome","keys","total_keys","block","practice","value","sub","trial","stimulus","robot","valence","action","sham","browser_interactions"
"pavlovia","0","25","0.0-0.0","battery-v0.2","","","","","","","","","","","","","","","","","","","","","","","","","","","",""
"fullscreen","1","5862","0.0-1.0","battery-v0.2","true","","","","","","","","","","","","","","","","","","","","","","","","","","",""
"pit-instructions","2","10669","0.0-2.0-0.0","battery-v0.2","","[{""page_index"":0,""viewing_time"":4798}]","4799.200000000186","","","","","","","","","","","","","","","","","","","","","","","","",""
"pit-comprehension","3","17722","0.0-2.0-1.0-0.0","battery-v0.2","","","7044.5","[""shark""]","0","10","1004","885","","","","","","","","","","","","","","","","","","","",""
"pit-instructions","4","20804","0.0-2.0-1.0-1.0","battery-v0.2","","[{""page_index"":0,""viewing_time"":3063.5999999996275}]","3064.2000000001863","","","","","","","","","","","","","","","","","","","","","","","","",""
"pit-comprehension","5","25082","0.0-2.0-2.0-0.0","battery-v0.2","","","4271.299999999814","[""tiger""]","0","10","1004","885","","","","","","","","","","","","","","","","","","","",""
"pit-instructions","6","26984","0.0-2.0-2.0-1.0","battery-v0.2","","[{""page_index"":0,""viewing_time"":1897}]","1897.5","","","","","","","","","","","","","","","","","","","","","","","","",""
"pit-instructions","7","130149","0.0-2.0-3.0","battery-v0.2","","[{""page_index"":0,""viewing_time"":9019.199999999255},{""page_index"":1,""viewing_time"":7312},{""page_index"":2,""viewing_time"":6867.700000000186},{""page_index"":3,""viewing_time"":6818.299999999814},{""page_index"":4,""viewing_time"":6126.800000000745},{""page_index"":5,""viewing_time"":6556.899999999441},{""page_index"":6,""viewing_time"":9280.299999999814},{""page_index"":7,""viewing_time"":7118.4000000003725},{""page_index"":8,""viewing_time"":6467},{""page_index"":9,""viewing_time"":8850.799999999814},{""page_index"":10,""viewing_time"":8047},{""page_index"":11,""viewing_time"":7508.200000000186},{""page_index"":12,""viewing_time"":7466.5},{""page_index"":13,""viewing_time"":5720.0999999996275}]","103160.29999999981","","","","","","","","","","","","","","","","","","","","","","","","",""
"pit-trial","8","133068","0.0-2.0-4.0-0.0","battery-v0.2","","","62.60000000055879","","","10","1004","885","&#9784;","elianto","#FFFFF080"," "," ","1","&#10004","[912.7999999998137]","1","0","0","","","","","","","","",""
"pit-trial","9","136369","0.0-2.0-4.1-0.1","battery-v0.2","","","445.20000000018626","","","10","1004","885","&#9784;","elianto","#FFFFF080"," "," ","1","&#10004","[1295.699999999255]","1","0","0","","","","","","","","",""
"pit-trial","10","139677","0.0-2.0-4.2-0.2","battery-v0.2","","","452","","","10","1004","885","&#9784;","elianto","#FFFFF080"," "," ","1","&#10004","[1303.8999999994412]","1","0","0","","","","","","","","",""
"pit-trial","11","143177","0.0-2.0-4.3-0.3","battery-v0.2","","","645.3000000007451","","","10","1004","885","&#9784;","elianto","#FFFFF080"," "," ","1","&#10004","[1495.6000000005588]","1","0","0","","","","","","","","",""
"pit-trial","12","146810","0.0-2.0-4.4-0.4","battery-v0.2","","","777.8000000007451","","","10","1004","885","&#9784;","elianto","#FFFFF080"," "," ","1","&#10004","[1628.300000000745]","1","0","0","","","","","","","","",""
"pit-instructions","13","170379","0.0-2.0-5.0","battery-v0.2","","[{""page_index"":0,""viewing_time"":5881.9000000003725},{""page_index"":1,""viewing_time"":6026.399999999441},{""page_index"":2,""viewing_time"":5026},{""page_index"":3,""viewing_time"":6628}]","23562.900000000373","","","","","","","","","","","","","","","","","","","","","","","","",""
"pit-trial","14","175234","0.0-2.0-6.0-0.0","battery-v0.2","","","-1","","","10","1004","885","&#9854;","elianto","#FFFFF080","-1","-1","1","&#10004","[]","0","0","1","","","","","","","","",""
"pit-trial","15","180089","0.0-2.0-6.1-0.1","battery-v0.2","","","-1","","","10","1004","885","&#9854;","elianto","#FFFFF080","-1","-1","1","&#10004","[]","0","0","1","","","","","","","","",""
"pit-trial","16","184944","0.0-2.0-6.2-0.2","battery-v0.2","","","-1","","","10","1004","885","&#9854;","elianto","#FFFFF080","-1","-1","1","&#10004","[]","0","0","1","","","","","","","","",""
"pit-trial","17","189798","0.0-2.0-6.3-0.3","battery-v0.2","","","-1","","","10","1004","885","&#9854;","elianto","#FFFFF080","-1","-1","1","&#10004","[]","0","0","1","","","","","","","","",""
"pit-trial","18","194653","0.0-2.0-6.4-0.4","battery-v0.2","","","-1","","","10","1004","885","&#9854;","elianto","#FFFFF080","-1","-1","1","&#10004","[]","0","0","1","","","","","","","","",""
"pit-instructions","19","329129","0.0-2.0-7.0","battery-v0.2","","[{""page_index"":0,""viewing_time"":6695.100000000559},{""page_index"":1,""viewing_time"":7026.0999999996275},{""page_index"":2,""viewing_time"":7156.4000000003725},{""page_index"":3,""viewing_time"":12151},{""page_index"":4,""viewing_time"":7166.199999999255},{""page_index"":5,""viewing_time"":6607.100000000559},{""page_index"":6,""viewing_time"":5055.899999999441},{""page_index"":7,""viewing_time"":8600.100000000559},{""page_index"":8,""viewing_time"":7368.5999999996275},{""page_index"":9,""viewing_time"":6887.700000000186},{""page_index"":10,""viewing_time"":8651.200000000186},{""page_index"":11,""viewing_time"":5106.5},{""page_index"":12,""viewing_time"":7500.200000000186},{""page_index"":13,""viewing_time"":7729.5},{""page_index"":14,""viewing_time"":7829.299999999814},{""page_index"":15,""viewing_time"":7458.0999999996275},{""page_index"":16,""viewing_time"":6999.200000000186},{""page_index"":17,""viewing_time"":8481.5}]","134470.7999999998","","","","","","","","","","","","","","","","","","","","","","","","",""
"pit-trial","20","332545","0.0-2.0-8.0-0.0","battery-v0.2","","","559.7999999998137","","","10","1004","885","&#9776;","elianto","#3366ff99"," "," ","1","+10","[1409.9000000003725]","1","0","1","","","","","","","","",""
"pit-trial","21","335725","0.0-2.0-8.0-1.0","battery-v0.2","","","325.70000000018626","","","10","1004","885","&#9776;","elianto","#3366ff99"," "," ","1","+10","[1175.7000000001863]","1","0","1","","","","","","","","",""
"pit-trial","22","338964","0.0-2.0-8.0-2.0","battery-v0.2","","","384.29999999981374","","","10","1004","885","&#9776;","elianto","#3366ff99"," "," ","1","+10","[1234.5999999996275]","1","0","1","","","","","","","","",""
"pit-trial","23","342115","0.0-2.0-8.0-3.0","battery-v0.2","","","296.80000000074506","","","10","1004","885","&#9776;","elianto","#3366ff99"," "," ","1","0","[1147.1000000005588]","1","0","1","","","","","","","","",""
"pit-trial","24","345365","0.0-2.0-8.0-4.0","battery-v0.2","","","394.70000000018626","","","10","1004","885","&#9776;","elianto","#3366ff99"," "," ","1","+10","[1246.7000000001863]","1","0","1","","","","","","","","",""
"call-function","25","345368","0.0-2.0-9.0","battery-v0.2","","","","","","","","","","","","","","","","","","","","","","","","","","","",""
"pit-instructions","26","393845","0.0-2.0-10.0","battery-v0.2","","[{""page_index"":0,""viewing_time"":7734.5999999996275},{""page_index"":1,""viewing_time"":7739.600000000559},{""page_index"":2,""viewing_time"":12220.799999999814},{""page_index"":3,""viewing_time"":11133},{""page_index"":4,""viewing_time"":9648.200000000186}]","48476.799999999814","","","","","","","","","","","","","","","","","","","","","","","","",""
"pit-trial","27","398700","0.0-2.0-11.0-0.0","battery-v0.2","","","-1","","","10","1004","885","&#9761;","elianto","#3366ff99","-1","-1","1","+10","[]","0","0","2","","","","","","","","",""
"pit-trial","28","403557","0.0-2.0-11.0-1.0","battery-v0.2","","","-1","","","10","1004","885","&#9761;","elianto","#3366ff99","-1","-1","1","+10","[]","0","0","2","","","","","","","","",""
"pit-trial","29","408411","0.0-2.0-11.0-2.0","battery-v0.2","","","-1","","","10","1004","885","&#9761;","elianto","#3366ff99","-1","-1","1","+10","[]","0","0","2","","","","","","","","",""
"pit-trial","30","412335","0.0-2.0-11.0-3.0","battery-v0.2","","","1071.1000000005588","","","10","1004","885","&#9761;","elianto","#3366ff99","-1"," ","0","+10","[1921.2000000001863]","1","0","2","","","","","","","","",""
"pit-trial","31","417189","0.0-2.0-11.0-4.0","battery-v0.2","","","-1","","","10","1004","885","&#9761;","elianto","#3366ff99","-1","-1","1","+10","[]","0","0","2","","","","","","","","",""
"pit-trial","32","422045","0.0-2.0-11.1-0.1","battery-v0.2","","","-1","","","10","1004","885","&#9761;","elianto","#3366ff99","-1","-1","1","+10","[]","0","0","2","","","","","","","","",""
"pit-trial","33","426296","0.0-2.0-11.1-1.1","battery-v0.2","","","1394.199999999255","","","10","1004","885","&#9761;","elianto","#3366ff99","-1"," ","0","0","[2247.5]","1","0","2","","","","","","","","",""
"pit-trial","34","431150","0.0-2.0-11.1-2.1","battery-v0.2","","","-1","","","10","1004","885","&#9761;","elianto","#3366ff99","-1","-1","1","+10","[]","0","0","2","","","","","","","","",""
"pit-trial","35","434319","0.0-2.0-11.1-3.1","battery-v0.2","","","314.80000000074506","","","10","1004","885","&#9761;","elianto","#3366ff99","-1"," ","0","+10","[1165.1000000005588]","1","0","2","","","","","","","","",""
"pit-trial","36","439173","0.0-2.0-11.1-4.1","battery-v0.2","","","-1","","","10","1004","885","&#9761;","elianto","#3366ff99","-1","-1","1","+10","[]","0","0","2","","","","","","","","",""
"pit-trial","37","443971","0.0-2.0-11.2-0.2","battery-v0.2","","","1944.3999999994412","","","10","1004","885","&#9761;","elianto","#3366ff99","-1"," ","0","0","[2794.5999999996275]","1","0","2","","","","","","","","",""
"pit-trial","38","448824","0.0-2.0-11.2-1.2","battery-v0.2","","","-1","","","10","1004","885","&#9761;","elianto","#3366ff99","-1","-1","1","+10","[]","0","0","2","","","","","","","","",""
"pit-trial","39","453677","0.0-2.0-11.2-2.2","battery-v0.2","","","-1","","","10","1004","885","&#9761;","elianto","#3366ff99","-1","-1","1","+10","[]","0","0","2","","","","","","","","",""
"pit-trial","40","458531","0.0-2.0-11.2-3.2","battery-v0.2","","","-1","","","10","1004","885","&#9761;","elianto","#3366ff99","-1","-1","1","0","[4023.5]","1","0","2","","","","","","","","",""
"pit-trial","41","463385","0.0-2.0-11.2-4.2","battery-v0.2","","","-1","","","10","1004","885","&#9761;","elianto","#3366ff99","-1","-1","1","+10","[]","0","0","2","","","","","","","","",""
"call-function","42","463387","0.0-2.0-12.0","battery-v0.2","","","","","","","","","","","","","","","","","","","","","","","","","","","",""
"pit-instructions","43","499010","0.0-2.0-13.0","battery-v0.2","","[{""page_index"":0,""viewing_time"":6156.5999999996275},{""page_index"":1,""viewing_time"":8985.799999999814},{""page_index"":2,""viewing_time"":3367.4000000003725},{""page_index"":3,""viewing_time"":11451.099999999627},{""page_index"":4,""viewing_time"":5660.299999999814}]","35621.89999999944","","","","","","","","","","","","","","","","","","","","","","","","",""
"pit-trial","44","503863","0.0-2.0-14.0-0.0","battery-v0.2","","","-1","","","10","1004","885","&#9826;","elianto","#f73b6a7A","-1","-1","1","0","[]","0","0","3","","","","","","","","",""
"pit-trial","45","508717","0.0-2.0-14.0-1.0","battery-v0.2","","","-1","","","10","1004","885","&#9826;","elianto","#f73b6a7A","-1","-1","1","0","[]","0","0","3","","","","","","","","",""
"pit-trial","46","513571","0.0-2.0-14.0-2.0","battery-v0.2","","","-1","","","10","1004","885","&#9826;","elianto","#f73b6a7A","-1","-1","1","0","[]","0","0","3","","","","","","","","",""
"pit-trial","47","516993","0.0-2.0-14.0-3.0","battery-v0.2","","","567","","","10","1004","885","&#9826;","elianto","#f73b6a7A","-1"," ","0","0","[1418.2000000001863]","1","0","3","","","","","","","","",""
"pit-trial","48","521847","0.0-2.0-14.0-4.0","battery-v0.2","","","-1","","","10","1004","885","&#9826;","elianto","#f73b6a7A","-1","-1","1","0","[]","0","0","3","","","","","","","","",""
"pit-trial","49","526703","0.0-2.0-14.1-0.1","battery-v0.2","","","-1","","","10","1004","885","&#9826;","elianto","#f73b6a7A","-1","-1","1","0","[]","0","0","3","","","","","","","","",""
"pit-trial","50","531557","0.0-2.0-14.1-1.1","battery-v0.2","","","-1","","","10","1004","885","&#9826;","elianto","#f73b6a7A","-1","-1","1","0","[]","0","0","3","","","","","","","","",""
"pit-trial","51","534907","0.0-2.0-14.1-2.1","battery-v0.2","","","496","","","10","1004","885","&#9826;","elianto","#f73b6a7A","-1"," ","0","-10","[1346]","1","0","3","","","","","","","","",""
"pit-trial","52","539761","0.0-2.0-14.1-3.1","battery-v0.2","","","-1","","","10","1004","885","&#9826;","elianto","#f73b6a7A","-1","-1","1","-10","[]","0","0","3","","","","","","","","",""
"pit-trial","53","544615","0.0-2.0-14.1-4.1","battery-v0.2","","","-1","","","10","1004","885","&#9826;","elianto","#f73b6a7A","-1","-1","1","0","[]","0","0","3","","","","","","","","",""
"pit-trial","54","549471","0.0-2.0-14.2-0.2","battery-v0.2","","","-1","","","10","1004","885","&#9826;","elianto","#f73b6a7A","-1","-1","1","0","[]","0","0","3","","","","","","","","",""
"pit-trial","55","554325","0.0-2.0-14.2-1.2","battery-v0.2","","","-1","","","10","1004","885","&#9826;","elianto","#f73b6a7A","-1","-1","1","0","[]","0","0","3","","","","","","","","",""
"pit-trial","56","559178","0.0-2.0-14.2-2.2","battery-v0.2","","","-1","","","10","1004","885","&#9826;","elianto","#f73b6a7A","-1","-1","1","0","[]","0","0","3","","","","","","","","",""
"pit-trial","57","562603","0.0-2.0-14.2-3.2","battery-v0.2","","","572.5","","","10","1004","885","&#9826;","elianto","#f73b6a7A","-1"," ","0","0","[1422.5999999996275]","1","0","3","","","","","","","","",""
"pit-trial","58","567457","0.0-2.0-14.2-4.2","battery-v0.2","","","-1","","","10","1004","885","&#9826;","elianto","#f73b6a7A","-1","-1","1","0","[]","0","0","3","","","","","","","","",""
"pit-trial","59","572311","0.0-2.0-14.3-0.3","battery-v0.2","","","-1","","","10","1004","885","&#9826;","elianto","#f73b6a7A","-1","-1","1","0","[]","0","0","3","","","","","","","","",""
"pit-trial","60","577165","0.0-2.0-14.3-1.3","battery-v0.2","","","-1","","","10","1004","885","&#9826;","elianto","#f73b6a7A","-1","-1","1","0","[]","0","0","3","","","","","","","","",""
"pit-trial","61","581306","0.0-2.0-14.3-2.3","battery-v0.2","","","1284.5","","","10","1004","885","&#9826;","elianto","#f73b6a7A","-1"," ","0","-10","[2137.7999999998137]","1","0","3","","","","","","","","",""
"pit-trial","62","584721","0.0-2.0-14.3-3.3","battery-v0.2","","","561.0999999996275","","","10","1004","885","&#9826;","elianto","#f73b6a7A","-1"," ","0","0","[1411.2999999998137]","1","0","3","","","","","","","","",""
"pit-trial","63","589574","0.0-2.0-14.3-4.3","battery-v0.2","","","-1","","","10","1004","885","&#9826;","elianto","#f73b6a7A","-1","-1","1","0","[]","0","0","3","","","","","","","","",""
"pit-trial","64","594428","0.0-2.0-14.4-0.4","battery-v0.2","","","-1","","","10","1004","885","&#9826;","elianto","#f73b6a7A","-1","-1","1","0","[]","0","0","3","","","","","","","","",""
"pit-trial","65","599282","0.0-2.0-14.4-1.4","battery-v0.2","","","-1","","","10","1004","885","&#9826;","elianto","#f73b6a7A","-1","-1","1","0","[]","0","0","3","","","","","","","","",""
"pit-trial","66","602927","0.0-2.0-14.4-2.4","battery-v0.2","","","789","","","10","1004","885","&#9826;","elianto","#f73b6a7A","-1"," ","0","-10","[1641.7000000001863]","1","0","3","","","","","","","","",""
"pit-trial","67","606022","0.0-2.0-14.4-3.4","battery-v0.2","","","238.6000000005588","","","10","1004","885","&#9826;","elianto","#f73b6a7A","-1"," ","0","0","[1089.300000000745,2109.7000000001863]","2","0","3","","","","","","","","",""
"pit-trial","68","610876","0.0-2.0-14.4-4.4","battery-v0.2","","","-1","","","10","1004","885","&#9826;","elianto","#f73b6a7A","-1","-1","1","0","[]","0","0","3","","","","","","","","",""
"pit-instructions","69","635895","0.0-2.0-14.4-5.4-0.4","battery-v0.2","","[{""page_index"":0,""viewing_time"":7183.5999999996275},{""page_index"":1,""viewing_time"":6202.200000000186},{""page_index"":2,""viewing_time"":11630.700000000186}]","25017.5","","","","","","","","","","","","","","","","","","","","","","","","",""
"pit-trial","70","640751","0.0-2.0-14.5-0.5","battery-v0.2","","","-1","","","10","1004","885","&#9826;","elianto","#f73b6a7A","-1","-1","1","0","[]","0","0","3","","","","","","","","",""
"pit-trial","71","645606","0.0-2.0-14.5-1.5","battery-v0.2","","","-1","","","10","1004","885","&#9826;","elianto","#f73b6a7A","-1","-1","1","0","[]","0","0","3","","","","","","","","",""
"pit-trial","72","650460","0.0-2.0-14.5-2.5","battery-v0.2","","","-1","","","10","1004","885","&#9826;","elianto","#f73b6a7A","-1","-1","1","0","[]","0","0","3","","","","","","","","",""
"pit-trial","73","655314","0.0-2.0-14.5-3.5","battery-v0.2","","","-1","","","10","1004","885","&#9826;","elianto","#f73b6a7A","-1","-1","1","-10","[]","0","0","3","","","","","","","","",""
"pit-trial","74","660168","0.0-2.0-14.5-4.5","battery-v0.2","","","-1","","","10","1004","885","&#9826;","elianto","#f73b6a7A","-1","-1","1","0","[]","0","0","3","","","","","","","","",""
"call-function","75","660171","0.0-2.0-15.0","battery-v0.2","","","","","","","","","","","","","","","","","","","","","","","","","","","",""
"pit-instructions","76","688958","0.0-2.0-16.0","battery-v0.2","","[{""page_index"":0,""viewing_time"":7578.299999999814},{""page_index"":1,""viewing_time"":9722.599999999627},{""page_index"":2,""viewing_time"":5693.300000000745},{""page_index"":3,""viewing_time"":5791.299999999814}]","28786.299999999814","","","","","","","","","","","","","","","","","","","","","","","","",""
"pit-trial","77","692142","0.0-2.0-17.0-0.0","battery-v0.2","","","329.29999999981374","","","10","1004","885","&#9789;","elianto","#f73b6a7A"," "," ","1","0","[1179.5]","1","0","4","","","","","","","","",""
"pit-trial","78","695257","0.0-2.0-17.0-1.0","battery-v0.2","","","260.6000000005588","","","10","1004","885","&#9789;","elianto","#f73b6a7A"," "," ","1","0","[1110.800000000745]","1","0","4","","","","","","","","",""
"pit-trial","79","698428","0.0-2.0-17.0-2.0","battery-v0.2","","","317.8999999994412","","","10","1004","885","&#9789;","elianto","#f73b6a7A"," "," ","1","0","[1168]","1","0","4","","","","","","","","",""
"pit-trial","80","701955","0.0-2.0-17.0-3.0","battery-v0.2","","","673.3000000007451","","","10","1004","885","&#9789;","elianto","#f73b6a7A"," "," ","1","-10","[1523.5]","1","0","4","","","","","","","","",""
"pit-trial","81","705129","0.0-2.0-17.0-4.0","battery-v0.2","","","320.20000000018626","","","10","1004","885","&#9789;","elianto","#f73b6a7A"," "," ","1","0","[581.3999999994412,1170.3999999994412]","2","0","4","","","","","","","","",""
"call-function","82","705132","0.0-2.0-18.0","battery-v0.2","","","","","","","","","","","","","","","","","","","","","","","","","","","",""
"pit-instructions","83","781945","0.0-2.0-19.0","battery-v0.2","","[{""page_index"":0,""viewing_time"":7027.4000000003725},{""page_index"":1,""viewing_time"":7446.700000000186},{""page_index"":2,""viewing_time"":14556},{""page_index"":3,""viewing_time"":9223},{""page_index"":4,""viewing_time"":9581},{""page_index"":5,""viewing_time"":8399.199999999255},{""page_index"":6,""viewing_time"":9470.5},{""page_index"":7,""viewing_time"":6377.300000000745},{""page_index"":8,""viewing_time"":4730.5}]","76812.20000000019","","","","","","","","","","","","","","","","","","","","","","","","",""
"pit-comprehension","84","789567","0.0-2.0-20.0-0.0","battery-v0.2","","","7614.899999999441","[""SPACE""]","0","10","1004","885","","","","","","","","","","","","","","","","","","","",""
"pit-instructions","85","792942","0.0-2.0-20.0-1.0","battery-v0.2","","[{""page_index"":0,""viewing_time"":3345.800000000745}]","3346.5","","","","","","","","","","","","","","","","","","","","","","","","",""
"pit-comprehension","86","802189","0.0-2.0-21.0-0.0","battery-v0.2","","","9240.5","[""10""]","0","10","1004","885","","","","","","","","","","","","","","","","","","","",""
"pit-instructions","87","804321","0.0-2.0-21.0-1.0","battery-v0.2","","[{""page_index"":0,""viewing_time"":2101.5999999996275}]","2102.5","","","","","","","","","","","","","","","","","","","","","","","","",""
"pit-comprehension","88","812845","0.0-2.0-22.0-0.0","battery-v0.2","","","8516.100000000559","[""0""]","0","10","1004","885","","","","","","","","","","","","","","","","","","","",""
"pit-instructions","89","814707","0.0-2.0-22.0-1.0","battery-v0.2","","[{""page_index"":0,""viewing_time"":1834.5999999996275}]","1835.199999999255","","","","","","","","","","","","","","","","","","","","","","","","",""
"pit-comprehension","90","824271","0.0-2.0-23.0-0.0","battery-v0.2","","","9557.799999999814","[""True""]","0","10","1004","885","","","","","","","","","","","","","","","","","","","",""
"pit-instructions","91","826196","0.0-2.0-23.0-1.0","battery-v0.2","","[{""page_index"":0,""viewing_time"":1895.5}]","1896.4000000003725","","","","","","","","","","","","","","","","","","","","","","","","",""
"pit-comprehension","92","833907","0.0-2.0-24.0-0.0","battery-v0.2","","","7704.4000000003725","[""True""]","0","10","1004","885","","","","","","","","","","","","","","","","","","","",""
"pit-instructions","93","837487","0.0-2.0-24.0-1.0","battery-v0.2","","[{""page_index"":0,""viewing_time"":3548.100000000559}]","3548.7000000001863","","","","","","","","","","","","","","","","","","","","","","","","",""
"pit-comprehension","94","844717","0.0-2.0-25.0-0.0","battery-v0.2","","","7223.0999999996275","[""True""]","0","10","1004","885","","","","","","","","","","","","","","","","","","","",""
"pit-instructions","95","846551","0.0-2.0-25.0-1.0","battery-v0.2","","[{""page_index"":0,""viewing_time"":1802.7999999998137}]","1803.5999999996275","","","","","","","","","","","","","","","","","","","","","","","","",""
"pit-comprehension","96","858352","0.0-2.0-26.0-0.0","battery-v0.2","","","11792.599999999627","[""False""]","0","10","1004","885","","","","","","","","","","","","","","","","","","","",""
"pit-instructions","97","860657","0.0-2.0-26.0-1.0","battery-v0.2","","[{""page_index"":0,""viewing_time"":2276.899999999441}]","2277.699999999255","","","","","","","","","","","","","","","","","","","","","","","","",""
"pit-instructions","98","880358","0.0-3.0","battery-v0.2","","[{""page_index"":0,""viewing_time"":4627.9000000003725},{""page_index"":1,""viewing_time"":6025.700000000186},{""page_index"":2,""viewing_time"":9042.199999999255}]","19696.5","","","","","","","","","","","","","","","","","","","","","","","","",""
"pit-trial","99","884487","0.0-4.0","battery-v0.2","","","1270.5","","","10","1004","885","&#9733;","elianto","#3366ff99","-1"," ","0","0","[2120.5999999996275]","1","1","","","1004","1","2","2","win","no-go","0","[]"
"pit-trial","100","889257","0.0-5.0","battery-v0.2","","","1916.3999999994412","","","10","1004","885","&#9730;","elianto","#3366ff99"," "," ","1","0","[2766.5]","1","1","","","1004","2","1","1","win","go","1","0"
"pit-trial","101","894112","0.0-6.0","battery-v0.2","","","-1","","","10","1004","885","&#9752;","elianto","#f73b6a7A"," ","-1","0","-10","[]","0","1","","","1004","3","3","3","lose","go","0","0"
"pit-trial","102","898278","0.0-7.0","battery-v0.2","","","1312.6000000005588","","","10","1004","885","&#9728;","elianto","#f73b6a7A","-1"," ","0","-10","[2162.699999999255]","1","1","","","1004","4","0","4","lose","no-go","0","0"
"pit-trial","103","903133","0.0-8.0","battery-v0.2","","","-1","","","10","1004","885","&#9728;","elianto","#f73b6a7A","-1","-1","1","-10","[]","0","1","","","1004","5","0","4","lose","no-go","1","0"
"pit-trial","104","907145","0.0-9.0","battery-v0.2","","","1157.1000000005588","","","10","1004","885","&#9730;","elianto","#3366ff99"," "," ","1","+10","[2007.2999999998137]","1","1","","","1004","6","1","1","win","go","0","0"
"pit-trial","105","911999","0.0-10.0","battery-v0.2","","","-1","","","10","1004","885","&#9752;","elianto","#f73b6a7A"," ","-1","0","-10","[]","0","1","","","1004","7","3","3","lose","go","0","0"
"pit-trial","106","915526","0.0-11.0","battery-v0.2","","","673.5","","","10","1004","885","&#9733;","elianto","#3366ff99","-1"," ","0","+10","[1523.7000000001863]","1","1","","","1004","8","2","2","win","no-go","1","0"
"pit-trial","107","919279","0.0-12.0","battery-v0.2","","","899.4000000003725","","","10","1004","885","&#9730;","elianto","#3366ff99"," "," ","1","+10","[1750.2999999998137]","1","1","","","1004","9","1","1","win","go","0","0"
"pit-trial","108","922765","0.0-13.0","battery-v0.2","","","631.2000000001863","","","10","1004","885","&#9733;","elianto","#3366ff99","-1"," ","0","0","[1481.5]","1","1","","","1004","10","2","2","win","no-go","0","0"
"pit-trial","109","926803","0.0-14.0","battery-v0.2","","","1183.7000000001863","","","10","1004","885","&#9752;","elianto","#f73b6a7A"," "," ","1","0","[2033.7999999998137]","1","1","","","1004","11","3","3","lose","go","0","0"
"pit-trial","110","931071","0.0-15.0","battery-v0.2","","","1414.4000000003725","","","10","1004","885","&#9728;","elianto","#f73b6a7A","-1"," ","0","0","[2264.399999999441]","1","1","","","1004","12","0","4","lose","no-go","1","0"
"pit-trial","111","934576","0.0-16.0","battery-v0.2","","","649.2999999998137","","","10","1004","885","&#9752;","elianto","#f73b6a7A"," "," ","1","-10","[1501.0999999996275,1951.9000000003725]","2","1","","","1004","13","3","3","lose","go","1","0"
"pit-trial","112","938371","0.0-17.0","battery-v0.2","","","940.2999999998137","","","10","1004","885","&#9730;","elianto","#3366ff99"," "," ","1","+10","[1790.5]","1","1","","","1004","14","1","1","win","go","0","0"
"pit-trial","113","943225","0.0-18.0","battery-v0.2","","","-1","","","10","1004","885","&#9728;","elianto","#f73b6a7A","-1","-1","1","0","[]","0","1","","","1004","15","0","4","lose","no-go","0","0"
"pit-trial","114","947078","0.0-19.0","battery-v0.2","","","998.5","","","10","1004","885","&#9733;","elianto","#3366ff99","-1"," ","0","0","[1848.7000000001863]","1","1","","","1004","16","2","2","win","no-go","0","0"
"pit-trial","115","951878","0.0-20.0","battery-v0.2","","","1946.2000000001863","","","10","1004","885","&#9728;","elianto","#f73b6a7A","-1"," ","0","-10","[2796.5]","1","1","","","1004","17","0","4","lose","no-go","0","0"
"pit-trial","116","956731","0.0-21.0","battery-v0.2","","","-1","","","10","1004","885","&#9733;","elianto","#3366ff99","-1","-1","1","0","[]","0","1","","","1004","18","2","2","win","no-go","1","0"
"pit-trial","117","961585","0.0-22.0","battery-v0.2","","","-1","","","10","1004","885","&#9752;","elianto","#f73b6a7A"," ","-1","0","-10","[]","0","1","","","1004","19","3","3","lose","go","0","0"
"pit-trial","118","966438","0.0-23.0","battery-v0.2","","","-1","","","10","1004","885","&#9730;","elianto","#3366ff99"," ","-1","0","0","[]","0","1","","","1004","20","1","1","win","go","0","0"
"pit-instructions","119","1004332","0.0-24.0","battery-v0.2","","[{""page_index"":0,""viewing_time"":13632.399999999441},{""page_index"":1,""viewing_time"":24259.299999999814}]","37892.199999999255","","","","","","","","","","","","","","","","","","","","","","","","",""
"pit-trial","120","1008097","0.0-25.0","battery-v0.2","","","909.2000000001863","","","10","1004","885","y","elianto","#3366ff99"," "," ","1","+10","[1759.2000000001863]","1","2","","","1004","21","2","1","win","go","0","0"
"pit-trial","121","1011706","0.0-26.0","battery-v0.2","","","755.2999999998137","","","10","1004","885","h","elianto","#f73b6a7A"," "," ","1","0","[1605.5999999996275]","1","2","","","1004","22","3","3","lose","go","0","0"
"pit-trial","122","1015520","0.0-27.0","battery-v0.2","","","959.7000000001863","","","10","1004","885","r","elianto","#3366ff99","-1"," ","0","0","[1809.9000000003725]","1","2","","","1004","23","1","2","win","no-go","0","0"
"pit-trial","123","1019278","0.0-28.0","battery-v0.2","","","904.3999999994412","","","10","1004","885","m","elianto","#3366ff99","-1"," ","0","0","[1754.7000000001863]","1","2","","","1004","24","0","2","win","no-go","0","0"
"pit-trial","124","1023208","0.0-29.0","battery-v0.2","","","1077.300000000745","","","10","1004","885","y","elianto","#3366ff99"," "," ","1","+10","[1927.3999999994412]","1","2","","","1004","25","2","1","win","go","0","0"
"pit-trial","125","1028062","0.0-30.0","battery-v0.2","","","-1","","","10","1004","885","h","elianto","#f73b6a7A"," ","-1","0","-10","[540.2999999998137]","1","2","","","1004","26","3","3","lose","go","0","0"
"pit-trial","126","1032916","0.0-31.0","battery-v0.2","","","-1","","","10","1004","885","m","elianto","#3366ff99","-1","-1","1","+10","[]","0","2","","","1004","27","0","2","win","no-go","0","0"
"pit-trial","127","1037770","0.0-32.0","battery-v0.2","","","-1","","","10","1004","885","r","elianto","#3366ff99","-1","-1","1","+10","[]","0","2","","","1004","28","1","2","win","no-go","0","0"
"pit-trial","128","1042623","0.0-33.0","battery-v0.2","","","-1","","","10","1004","885","m","elianto","#3366ff99","-1","-1","1","+10","[]","0","2","","","1004","29","0","2","win","no-go","0","0"
"pit-trial","129","1047478","0.0-34.0","battery-v0.2","","","-1","","","10","1004","885","r","elianto","#3366ff99","-1","-1","1","0","[]","0","2","","","1004","30","1","2","win","no-go","1","0"
"pit-trial","130","1051699","0.0-35.0","battery-v0.2","","","1367.0999999996275","","","10","1004","885","h","elianto","#f73b6a7A"," "," ","1","0","[2217.5,3875.7000000001863]","2","2","","","1004","31","3","3","lose","go","0","0"
"pit-trial","131","1055237","0.0-36.0","battery-v0.2","","","684","","","10","1004","885","y","elianto","#3366ff99"," "," ","1","+10","[1534.199999999255]","1","2","","","1004","32","2","1","win","go","0","0"
"pit-trial","132","1060091","0.0-37.0","battery-v0.2","","","-1","","","10","1004","885","m","elianto","#3366ff99","-1","-1","1","+10","[2865.7000000001863]","1","2","","","1004","33","0","2","win","no-go","0","0"
"pit-trial","133","1063946","0.0-38.0","battery-v0.2","","","1000.9000000003725","","","10","1004","885","y","elianto","#3366ff99"," "," ","1","+10","[1851.1000000005588]","1","2","","","1004","34","2","1","win","go","0","0"
"pit-trial","134","1068308","0.0-39.0","battery-v0.2","","","1507.5999999996275","","","10","1004","885","h","elianto","#f73b6a7A"," "," ","1","0","[2357.7000000001863]","1","2","","","1004","35","3","3","lose","go","0","0"
"pit-trial","135","1072685","0.0-40.0","battery-v0.2","","","1521.2999999998137","","","10","1004","885","r","elianto","#3366ff99","-1"," ","0","0","[2371.699999999255]","1","2","","","1004","36","1","2","win","no-go","0","0"
"pit-trial","136","1076752","0.0-41.0","battery-v0.2","","","1213.0999999996275","","","10","1004","885","h","elianto","#f73b6a7A"," "," ","1","0","[2063.399999999441]","1","2","","","1004","37","3","3","lose","go","0","0"
"pit-trial","137","1080553","0.0-42.0","battery-v0.2","","","942.9000000003725","","","10","1004","885","y","elianto","#3366ff99"," "," ","1","+10","[1796.9000000003725]","1","2","","","1004","38","2","1","win","go","0","0"
"pit-trial","138","1085407","0.0-43.0","battery-v0.2","","","-1","","","10","1004","885","r","elianto","#3366ff99","-1","-1","1","+10","[]","0","2","","","1004","39","1","2","win","no-go","0","0"
"pit-trial","139","1089723","0.0-44.0","battery-v0.2","","","1461.2000000001863","","","10","1004","885","m","elianto","#3366ff99","-1"," ","0","0","[2311.2999999998137]","1","2","","","1004","40","0","2","win","no-go","0","0"
"pit-trial","140","1093665","0.0-45.0","battery-v0.2","","","1088.7999999998137","","","10","1004","885","y","elianto","#3366ff99"," "," ","1","+10","[1939]","1","2","","","1004","41","2","1","win","go","0","0"
"pit-trial","141","1098361","0.0-46.0","battery-v0.2","","","1840.4000000003725","","","10","1004","885","h","elianto","#f73b6a7A"," "," ","1","0","[2691.5]","1","2","","","1004","42","3","3","lose","go","0","0"
"pit-trial","142","1103216","0.0-47.0","battery-v0.2","","","-1","","","10","1004","885","r","elianto","#3366ff99","-1","-1","1","0","[3545.5]","1","2","","","1004","43","1","2","win","no-go","1","0"
"pit-trial","143","1108071","0.0-48.0","battery-v0.2","","","-1","","","10","1004","885","m","elianto","#3366ff99","-1","-1","1","+10","[3046.100000000559]","1","2","","","1004","44","0","2","win","no-go","0","0"
"pit-trial","144","1112406","0.0-49.0","battery-v0.2","","","1481.4000000003725","","","10","1004","885","h","elianto","#f73b6a7A"," "," ","1","0","[2331.7000000001863]","1","2","","","1004","45","3","3","lose","go","0","0"
"pit-trial","145","1116315","0.0-50.0","battery-v0.2","","","1056.5","","","10","1004","885","r","elianto","#3366ff99","-1"," ","0","0","[1906.7000000001863]","1","2","","","1004","46","1","2","win","no-go","0","0"
"pit-trial","146","1120994","0.0-51.0","battery-v0.2","","","1824.9000000003725","","","10","1004","885","m","elianto","#3366ff99","-1"," ","0","0","[2675]","1","2","","","1004","47","0","2","win","no-go","0","0"
"pit-trial","147","1124702","0.0-52.0","battery-v0.2","","","855.3000000007451","","","10","1004","885","y","elianto","#3366ff99"," "," ","1","+10","[1705.5]","1","2","","","1004","48","2","1","win","go","0","0"
"pit-trial","148","1129556","0.0-53.0","battery-v0.2","","","-1","","","10","1004","885","r","elianto","#3366ff99","-1","-1","1","+10","[]","0","2","","","1004","49","1","2","win","no-go","0","0"
"pit-trial","149","1133505","0.0-54.0","battery-v0.2","","","1094","","","10","1004","885","h","elianto","#f73b6a7A"," "," ","1","0","[1945.2000000001863,3630.2999999998137]","2","2","","","1004","50","3","3","lose","go","0","0"
"pit-trial","150","1137244","0.0-55.0","battery-v0.2","","","885.4000000003725","","","10","1004","885","y","elianto","#3366ff99"," "," ","1","0","[1735.9000000003725]","1","2","","","1004","51","2","1","win","go","1","0"
"pit-trial","151","1142097","0.0-56.0","battery-v0.2","","","-1","","","10","1004","885","m","elianto","#3366ff99","-1","-1","1","+10","[]","0","2","","","1004","52","0","2","win","no-go","0","0"
"pit-trial","152","1146952","0.0-57.0","battery-v0.2","","","-1","","","10","1004","885","c","elianto","#f73b6a7A"," ","-1","0","0","[]","0","2","","","1004","53","5","3","lose","go","1","0"
"pit-trial","153","1151095","0.0-58.0","battery-v0.2","","","1290","","","10","1004","885","y","elianto","#3366ff99"," "," ","1","0","[2140.100000000559]","1","2","","","1004","54","2","1","win","go","1","0"
"pit-trial","154","1155930","0.0-59.0","battery-v0.2","","","1979.7999999998137","","","10","1004","885","z","elianto","#f73b6a7A","-1"," ","0","-10","[2831.199999999255]","1","2","","","1004","55","4","4","lose","no-go","0","0"
"pit-trial","155","1160784","0.0-60.0","battery-v0.2","","","-1","","","10","1004","885","m","elianto","#3366ff99","-1","-1","1","+10","[]","0","2","","","1004","56","0","2","win","no-go","0","0"
"pit-trial","156","1165638","0.0-61.0","battery-v0.2","","","-1","","","10","1004","885","m","elianto","#3366ff99","-1","-1","1","0","[]","0","2","","","1004","57","0","2","win","no-go","1","0"
"pit-trial","157","1170492","0.0-62.0","battery-v0.2","","","-1","","","10","1004","885","z","elianto","#f73b6a7A","-1","-1","1","-10","[3691.5]","1","2","","","1004","58","4","4","lose","no-go","1","0"
"pit-trial","158","1174555","0.0-63.0","battery-v0.2","","","1207.8999999994412","","","10","1004","885","y","elianto","#3366ff99"," "," ","1","+10","[2059.2000000001863]","1","2","","","1004","59","2","1","win","go","0","0"
"pit-trial","159","1179301","0.0-64.0","battery-v0.2","","","1891.2999999998137","","","10","1004","885","c","elianto","#f73b6a7A"," "," ","1","0","[2743.0999999996275]","1","2","","","1004","60","5","3","lose","go","0","0"
"pit-trial","160","1182970","0.0-65.0","battery-v0.2","","","814.5999999996275","","","10","1004","885","y","elianto","#3366ff99"," "," ","1","+10","[1664.7000000001863]","1","2","","","1004","61","2","1","win","go","0","0"
"pit-trial","161","1187824","0.0-66.0","battery-v0.2","","","-1","","","10","1004","885","z","elianto","#f73b6a7A","-1","-1","1","0","[2944.5]","1","2","","","1004","62","4","4","lose","no-go","0","0"
"pit-trial","162","1192678","0.0-67.0","battery-v0.2","","","-1","","","10","1004","885","b","elianto","#3366ff99","-1","-1","1","+10","[]","0","2","","","1004","63","6","2","win","no-go","0","0"
"pit-trial","163","1197510","0.0-68.0","battery-v0.2","","","1978.0999999996275","","","10","1004","885","c","elianto","#f73b6a7A"," "," ","1","-10","[2828.4000000003725]","1","2","","","1004","64","5","3","lose","go","1","0"
"pit-trial","164","1202364","0.0-69.0","battery-v0.2","","","-1","","","10","1004","885","z","elianto","#f73b6a7A","-1","-1","1","0","[]","0","2","","","1004","65","4","4","lose","no-go","0","0"
"pit-trial","165","1207218","0.0-70.0","battery-v0.2","","","-1","","","10","1004","885","b","elianto","#3366ff99","-1","-1","1","+10","[]","0","2","","","1004","66","6","2","win","no-go","0","0"
"pit-trial","166","1211028","0.0-71.0","battery-v0.2","","","955.1999999992549","","","10","1004","885","y","elianto","#3366ff99"," "," ","1","+10","[1805.5]","1","2","","","1004","67","2","1","win","go","0","0"
"pit-trial","167","1215307","0.0-72.0","battery-v0.2","","","1422.2000000001863","","","10","1004","885","c","elianto","#f73b6a7A"," "," ","1","0","[2273.9000000003725]","1","2","","","1004","68","5","3","lose","go","0","0"
"pit-trial","168","1220161","0.0-73.0","battery-v0.2","","","-1","","","10","1004","885","z","elianto","#f73b6a7A","-1","-1","1","0","[]","0","2","","","1004","69","4","4","lose","no-go","0","0"
"pit-trial","169","1224534","0.0-74.0","battery-v0.2","","","1518.5","","","10","1004","885","c","elianto","#f73b6a7A"," "," ","1","0","[2368.5999999996275]","1","2","","","1004","70","5","3","lose","go","0","0"
"pit-trial","170","1229388","0.0-75.0","battery-v0.2","","","-1","","","10","1004","885","b","elianto","#3366ff99","-1","-1","1","+10","[]","0","2","","","1004","71","6","2","win","no-go","0","0"
"pit-trial","171","1234092","0.0-76.0","battery-v0.2","","","1849.0999999996275","","","10","1004","885","t","elianto","#f73b6a7A","-1"," ","0","-10","[2699.0999999996275]","1","2","","","1004","72","7","4","lose","no-go","0","0"
"pit-trial","172","1238947","0.0-77.0","battery-v0.2","","","-1","","","10","1004","885","c","elianto","#f73b6a7A"," ","-1","0","-10","[]","0","2","","","1004","73","5","3","lose","go","0","0"
"pit-trial","173","1243801","0.0-78.0","battery-v0.2","","","-1","","","10","1004","885","b","elianto","#3366ff99","-1","-1","1","+10","[]","0","2","","","1004","74","6","2","win","no-go","0","0"
"pit-trial","174","1247907","0.0-79.0","battery-v0.2","","","1251.5","","","10","1004","885","t","elianto","#f73b6a7A","-1"," ","0","0","[2101.600000000559]","1","2","","","1004","75","7","4","lose","no-go","1","0"
"pit-trial","175","1252760","0.0-80.0","battery-v0.2","","","-1","","","10","1004","885","z","elianto","#f73b6a7A","-1","-1","1","-10","[3510.0999999996275,3946.5999999996275,4105.9000000003725,4241.0999999996275]","4","2","","","1004","76","4","4","lose","no-go","1","0"
"pit-trial","176","1257105","0.0-81.0","battery-v0.2","","","1491.8999999994412","","","10","1004","885","t","elianto","#f73b6a7A","-1"," ","0","-10","[2342]","1","2","","","1004","77","7","4","lose","no-go","0","0"
"pit-trial","177","1261959","0.0-82.0","battery-v0.2","","","-1","","","10","1004","885","c","elianto","#f73b6a7A"," ","-1","0","-10","[2925.699999999255]","1","2","","","1004","78","5","3","lose","go","0","0"
"pit-trial","178","1265817","0.0-83.0","battery-v0.2","","","1002.5","","","10","1004","885","b","elianto","#3366ff99","-1"," ","0","0","[1854.2999999998137]","1","2","","","1004","79","6","2","win","no-go","0","0"
"pit-trial","179","1269385","0.0-84.0","battery-v0.2","","","715.0999999996275","","","10","1004","885","z","elianto","#f73b6a7A","-1"," ","0","-10","[1565.2000000001863]","1","2","","","1004","80","4","4","lose","no-go","0","0"
"pit-trial","180","1274239","0.0-85.0","battery-v0.2","","","-1","","","10","1004","885","c","elianto","#f73b6a7A"," ","-1","0","-10","[4177.200000000186]","1","2","","","1004","81","5","3","lose","go","0","0"
"pit-trial","181","1279093","0.0-86.0","battery-v0.2","","","-1","","","10","1004","885","b","elianto","#3366ff99","-1","-1","1","+10","[]","0","2","","","1004","82","6","2","win","no-go","0","0"
"pit-trial","182","1283947","0.0-87.0","battery-v0.2","","","-1","","","10","1004","885","t","elianto","#f73b6a7A","-1","-1","1","0","[]","0","2","","","1004","83","7","4","lose","no-go","0","0"
"pit-trial","183","1288801","0.0-88.0","battery-v0.2","","","-1","","","10","1004","885","z","elianto","#f73b6a7A","-1","-1","1","0","[]","0","2","","","1004","84","4","4","lose","no-go","0","0"
"pit-trial","184","1293655","0.0-89.0","battery-v0.2","","","-1","","","10","1004","885","b","elianto","#3366ff99","-1","-1","1","+10","[]","0","2","","","1004","85","6","2","win","no-go","0","0"
"pit-trial","185","1298509","0.0-90.0","battery-v0.2","","","-1","","","10","1004","885","c","elianto","#f73b6a7A"," ","-1","0","-10","[3214.9000000003725]","1","2","","","1004","86","5","3","lose","go","0","0"
"pit-trial","186","1303362","0.0-91.0","battery-v0.2","","","-1","","","10","1004","885","z","elianto","#f73b6a7A","-1","-1","1","0","[]","0","2","","","1004","87","4","4","lose","no-go","0","0"
"pit-trial","187","1308216","0.0-92.0","battery-v0.2","","","-1","","","10","1004","885","t","elianto","#f73b6a7A","-1","-1","1","0","[]","0","2","","","1004","88","7","4","lose","no-go","0","0"
"pit-trial","188","1313070","0.0-93.0","battery-v0.2","","","-1","","","10","1004","885","c","elianto","#f73b6a7A"," ","-1","0","-10","[]","0","2","","","1004","89","5","3","lose","go","0","0"
"pit-trial","189","1317924","0.0-94.0","battery-v0.2","","","-1","","","10","1004","885","t","elianto","#f73b6a7A","-1","-1","1","0","[]","0","2","","","1004","90","7","4","lose","no-go","0","0"
"pit-trial","190","1322778","0.0-95.0","battery-v0.2","","","-1","","","10","1004","885","z","elianto","#f73b6a7A","-1","-1","1","0","[]","0","2","","","1004","91","4","4","lose","no-go","0","0"
"pit-trial","191","1327632","0.0-96.0","battery-v0.2","","","-1","","","10","1004","885","b","elianto","#3366ff99","-1","-1","1","+10","[]","0","2","","","1004","92","6","2","win","no-go","0","0"
"pit-trial","192","1332311","0.0-97.0","battery-v0.2","","","1825.5","","","10","1004","885","x","elianto","#f73b6a7A","-1"," ","0","-10","[2675.7000000001863]","1","2","","","1004","93","8","4","lose","no-go","0","0"
"pit-trial","193","1337166","0.0-98.0","battery-v0.2","","","-1","","","10","1004","885","b","elianto","#3366ff99","-1","-1","1","0","[3545.5,3859.399999999441,4099.399999999441]","3","2","","","1004","94","6","2","win","no-go","1","0"
"pit-trial","194","1342020","0.0-99.0","battery-v0.2","","","-1","","","10","1004","885","t","elianto","#f73b6a7A","-1","-1","1","0","[]","0","2","","","1004","95","7","4","lose","no-go","0","0"
"pit-trial","195","1346874","0.0-100.0","battery-v0.2","","","-1","","","10","1004","885","c","elianto","#f73b6a7A"," ","-1","0","0","[]","0","2","","","1004","96","5","3","lose","go","1","0"
"pit-trial","196","1351197","0.0-101.0","battery-v0.2","","","1468.8999999994412","","","10","1004","885","b","elianto","#3366ff99","-1"," ","0","0","[2319.2999999998137]","1","2","","","1004","97","6","2","win","no-go","0","0"
"pit-trial","197","1356052","0.0-102.0","battery-v0.2","","","-1","","","10","1004","885","t","elianto","#f73b6a7A","-1","-1","1","0","[]","0","2","","","1004","98","7","4","lose","no-go","0","0"
"pit-trial","198","1360907","0.0-103.0","battery-v0.2","","","-1","","","10","1004","885","c","elianto","#f73b6a7A"," ","-1","0","-10","[3330.9000000003725,3544.4000000003725]","2","2","","","1004","99","5","3","lose","go","0","0"
"pit-trial","199","1365762","0.0-104.0","battery-v0.2","","","-1","","","10","1004","885","x","elianto","#f73b6a7A","-1","-1","1","0","[]","0","2","","","1004","100","8","4","lose","no-go","0","0"
"pit-trial","200","1370361","0.0-105.0","battery-v0.2","","","1744.8999999994412","","","10","1004","885","f","elianto","#3366ff99"," "," ","1","+10","[2595]","1","2","","","1004","101","9","1","win","go","0","0"
"pit-trial","201","1375216","0.0-106.0","battery-v0.2","","","-1","","","10","1004","885","n","elianto","#f73b6a7A"," ","-1","0","-10","[]","0","2","","","1004","102","10","3","lose","go","0","0"
"pit-trial","202","1379465","0.0-107.0","battery-v0.2","","","1394.5999999996275","","","10","1004","885","x","elianto","#f73b6a7A","-1"," ","0","-10","[2245.100000000559]","1","2","","","1004","103","8","4","lose","no-go","0","0"
"pit-trial","203","1383262","0.0-108.0","battery-v0.2","","","942.2000000001863","","","10","1004","885","b","elianto","#3366ff99","-1"," ","0","0","[1792.5]","1","2","","","1004","104","6","2","win","no-go","0","0"
"pit-trial","204","1388116","0.0-109.0","battery-v0.2","","","-1","","","10","1004","885","n","elianto","#f73b6a7A"," ","-1","0","-10","[307.80000000074506,3234.9000000003725,3490.600000000559,3632.2000000001863,3789.600000000559]","5","2","","","1004","105","10","3","lose","go","0","0"
"pit-trial","205","1392610","0.0-110.0","battery-v0.2","","","1639.6000000005588","","","10","1004","885","f","elianto","#3366ff99"," "," ","1","+10","[2489.5999999996275]","1","2","","","1004","106","9","1","win","go","0","0"
"pit-trial","206","1397463","0.0-111.0","battery-v0.2","","","-1","","","10","1004","885","x","elianto","#f73b6a7A","-1","-1","1","0","[]","0","2","","","1004","107","8","4","lose","no-go","0","0"
"pit-trial","207","1402317","0.0-112.0","battery-v0.2","","","-1","","","10","1004","885","b","elianto","#3366ff99","-1","-1","1","+10","[]","0","2","","","1004","108","6","2","win","no-go","0","0"
"pit-trial","208","1407170","0.0-113.0","battery-v0.2","","","-1","","","10","1004","885","n","elianto","#f73b6a7A"," ","-1","0","-10","[3641.399999999441,3871.2000000001863,4051.5999999996275,4224.299999999814]","4","2","","","1004","109","10","3","lose","go","0","0"
"pit-trial","209","1411812","0.0-114.0","battery-v0.2","","","1787.7999999998137","","","10","1004","885","q","elianto","#3366ff99"," "," ","1","+10","[2638]","1","2","","","1004","110","11","1","win","go","0","0"
"pit-trial","210","1415402","0.0-115.0","battery-v0.2","","","736.4000000003725","","","10","1004","885","x","elianto","#f73b6a7A","-1"," ","0","-10","[1586.5]","1","2","","","1004","111","8","4","lose","no-go","0","0"
"pit-trial","211","1420255","0.0-116.0","battery-v0.2","","","-1","","","10","1004","885","f","elianto","#3366ff99"," ","-1","0","+10","[3159.7999999998137]","1","2","","","1004","112","9","1","win","go","1","0"
"pit-trial","212","1425109","0.0-117.0","battery-v0.2","","","-1","","","10","1004","885","n","elianto","#f73b6a7A"," ","-1","0","-10","[3387.9000000003725,3579.4000000003725,3723.9000000003725,3867.7999999998137]","4","2","","","1004","113","10","3","lose","go","0","0"
"pit-trial","213","1429490","0.0-118.0","battery-v0.2","","","1528","","","10","1004","885","f","elianto","#3366ff99"," "," ","1","+10","[2378.199999999255]","1","2","","","1004","114","9","1","win","go","0","0"
"pit-trial","214","1434344","0.0-119.0","battery-v0.2","","","-1","","","10","1004","885","x","elianto","#f73b6a7A","-1","-1","1","0","[]","0","2","","","1004","115","8","4","lose","no-go","0","0"
"pit-trial","215","1439198","0.0-120.0","battery-v0.2","","","-1","","","10","1004","885","q","elianto","#3366ff99"," ","-1","0","0","[2903.100000000559]","1","2","","","1004","116","11","1","win","go","0","0"
"pit-trial","216","1443420","0.0-121.0","battery-v0.2","","","1366","","","10","1004","885","f","elianto","#3366ff99"," "," ","1","+10","[2217.899999999441]","1","2","","","1004","117","9","1","win","go","0","0"
"pit-trial","217","1448274","0.0-122.0","battery-v0.2","","","-1","","","10","1004","885","q","elianto","#3366ff99"," ","-1","0","0","[3403.4000000003725,3622.7000000001863,3802.4000000003725,3942.4000000003725,4089.2999999998137]","5","2","","","1004","118","11","1","win","go","0","0"
"pit-trial","218","1453128","0.0-123.0","battery-v0.2","","","-1","","","10","1004","885","n","elianto","#f73b6a7A"," ","-1","0","-10","[]","0","2","","","1004","119","10","3","lose","go","0","0"
"pit-trial","219","1457983","0.0-124.0","battery-v0.2","","","-1","","","10","1004","885","x","elianto","#f73b6a7A","-1","-1","1","0","[216.79999999981374]","1","2","","","1004","120","8","4","lose","no-go","0","0"
"pit-trial","220","1462244","0.0-125.0","battery-v0.2","","","1407.7000000001863","","","10","1004","885","n","elianto","#f73b6a7A"," "," ","1","0","[2257.7999999998137]","1","2","","","1004","121","10","3","lose","go","0","0"
"pit-trial","221","1466489","0.0-126.0","battery-v0.2","","","1389.5999999996275","","","10","1004","885","f","elianto","#3366ff99"," "," ","1","+10","[2239.7000000001863]","1","2","","","1004","122","9","1","win","go","0","0"
"pit-trial","222","1471343","0.0-127.0","battery-v0.2","","","-1","","","10","1004","885","q","elianto","#3366ff99"," ","-1","0","0","[4110.399999999441]","1","2","","","1004","123","11","1","win","go","0","0"
"pit-trial","223","1476197","0.0-128.0","battery-v0.2","","","-1","","","10","1004","885","x","elianto","#f73b6a7A","-1","-1","1","0","[]","0","2","","","1004","124","8","4","lose","no-go","0","0"
"pit-trial","224","1480563","0.0-129.0","battery-v0.2","","","1511.0999999996275","","","10","1004","885","q","elianto","#3366ff99"," "," ","1","+10","[2361.399999999441]","1","2","","","1004","125","11","1","win","go","0","0"
"pit-trial","225","1484784","0.0-130.0","battery-v0.2","","","1366.2999999998137","","","10","1004","885","f","elianto","#3366ff99"," "," ","1","+10","[2216.7000000001863]","1","2","","","1004","126","9","1","win","go","0","0"
"pit-trial","226","1489069","0.0-131.0","battery-v0.2","","","1429.0999999996275","","","10","1004","885","n","elianto","#f73b6a7A"," "," ","1","0","[2280]","1","2","","","1004","127","10","3","lose","go","0","0"
"pit-trial","227","1493923","0.0-132.0","battery-v0.2","","","-1","","","10","1004","885","x","elianto","#f73b6a7A","-1","-1","1","-10","[]","0","2","","","1004","128","8","4","lose","no-go","1","0"
"pit-trial","228","1498136","0.0-133.0","battery-v0.2","","","1358.5","","","10","1004","885","x","elianto","#f73b6a7A","-1"," ","0","-10","[2208.9000000003725]","1","2","","","1004","129","8","4","lose","no-go","0","0"
"pit-trial","229","1502278","0.0-134.0","battery-v0.2","","","1288.1000000005588","","","10","1004","885","n","elianto","#f73b6a7A"," "," ","1","0","[2138.300000000745]","1","2","","","1004","130","10","3","lose","go","0","0"
"pit-trial","230","1506169","0.0-135.0","battery-v0.2","","","1036.2999999998137","","","10","1004","885","q","elianto","#3366ff99"," "," ","1","+10","[1886.2999999998137]","1","2","","","1004","131","11","1","win","go","0","0"
"pit-trial","231","1509649","0.0-136.0","battery-v0.2","","","626.2000000001863","","","10","1004","885","f","elianto","#3366ff99"," "," ","1","+10","[1476.4000000003725,2337.600000000559]","2","2","","","1004","132","9","1","win","go","0","0"
"pit-trial","232","1513442","0.0-137.0","battery-v0.2","","","938.6999999992549","","","10","1004","885","q","elianto","#3366ff99"," "," ","1","+10","[1788.5999999996275]","1","2","","","1004","133","11","1","win","go","0","0"
"pit-trial","233","1517847","0.0-138.0","battery-v0.2","","","1550.199999999255","","","10","1004","885","x","elianto","#f73b6a7A","-1"," ","0","-10","[2400.2999999998137]","1","2","","","1004","134","8","4","lose","no-go","0","0"
"pit-trial","234","1521606","0.0-139.0","battery-v0.2","","","904.2000000001863","","","10","1004","885","f","elianto","#3366ff99"," "," ","1","0","[1754.3999999994412]","1","2","","","1004","135","9","1","win","go","1","0"
"pit-trial","235","1526460","0.0-140.0","battery-v0.2","","","-1","","","10","1004","885","n","elianto","#f73b6a7A"," ","-1","0","-10","[]","0","2","","","1004","136","10","3","lose","go","0","0"
"pit-trial","236","1530195","0.0-141.0","battery-v0.2","","","881.1999999992549","","","10","1004","885","q","elianto","#3366ff99"," "," ","1","+10","[1731.3999999994412]","1","2","","","1004","137","11","1","win","go","0","0"
"pit-trial","237","1535049","0.0-142.0","battery-v0.2","","","-1","","","10","1004","885","x","elianto","#f73b6a7A","-1","-1","1","-10","[2966.5999999996275,3529.5999999996275,3732.5,3938.0999999996275,4108.899999999441,4294.799999999814,4521.5]","7","2","","","1004","138","8","4","lose","no-go","1","0"
"pit-trial","238","1539356","0.0-143.0","battery-v0.2","","","1451.2000000001863","","","10","1004","885","n","elianto","#f73b6a7A"," "," ","1","0","[2303.4000000003725]","1","2","","","1004","139","10","3","lose","go","0","0"
"pit-trial","239","1543342","0.0-144.0","battery-v0.2","","","1132.5","","","10","1004","885","f","elianto","#3366ff99"," "," ","1","+10","[1982.7999999998137]","1","2","","","1004","140","9","1","win","go","0","0"
"pit-instructions","240","1571316","0.0-145.0","battery-v0.2","","[{""page_index"":0,""viewing_time"":18991},{""page_index"":1,""viewing_time"":8979.399999999441}]","27970.89999999944","","","","","","","","","","","","","","","","","","","","","","","","",""
"pit-trial","241","1575298","0.0-146.0","battery-v0.2","","","1122.5","","","10","1004","885","d","elianto","#f73b6a7A","-1"," ","0","0","[1974]","1","3","","","1004","141","2","4","lose","no-go","1","0"
"pit-trial","242","1578685","0.0-147.0","battery-v0.2","","","532","","","10","1004","885","v","elianto","#3366ff99","-1"," ","0","0","[1382.3999999994412]","1","3","","","1004","142","0","2","win","no-go","0","0"
"pit-trial","243","1582774","0.0-148.0","battery-v0.2","","","1233.5","","","10","1004","885","k","elianto","#3366ff99"," "," ","1","+10","[2085.2000000001863]","1","3","","","1004","143","3","1","win","go","0","0"
"pit-trial","244","1586765","0.0-149.0","battery-v0.2","","","1137.699999999255","","","10","1004","885","j","elianto","#f73b6a7A"," "," ","1","0","[1987.8999999994412]","1","3","","","1004","144","1","3","lose","go","0","0"
"pit-trial","245","1590281","0.0-150.0","battery-v0.2","","","660.8999999994412","","","10","1004","885","v","elianto","#3366ff99","-1"," ","0","0","[1512.1000000005588]","1","3","","","1004","145","0","2","win","no-go","0","0"
"pit-trial","246","1593565","0.0-151.0","battery-v0.2","","","429.6000000005588","","","10","1004","885","k","elianto","#3366ff99"," "," ","1","+10","[1280.2999999998137]","1","3","","","1004","146","3","1","win","go","0","0"
"pit-trial","247","1598419","0.0-152.0","battery-v0.2","","","-1","","","10","1004","885","d","elianto","#f73b6a7A","-1","-1","1","-10","[]","0","3","","","1004","147","2","4","lose","no-go","1","0"
"pit-trial","248","1602294","0.0-153.0","battery-v0.2","","","1021.4000000003725","","","10","1004","885","j","elianto","#f73b6a7A"," "," ","1","0","[1871.2999999998137]","1","3","","","1004","148","1","3","lose","go","0","0"
"pit-trial","249","1607149","0.0-154.0","battery-v0.2","","","-1","","","10","1004","885","v","elianto","#3366ff99","-1","-1","1","+10","[]","0","3","","","1004","149","0","2","win","no-go","0","0"
"pit-trial","250","1610816","0.0-155.0","battery-v0.2","","","812.5999999996275","","","10","1004","885","k","elianto","#3366ff99"," "," ","1","+10","[1662.8999999994412]","1","3","","","1004","150","3","1","win","go","0","0"
"pit-trial","251","1615301","0.0-156.0","battery-v0.2","","","1630.5","","","10","1004","885","d","elianto","#f73b6a7A","-1"," ","0","-10","[2480.7999999998137]","1","3","","","1004","151","2","4","lose","no-go","0","0"
"pit-trial","252","1620155","0.0-157.0","battery-v0.2","","","-1","","","10","1004","885","j","elianto","#f73b6a7A"," ","-1","0","-10","[3378.0999999996275,3548.0999999996275,4168.0999999996275,4598.399999999441]","4","3","","","1004","152","1","3","lose","go","0","0"
"pit-trial","253","1625010","0.0-158.0","battery-v0.2","","","-1","","","10","1004","885","v","elianto","#3366ff99","-1","-1","1","+10","[]","0","3","","","1004","153","0","2","win","no-go","0","0"
"pit-trial","254","1629134","0.0-159.0","battery-v0.2","","","1270.5","","","10","1004","885","k","elianto","#3366ff99"," "," ","1","+10","[2120.699999999255]","1","3","","","1004","154","3","1","win","go","0","0"
"pit-trial","255","1633989","0.0-160.0","battery-v0.2","","","-1","","","10","1004","885","d","elianto","#f73b6a7A","-1","-1","1","0","[3089.7999999998137]","1","3","","","1004","155","2","4","lose","no-go","0","0"
"pit-trial","256","1638843","0.0-161.0","battery-v0.2","","","-1","","","10","1004","885","j","elianto","#f73b6a7A"," ","-1","0","-10","[3174.0999999996275]","1","3","","","1004","156","1","3","lose","go","0","0"
"pit-trial","257","1643697","0.0-162.0","battery-v0.2","","","-1","","","10","1004","885","v","elianto","#3366ff99","-1","-1","1","0","[3659.2000000001863,3844.4000000003725]","2","3","","","1004","157","0","2","win","no-go","1","0"
"pit-trial","258","1648179","0.0-163.0","battery-v0.2","","","1626.7999999998137","","","10","1004","885","j","elianto","#f73b6a7A"," "," ","1","-10","[2477.7000000001863]","1","3","","","1004","158","1","3","lose","go","1","0"
"pit-trial","259","1651802","0.0-164.0","battery-v0.2","","","769.3000000007451","","","10","1004","885","k","elianto","#3366ff99"," "," ","1","+10","[1619.4000000003725]","1","3","","","1004","159","3","1","win","go","0","0"
"pit-trial","260","1656356","0.0-165.0","battery-v0.2","","","1699.5","","","10","1004","885","d","elianto","#f73b6a7A","-1"," ","0","-10","[2549.5999999996275]","1","3","","","1004","160","2","4","lose","no-go","0","0"
"pit-trial","261","1661008","0.0-166.0","battery-v0.2","","","1796.9000000003725","","","10","1004","885","d","elianto","#f73b6a7A","-1"," ","0","-10","[2647.2999999998137]","1","3","","","1004","161","2","4","lose","no-go","0","0"
"pit-trial","262","1665862","0.0-167.0","battery-v0.2","","","-1","","","10","1004","885","j","elianto","#f73b6a7A"," ","-1","0","-10","[2909.2999999998137]","1","3","","","1004","162","1","3","lose","go","0","0"
"pit-trial","263","1669503","0.0-168.0","battery-v0.2","","","788.2999999998137","","","10","1004","885","k","elianto","#3366ff99"," "," ","1","0","[1638.5]","1","3","","","1004","163","3","1","win","go","1","0"
"pit-trial","264","1673820","0.0-169.0","battery-v0.2","","","1461.7000000001863","","","10","1004","885","v","elianto","#3366ff99","-1"," ","0","0","[2312.899999999441]","1","3","","","1004","164","0","2","win","no-go","0","0"
"pit-trial","265","1677601","0.0-170.0","battery-v0.2","","","925.7999999998137","","","10","1004","885","k","elianto","#3366ff99"," "," ","1","0","[1777.2999999998137]","1","3","","","1004","165","3","1","win","go","1","0"
"pit-trial","266","1682454","0.0-171.0","battery-v0.2","","","-1","","","10","1004","885","j","elianto","#f73b6a7A"," ","-1","0","-10","[]","0","3","","","1004","166","1","3","lose","go","0","0"
"pit-trial","267","1686160","0.0-172.0","battery-v0.2","","","851.2999999998137","","","10","1004","885","v","elianto","#3366ff99","-1"," ","0","0","[1701.3999999994412]","1","3","","","1004","167","0","2","win","no-go","0","0"
"pit-trial","268","1690913","0.0-173.0","battery-v0.2","","","1899.8999999994412","","","10","1004","885","d","elianto","#f73b6a7A","-1"," ","0","0","[2750.2000000001863]","1","3","","","1004","168","2","4","lose","no-go","1","0"
"pit-trial","269","1695767","0.0-174.0","battery-v0.2","","","-1","","","10","1004","885","d","elianto","#f73b6a7A","-1","-1","1","0","[]","0","3","","","1004","169","2","4","lose","no-go","0","0"
"pit-trial","270","1700621","0.0-175.0","battery-v0.2","","","-1","","","10","1004","885","v","elianto","#3366ff99","-1","-1","1","+10","[2940.4000000003725]","1","3","","","1004","170","0","2","win","no-go","0","0"
"pit-trial","271","1705476","0.0-176.0","battery-v0.2","","","-1","","","10","1004","885","k","elianto","#3366ff99"," ","-1","0","+10","[]","0","3","","","1004","171","3","1","win","go","1","0"
"pit-trial","272","1710330","0.0-177.0","battery-v0.2","","","-1","","","10","1004","885","j","elianto","#f73b6a7A"," ","-1","0","-10","[]","0","3","","","1004","172","1","3","lose","go","0","0"
"pit-trial","273","1714218","0.0-178.0","battery-v0.2","","","1034","","","10","1004","885","e","elianto","#f73b6a7A"," "," ","1","0","[1884.2999999998137]","1","3","","","1004","173","4","3","lose","go","0","0"
"pit-trial","274","1718912","0.0-179.0","battery-v0.2","","","1839.7999999998137","","","10","1004","885","j","elianto","#f73b6a7A"," "," ","1","0","[2689.899999999441]","1","3","","","1004","174","1","3","lose","go","0","0"
"pit-trial","275","1723527","0.0-180.0","battery-v0.2","","","1761.1000000005588","","","10","1004","885","w","elianto","#f73b6a7A","-1"," ","0","0","[2611.300000000745]","1","3","","","1004","175","5","4","lose","no-go","1","0"
"pit-trial","276","1728260","0.0-181.0","battery-v0.2","","","1879.3999999994412","","","10","1004","885","d","elianto","#f73b6a7A","-1"," ","0","-10","[2729.5]","1","3","","","1004","176","2","4","lose","no-go","0","0"
"pit-trial","277","1733114","0.0-182.0","battery-v0.2","","","-1","","","10","1004","885","d","elianto","#f73b6a7A","-1","-1","1","0","[3124.2999999998137,4188.600000000559]","2","3","","","1004","177","2","4","lose","no-go","0","0"
"pit-trial","278","1737483","0.0-183.0","battery-v0.2","","","1511.2999999998137","","","10","1004","885","j","elianto","#f73b6a7A"," "," ","1","0","[2364.5]","1","3","","","1004","178","1","3","lose","go","0","0"
"pit-trial","279","1741406","0.0-184.0","battery-v0.2","","","1069.199999999255","","","10","1004","885","w","elianto","#f73b6a7A","-1"," ","0","0","[1919.2000000001863]","1","3","","","1004","179","5","4","lose","no-go","1","0"
"pit-trial","280","1745365","0.0-185.0","battery-v0.2","","","1105.2999999998137","","","10","1004","885","e","elianto","#f73b6a7A"," "," ","1","0","[1955.6000000005588]","1","3","","","1004","180","4","3","lose","go","0","0"
"pit-trial","281","1748951","0.0-186.0","battery-v0.2","","","732","","","10","1004","885","d","elianto","#f73b6a7A","-1"," ","0","0","[1582.199999999255]","1","3","","","1004","181","2","4","lose","no-go","1","0"
"pit-trial","282","1752937","0.0-187.0","battery-v0.2","","","1130.5","","","10","1004","885","w","elianto","#f73b6a7A","-1"," ","0","-10","[1980.6000000005588]","1","3","","","1004","182","5","4","lose","no-go","0","0"
"pit-trial","283","1756571","0.0-188.0","battery-v0.2","","","780","","","10","1004","885","s","elianto","#3366ff99","-1"," ","0","0","[1630.3999999994412]","1","3","","","1004","183","6","2","win","no-go","0","0"
"pit-trial","284","1761425","0.0-189.0","battery-v0.2","","","-1","","","10","1004","885","e","elianto","#f73b6a7A"," ","-1","0","-10","[3039.7000000001863]","1","3","","","1004","184","4","3","lose","go","0","0"
"pit-trial","285","1766280","0.0-190.0","battery-v0.2","","","-1","","","10","1004","885","w","elianto","#f73b6a7A","-1","-1","1","0","[3001.300000000745]","1","3","","","1004","185","5","4","lose","no-go","0","0"
"pit-trial","286","1769825","0.0-191.0","battery-v0.2","","","690.5999999996275","","","10","1004","885","d","elianto","#f73b6a7A","-1"," ","0","-10","[1540.7999999998137]","1","3","","","1004","186","2","4","lose","no-go","0","0"
"pit-trial","287","1774679","0.0-192.0","battery-v0.2","","","-1","","","10","1004","885","e","elianto","#f73b6a7A"," ","-1","0","-10","[]","0","3","","","1004","187","4","3","lose","go","0","0"
"pit-trial","288","1779510","0.0-193.0","battery-v0.2","","","1976.2000000001863","","","10","1004","885","s","elianto","#3366ff99","-1"," ","0","0","[2826.4000000003725]","1","3","","","1004","188","6","2","win","no-go","0","0"
"pit-trial","289","1784364","0.0-194.0","battery-v0.2","","","-1","","","10","1004","885","s","elianto","#3366ff99","-1","-1","1","+10","[]","0","3","","","1004","189","6","2","win","no-go","0","0"
"pit-trial","290","1789205","0.0-195.0","battery-v0.2","","","1984.5999999996275","","","10","1004","885","w","elianto","#f73b6a7A","-1"," ","0","0","[2836.7000000001863]","1","3","","","1004","190","5","4","lose","no-go","1","0"
"pit-trial","291","1794053","0.0-196.0","battery-v0.2","","","1993.2999999998137","","","10","1004","885","p","elianto","#3366ff99"," "," ","1","+10","[2843.600000000559]","1","3","","","1004","191","7","1","win","go","0","0"
"pit-trial","292","1798634","0.0-197.0","battery-v0.2","","","1726.2999999998137","","","10","1004","885","e","elianto","#f73b6a7A"," "," ","1","0","[2576.600000000559]","1","3","","","1004","192","4","3","lose","go","0","0"
"pit-trial","293","1803467","0.0-198.0","battery-v0.2","","","1979","","","10","1004","885","s","elianto","#3366ff99","-1"," ","0","+10","[2829.0999999996275]","1","3","","","1004","193","6","2","win","no-go","1","0"
"pit-trial","294","1808321","0.0-199.0","battery-v0.2","","","-1","","","10","1004","885","w","elianto","#f73b6a7A","-1","-1","1","0","[2934.9000000003725]","1","3","","","1004","194","5","4","lose","no-go","0","0"
"pit-trial","295","1812132","0.0-200.0","battery-v0.2","","","957.2999999998137","","","10","1004","885","p","elianto","#3366ff99"," "," ","1","+10","[1807.8999999994412]","1","3","","","1004","195","7","1","win","go","0","0"
"pit-trial","296","1816217","0.0-201.0","battery-v0.2","","","1231.8999999994412","","","10","1004","885","e","elianto","#f73b6a7A"," "," ","1","0","[2082]","1","3","","","1004","196","4","3","lose","go","0","0"
"pit-trial","297","1819917","0.0-202.0","battery-v0.2","","","846.5","","","10","1004","885","s","elianto","#3366ff99","-1"," ","0","0","[1696.7999999998137]","1","3","","","1004","197","6","2","win","no-go","0","0"
"pit-trial","298","1824349","0.0-203.0","battery-v0.2","","","1578.0999999996275","","","10","1004","885","w","elianto","#f73b6a7A","-1"," ","0","-10","[2428.5]","1","3","","","1004","198","5","4","lose","no-go","0","0"
"pit-trial","299","1828560","0.0-204.0","battery-v0.2","","","1357.0999999996275","","","10","1004","885","p","elianto","#3366ff99"," "," ","1","+10","[2207.2000000001863]","1","3","","","1004","199","7","1","win","go","0","0"
"pit-trial","300","1833414","0.0-205.0","battery-v0.2","","","-1","","","10","1004","885","e","elianto","#f73b6a7A"," ","-1","0","-10","[]","0","3","","","1004","200","4","3","lose","go","0","0"
"pit-trial","301","1837822","0.0-206.0","battery-v0.2","","","1552","","","10","1004","885","e","elianto","#f73b6a7A"," "," ","1","-10","[158.30000000074506,2404.4000000003725]","2","3","","","1004","201","4","3","lose","go","1","0"
"pit-trial","302","1842675","0.0-207.0","battery-v0.2","","","-1","","","10","1004","885","w","elianto","#f73b6a7A","-1","-1","1","0","[3085.7999999998137]","1","3","","","1004","202","5","4","lose","no-go","0","0"
"pit-trial","303","1846330","0.0-208.0","battery-v0.2","","","800.4000000003725","","","10","1004","885","p","elianto","#3366ff99"," "," ","1","+10","[1650.7000000001863]","1","3","","","1004","203","7","1","win","go","0","0"
"pit-trial","304","1849956","0.0-209.0","battery-v0.2","","","772.0999999996275","","","10","1004","885","s","elianto","#3366ff99","-1"," ","0","0","[1622.1000000005588]","1","3","","","1004","204","6","2","win","no-go","0","0"
"pit-trial","305","1853663","0.0-210.0","battery-v0.2","","","853.8999999994412","","","10","1004","885","p","elianto","#3366ff99"," "," ","1","0","[1703.9000000003725]","1","3","","","1004","205","7","1","win","go","1","0"
"pit-trial","306","1857748","0.0-211.0","battery-v0.2","","","1231.0999999996275","","","10","1004","885","e","elianto","#f73b6a7A"," "," ","1","0","[2081.2999999998137]","1","3","","","1004","206","4","3","lose","go","0","0"
"pit-trial","307","1861483","0.0-212.0","battery-v0.2","","","881.5999999996275","","","10","1004","885","w","elianto","#f73b6a7A","-1"," ","0","-10","[1731.6000000005588]","1","3","","","1004","207","5","4","lose","no-go","0","0"
"pit-trial","308","1865680","0.0-213.0","battery-v0.2","","","1342","","","10","1004","885","s","elianto","#3366ff99","-1"," ","0","+10","[2192.2000000001863]","1","3","","","1004","208","6","2","win","no-go","1","0"
"pit-trial","309","1869599","0.0-214.0","battery-v0.2","","","1065","","","10","1004","885","s","elianto","#3366ff99","-1"," ","0","0","[1915.0999999996275]","1","3","","","1004","209","6","2","win","no-go","0","0"
"pit-trial","310","1873678","0.0-215.0","battery-v0.2","","","1224.9000000003725","","","10","1004","885","w","elianto","#f73b6a7A","-1"," ","0","-10","[2075]","1","3","","","1004","210","5","4","lose","no-go","0","0"
"pit-trial","311","1877703","0.0-216.0","battery-v0.2","","","1170.8999999994412","","","10","1004","885","e","elianto","#f73b6a7A"," "," ","1","0","[2021.1000000005588]","1","3","","","1004","211","4","3","lose","go","0","0"
"pit-trial","312","1881223","0.0-217.0","battery-v0.2","","","666.2000000001863","","","10","1004","885","p","elianto","#3366ff99"," "," ","1","+10","[1516.4000000003725]","1","3","","","1004","212","7","1","win","go","0","0"
"pit-trial","313","1886078","0.0-218.0","battery-v0.2","","","-1","","","10","1004","885","e","elianto","#f73b6a7A"," ","-1","0","-10","[]","0","3","","","1004","213","4","3","lose","go","0","0"
"pit-trial","314","1890153","0.0-219.0","battery-v0.2","","","1221","","","10","1004","885","g","elianto","#3366ff99"," "," ","1","+10","[2071.2999999998137]","1","3","","","1004","214","8","1","win","go","0","0"
"pit-trial","315","1894063","0.0-220.0","battery-v0.2","","","1055.6000000005588","","","10","1004","885","s","elianto","#3366ff99","-1"," ","0","0","[1905.7000000001863]","1","3","","","1004","215","6","2","win","no-go","0","0"
"pit-trial","316","1897782","0.0-221.0","battery-v0.2","","","864.3999999994412","","","10","1004","885","p","elianto","#3366ff99"," "," ","1","0","[1714.5]","1","3","","","1004","216","7","1","win","go","1","0"
"pit-trial","317","1901619","0.0-222.0","battery-v0.2","","","982.9000000003725","","","10","1004","885","g","elianto","#3366ff99"," "," ","1","+10","[1833]","1","3","","","1004","217","8","1","win","go","0","0"
"pit-trial","318","1906474","0.0-223.0","battery-v0.2","","","-1","","","10","1004","885","p","elianto","#3366ff99"," ","-1","0","0","[3590.5999999996275]","1","3","","","1004","218","7","1","win","go","0","0"
"pit-trial","319","1911328","0.0-224.0","battery-v0.2","","","-1","","","10","1004","885","s","elianto","#3366ff99","-1","-1","1","+10","[]","0","3","","","1004","219","6","2","win","no-go","0","0"
"pit-trial","320","1916183","0.0-225.0","battery-v0.2","","","-1","","","10","1004","885","e","elianto","#f73b6a7A"," ","-1","0","-10","[]","0","3","","","1004","220","4","3","lose","go","0","0"
"pit-trial","321","1919832","0.0-226.0","battery-v0.2","","","793.9000000003725","","","10","1004","885","g","elianto","#3366ff99"," "," ","1","+10","[1644.4000000003725]","1","3","","","1004","221","8","1","win","go","0","0"
"pit-trial","322","1924243","0.0-227.0","battery-v0.2","","","1558.0999999996275","","","10","1004","885","a","elianto","#3366ff99","-1"," ","0","+10","[2408.2999999998137]","1","3","","","1004","222","9","2","win","no-go","1","0"
"pit-trial","323","1929097","0.0-228.0","battery-v0.2","","","-1","","","10","1004","885","s","elianto","#3366ff99","-1","-1","1","0","[3496.7000000001863,3837.0999999996275,4070.2000000001863]","3","3","","","1004","223","6","2","win","no-go","1","0"
"pit-trial","324","1932800","0.0-229.0","battery-v0.2","","","850.0999999996275","","","10","1004","885","p","elianto","#3366ff99"," "," ","1","+10","[1700.3999999994412]","1","3","","","1004","224","7","1","win","go","0","0"
"pit-trial","325","1937654","0.0-230.0","battery-v0.2","","","-1","","","10","1004","885","s","elianto","#3366ff99","-1","-1","1","+10","[]","0","3","","","1004","225","6","2","win","no-go","0","0"
"pit-trial","326","1942065","0.0-231.0","battery-v0.2","","","1557.800000000745","","","10","1004","885","a","elianto","#3366ff99","-1"," ","0","0","[2407.899999999441]","1","3","","","1004","226","9","2","win","no-go","0","0"
"pit-trial","327","1946478","0.0-232.0","battery-v0.2","","","1559.5","","","10","1004","885","p","elianto","#3366ff99"," "," ","1","+10","[2409.5999999996275,3243]","2","3","","","1004","227","7","1","win","go","0","0"
"pit-trial","328","1950885","0.0-233.0","battery-v0.2","","","1552.2999999998137","","","10","1004","885","g","elianto","#3366ff99"," "," ","1","+10","[2402.7000000001863]","1","3","","","1004","228","8","1","win","go","0","0"
"pit-trial","329","1955523","0.0-234.0","battery-v0.2","","","1784.2000000001863","","","10","1004","885","u","elianto","#f73b6a7A","-1"," ","0","0","[2634.4000000003725]","1","3","","","1004","229","11","4","lose","no-go","1","0"
"pit-trial","330","1959128","0.0-235.0","battery-v0.2","","","749.2000000001863","","","10","1004","885","g","elianto","#3366ff99"," "," ","1","+10","[1601.5]","1","3","","","1004","230","8","1","win","go","0","0"
"pit-trial","331","1962773","0.0-236.0","battery-v0.2","","","791.5999999996275","","","10","1004","885","l","elianto","#f73b6a7A"," "," ","1","0","[1641.9000000003725]","1","3","","","1004","231","10","3","lose","go","0","0"
"pit-trial","332","1966324","0.0-237.0","battery-v0.2","","","695.8999999994412","","","10","1004","885","a","elianto","#3366ff99","-1"," ","0","0","[1547.699999999255]","1","3","","","1004","232","9","2","win","no-go","0","0"
"pit-trial","333","1971179","0.0-238.0","battery-v0.2","","","-1","","","10","1004","885","a","elianto","#3366ff99","-1","-1","1","+10","[]","0","3","","","1004","233","9","2","win","no-go","0","0"
"pit-trial","334","1975624","0.0-239.0","battery-v0.2","","","1592.2000000001863","","","10","1004","885","l","elianto","#f73b6a7A"," "," ","1","0","[2442.5]","1","3","","","1004","234","10","3","lose","go","0","0"
"pit-trial","335","1979836","0.0-240.0","battery-v0.2","","","1358.2000000001863","","","10","1004","885","u","elianto","#f73b6a7A","-1"," ","0","-10","[2208.2999999998137]","1","3","","","1004","235","11","4","lose","no-go","0","0"
"pit-trial","336","1983535","0.0-241.0","battery-v0.2","","","844.8999999994412","","","10","1004","885","g","elianto","#3366ff99"," "," ","1","+10","[1695]","1","3","","","1004","236","8","1","win","go","0","0"
"pit-trial","337","1988390","0.0-242.0","battery-v0.2","","","-1","","","10","1004","885","u","elianto","#f73b6a7A","-1","-1","1","0","[]","0","3","","","1004","237","11","4","lose","no-go","0","0"
"pit-trial","338","1992351","0.0-243.0","battery-v0.2","","","1106","","","10","1004","885","l","elianto","#f73b6a7A"," "," ","1","-10","[1956.2000000001863]","1","3","","","1004","238","10","3","lose","go","1","0"
"pit-trial","339","1997205","0.0-244.0","battery-v0.2","","","-1","","","10","1004","885","a","elianto","#3366ff99","-1","-1","1","+10","[]","0","3","","","1004","239","9","2","win","no-go","0","0"
"pit-trial","340","2001096","0.0-245.0","battery-v0.2","","","1036.9000000003725","","","10","1004","885","g","elianto","#3366ff99"," "," ","1","+10","[1887.2999999998137]","1","3","","","1004","240","8","1","win","go","0","0"
"pit-trial","341","2004779","0.0-246.0","battery-v0.2","","","828.1000000005588","","","10","1004","885","g","elianto","#3366ff99"," "," ","1","+10","[1679.1000000005588]","1","3","","","1004","241","8","1","win","go","0","0"
"pit-trial","342","2009634","0.0-247.0","battery-v0.2","","","-1","","","10","1004","885","a","elianto","#3366ff99","-1","-1","1","+10","[]","0","3","","","1004","242","9","2","win","no-go","0","0"
"pit-trial","343","2014489","0.0-248.0","battery-v0.2","","","-1","","","10","1004","885","l","elianto","#f73b6a7A"," ","-1","0","-10","[]","0","3","","","1004","243","10","3","lose","go","0","0"
"pit-trial","344","2018534","0.0-249.0","battery-v0.2","","","1179.7000000001863","","","10","1004","885","u","elianto","#f73b6a7A","-1"," ","0","-10","[2040.2000000001863]","1","3","","","1004","244","11","4","lose","no-go","0","0"
"pit-trial","345","2023388","0.0-250.0","battery-v0.2","","","-1","","","10","1004","885","a","elianto","#3366ff99","-1","-1","1","0","[]","0","3","","","1004","245","9","2","win","no-go","1","0"
"pit-trial","346","2028243","0.0-251.0","battery-v0.2","","","-1","","","10","1004","885","u","elianto","#f73b6a7A","-1","-1","1","0","[]","0","3","","","1004","246","11","4","lose","no-go","0","0"
"pit-trial","347","2033098","0.0-252.0","battery-v0.2","","","-1","","","10","1004","885","l","elianto","#f73b6a7A"," ","-1","0","-10","[]","0","3","","","1004","247","10","3","lose","go","0","0"
"pit-trial","348","2036939","0.0-253.0","battery-v0.2","","","985.3000000007451","","","10","1004","885","g","elianto","#3366ff99"," "," ","1","+10","[1837.2000000001863,2342.4000000003725]","2","3","","","1004","248","8","1","win","go","0","0"
"pit-trial","349","2041792","0.0-254.0","battery-v0.2","","","-1","","","10","1004","885","u","elianto","#f73b6a7A","-1","-1","1","-10","[]","0","3","","","1004","249","11","4","lose","no-go","1","0"
"pit-trial","350","2045636","0.0-255.0","battery-v0.2","","","989.4000000003725","","","10","1004","885","g","elianto","#3366ff99"," "," ","1","+10","[1840.6000000005588]","1","3","","","1004","250","8","1","win","go","0","0"
"pit-trial","351","2050490","0.0-256.0","battery-v0.2","","","-1","","","10","1004","885","a","elianto","#3366ff99","-1","-1","1","0","[]","0","3","","","1004","251","9","2","win","no-go","1","0"
"pit-trial","352","2054181","0.0-257.0","battery-v0.2","","","837.3000000007451","","","10","1004","885","l","elianto","#f73b6a7A"," "," ","1","-10","[1687.5]","1","3","","","1004","252","10","3","lose","go","1","0"
"pit-trial","353","2059035","0.0-258.0","battery-v0.2","","","-1","","","10","1004","885","u","elianto","#f73b6a7A","-1","-1","1","0","[]","0","3","","","1004","253","11","4","lose","no-go","0","0"
"pit-trial","354","2063889","0.0-259.0","battery-v0.2","","","-1","","","10","1004","885","a","elianto","#3366ff99","-1","-1","1","+10","[]","0","3","","","1004","254","9","2","win","no-go","0","0"
"pit-trial","355","2067554","0.0-260.0","battery-v0.2","","","811.3999999994412","","","10","1004","885","g","elianto","#3366ff99"," "," ","1","+10","[1661.3999999994412]","1","3","","","1004","255","8","1","win","go","0","0"
"pit-trial","356","2072008","0.0-261.0","battery-v0.2","","","1600.2999999998137","","","10","1004","885","l","elianto","#f73b6a7A"," "," ","1","0","[2450.5999999996275]","1","3","","","1004","256","10","3","lose","go","0","0"
"pit-trial","357","2075718","0.0-262.0","battery-v0.2","","","856.2000000001863","","","10","1004","885","l","elianto","#f73b6a7A"," "," ","1","0","[1706.4000000003725]","1","3","","","1004","257","10","3","lose","go","0","0"
"pit-trial","358","2080572","0.0-263.0","battery-v0.2","","","-1","","","10","1004","885","a","elianto","#3366ff99","-1","-1","1","+10","[]","0","3","","","1004","258","9","2","win","no-go","0","0"
"pit-trial","359","2084216","0.0-264.0","battery-v0.2","","","789.8000000007451","","","10","1004","885","g","elianto","#3366ff99"," "," ","1","0","[1639.8999999994412]","1","3","","","1004","259","8","1","win","go","1","0"
"pit-trial","360","2088913","0.0-265.0","battery-v0.2","","","1842.699999999255","","","10","1004","885","u","elianto","#f73b6a7A","-1"," ","0","0","[2692.899999999441]","1","3","","","1004","260","11","4","lose","no-go","1","0"
"pit-instructions","361","2096919","0.0-266.0","battery-v0.2","","[{""page_index"":0,""viewing_time"":8003.300000000745}]","8004.200000000186","","","","","","","","","","","","","","","","","","","","","","","","",""
