"trial_type","trial_index","time_elapsed","internal_node_id","task_version","success","view_history","rt","responses","num_errors","age","subject","participantId","rune","rune_set","hex","correct","choice","accuracy","outcome","keys","total_keys","block","practice","value","sub","trial","stimulus","robot","valence","action","sham","browser_interactions"
"pavlovia","0","144","0.0-0.0","battery-v0.2","","","","","","","","","","","","","","","","","","","","","","","","","","","",""
"fullscreen","1","3766","0.0-1.0","battery-v0.2","true","","","","","","","","","","","","","","","","","","","","","","","","","","",""
"pit-instructions","2","9424","0.0-2.0-0.0","battery-v0.2","","[{""page_index"":0,""viewing_time"":5655.39999961853}]","5656","","","","","","","","","","","","","","","","","","","","","","","","",""
"pit-comprehension","3","12271","0.0-2.0-1.0-0.0","battery-v0.2","","","2843.5","[""shark""]","0","10","995","231","","","","","","","","","","","","","","","","","","","",""
"pit-instructions","4","14633","0.0-2.0-1.0-1.0","battery-v0.2","","[{""page_index"":0,""viewing_time"":2182.599998474121}]","2182.8999996185303","","","","","","","","","","","","","","","","","","","","","","","","",""
"pit-comprehension","5","19921","0.0-2.0-2.0-0.0","battery-v0.2","","","5285.39999961853","[""tiger""]","0","10","995","231","","","","","","","","","","","","","","","","","","","",""
"pit-instructions","6","21552","0.0-2.0-2.0-1.0","battery-v0.2","","[{""page_index"":0,""viewing_time"":1628.5}]","1628.900001525879","","","","","","","","","","","","","","","","","","","","","","","","",""
"pit-instructions","7","115085","0.0-2.0-3.0","battery-v0.2","","[{""page_index"":0,""viewing_time"":8491.30000114441},{""page_index"":1,""viewing_time"":5558.39999961853},{""page_index"":2,""viewing_time"":6220.60000038147},{""page_index"":3,""viewing_time"":5198},{""page_index"":4,""viewing_time"":6165},{""page_index"":5,""viewing_time"":6412.5},{""page_index"":6,""viewing_time"":7706.39999961853},{""page_index"":7,""viewing_time"":6007.89999961853},{""page_index"":8,""viewing_time"":7132.60000038147},{""page_index"":9,""viewing_time"":8032.799999237061},{""page_index"":10,""viewing_time"":8472.900001525879},{""page_index"":11,""viewing_time"":6568.89999961853},{""page_index"":12,""viewing_time"":6468.5},{""page_index"":13,""viewing_time"":5096.299999237061}]","93532.40000152588","","","","","","","","","","","","","","","","","","","","","","","","",""
"pit-trial","8","118136","0.0-2.0-4.0-0.0","battery-v0.2","","","194.10000038146973","","","10","995","231","&#9784;","elianto","#FFFFF080"," "," ","1","&#10004","[1045.400001525879,2823.1000003814697]","2","0","0","","","","","","","","",""
"pit-trial","9","121532","0.0-2.0-4.1-0.1","battery-v0.2","","","516.6000003814697","","","10","995","231","&#9784;","elianto","#FFFFF080"," "," ","1","&#10004","[1367.1000003814697]","1","0","0","","","","","","","","",""
"pit-trial","10","124928","0.0-2.0-4.2-0.2","battery-v0.2","","","543.4000015258789","","","10","995","231","&#9784;","elianto","#FFFFF080"," "," ","1","&#10004","[1393.900001525879]","1","0","0","","","","","","","","",""
"pit-trial","11","128417","0.0-2.0-4.3-0.3","battery-v0.2","","","633.1000003814697","","","10","995","231","&#9784;","elianto","#FFFFF080"," "," ","1","&#10004","[1485.2999992370605]","1","0","0","","","","","","","","",""
"pit-trial","12","131882","0.0-2.0-4.4-0.4","battery-v0.2","","","610.3000011444092","","","10","995","231","&#9784;","elianto","#FFFFF080"," "," ","1","&#10004","[1461.3000011444092]","1","0","0","","","","","","","","",""
"pit-instructions","13","156723","0.0-2.0-5.0","battery-v0.2","","[{""page_index"":0,""viewing_time"":5656.5},{""page_index"":1,""viewing_time"":7976.900001525879},{""page_index"":2,""viewing_time"":4725.699998855591},{""page_index"":3,""viewing_time"":6479.5}]","24838.80000114441","","","","","","","","","","","","","","","","","","","","","","","","",""
"pit-trial","14","161580","0.0-2.0-6.0-0.0","battery-v0.2","","","-1","","","10","995","231","&#9854;","elianto","#FFFFF080","-1","-1","1","&#10004","[]","0","0","1","","","","","","","","",""
"pit-trial","15","166440","0.0-2.0-6.1-0.1","battery-v0.2","","","-1","","","10","995","231","&#9854;","elianto","#FFFFF080","-1","-1","1","&#10004","[]","0","0","1","","","","","","","","",""
"pit-trial","16","171297","0.0-2.0-6.2-0.2","battery-v0.2","","","-1","","","10","995","231","&#9854;","elianto","#FFFFF080","-1","-1","1","&#10004","[]","0","0","1","","","","","","","","",""
"pit-trial","17","176156","0.0-2.0-6.3-0.3","battery-v0.2","","","-1","","","10","995","231","&#9854;","elianto","#FFFFF080","-1","-1","1","&#10004","[]","0","0","1","","","","","","","","",""
"pit-trial","18","181017","0.0-2.0-6.4-0.4","battery-v0.2","","","-1","","","10","995","231","&#9854;","elianto","#FFFFF080","-1","-1","1","&#10004","[]","0","0","1","","","","","","","","",""
"pit-instructions","19","298644","0.0-2.0-7.0","battery-v0.2","","[{""page_index"":0,""viewing_time"":5640.799999237061},{""page_index"":1,""viewing_time"":7469.900001525879},{""page_index"":2,""viewing_time"":6931.599998474121},{""page_index"":3,""viewing_time"":5691.800001144409},{""page_index"":4,""viewing_time"":6491.299999237061},{""page_index"":5,""viewing_time"":5748.700000762939},{""page_index"":6,""viewing_time"":4759},{""page_index"":7,""viewing_time"":9147.89999961853},{""page_index"":8,""viewing_time"":6197.60000038147},{""page_index"":9,""viewing_time"":6052.39999961853},{""page_index"":10,""viewing_time"":6221.89999961853},{""page_index"":11,""viewing_time"":5085.10000038147},{""page_index"":12,""viewing_time"":7897.60000038147},{""page_index"":13,""viewing_time"":6649},{""page_index"":14,""viewing_time"":6716.60000038147},{""page_index"":15,""viewing_time"":6277.39999961853},{""page_index"":16,""viewing_time"":6615.199998855591},{""page_index"":17,""viewing_time"":8032.900001525879}]","117627.10000038147","","","","","","","","","","","","","","","","","","","","","","","","",""
"pit-trial","20","302166","0.0-2.0-8.0-0.0","battery-v0.2","","","666.3000011444092","","","10","995","231","&#9776;","elianto","#3366ff99"," "," ","1","+10","[1517.3000011444092]","1","0","1","","","","","","","","",""
"pit-trial","21","305608","0.0-2.0-8.0-1.0","battery-v0.2","","","586.9000015258789","","","10","995","231","&#9776;","elianto","#3366ff99"," "," ","1","+10","[1438.400001525879]","1","0","1","","","","","","","","",""
"pit-trial","22","309141","0.0-2.0-8.0-2.0","battery-v0.2","","","676.6000003814697","","","10","995","231","&#9776;","elianto","#3366ff99"," "," ","1","+10","[1529.1000003814697]","1","0","1","","","","","","","","",""
"pit-trial","23","312693","0.0-2.0-8.0-3.0","battery-v0.2","","","698.7000007629395","","","10","995","231","&#9776;","elianto","#3366ff99"," "," ","1","0","[1550.6000003814697]","1","0","1","","","","","","","","",""
"pit-trial","24","316072","0.0-2.0-8.0-4.0","battery-v0.2","","","521.7000007629395","","","10","995","231","&#9776;","elianto","#3366ff99"," "," ","1","+10","[1373.7000007629395]","1","0","1","","","","","","","","",""
"call-function","25","316073","0.0-2.0-9.0","battery-v0.2","","","","","","","","","","","","","","","","","","","","","","","","","","","",""
"pit-instructions","26","359102","0.0-2.0-10.0","battery-v0.2","","[{""page_index"":0,""viewing_time"":6668.800001144409},{""page_index"":1,""viewing_time"":8640.19999885559},{""page_index"":2,""viewing_time"":9630.20000076294},{""page_index"":3,""viewing_time"":10260.29999923706},{""page_index"":4,""viewing_time"":7830}]","43029.80000114441","","","","","","","","","","","","","","","","","","","","","","","","",""
"pit-trial","27","362581","0.0-2.0-11.0-0.0","battery-v0.2","","","621.7999992370605","","","10","995","231","&#9761;","elianto","#3366ff99","-1"," ","0","0","[1472.7999992370605]","1","0","2","","","","","","","","",""
"pit-trial","28","367439","0.0-2.0-11.0-1.0","battery-v0.2","","","-1","","","10","995","231","&#9761;","elianto","#3366ff99","-1","-1","1","+10","[2921.7999992370605]","1","0","2","","","","","","","","",""
"pit-trial","29","372298","0.0-2.0-11.0-2.0","battery-v0.2","","","-1","","","10","995","231","&#9761;","elianto","#3366ff99","-1","-1","1","+10","[]","0","0","2","","","","","","","","",""
"pit-trial","30","375270","0.0-2.0-11.0-3.0","battery-v0.2","","","115.69999885559082","","","10","995","231","&#9761;","elianto","#3366ff99","-1"," ","0","+10","[967.1999988555908]","1","0","2","","","","","","","","",""
"pit-trial","31","380123","0.0-2.0-11.0-4.0","battery-v0.2","","","-1","","","10","995","231","&#9761;","elianto","#3366ff99","-1","-1","1","+10","[2944.7000007629395]","1","0","2","","","","","","","","",""
"pit-trial","32","384982","0.0-2.0-11.1-0.1","battery-v0.2","","","-1","","","10","995","231","&#9761;","elianto","#3366ff99","-1","-1","1","+10","[]","0","0","2","","","","","","","","",""
"pit-trial","33","389842","0.0-2.0-11.1-1.1","battery-v0.2","","","-1","","","10","995","231","&#9761;","elianto","#3366ff99","-1","-1","1","+10","[]","0","0","2","","","","","","","","",""
"pit-trial","34","394700","0.0-2.0-11.1-2.1","battery-v0.2","","","-1","","","10","995","231","&#9761;","elianto","#3366ff99","-1","-1","1","+10","[]","0","0","2","","","","","","","","",""
"pit-trial","35","399558","0.0-2.0-11.1-3.1","battery-v0.2","","","-1","","","10","995","231","&#9761;","elianto","#3366ff99","-1","-1","1","0","[3157.7000007629395,4327.200000762939,4619.700000762939,4856.200000762939]","4","0","2","","","","","","","","",""
"pit-trial","36","404412","0.0-2.0-11.1-4.1","battery-v0.2","","","-1","","","10","995","231","&#9761;","elianto","#3366ff99","-1","-1","1","+10","[213.29999923706055]","1","0","2","","","","","","","","",""
"call-function","37","404413","0.0-2.0-12.0","battery-v0.2","","","","","","","","","","","","","","","","","","","","","","","","","","","",""
"pit-instructions","38","445381","0.0-2.0-13.0","battery-v0.2","","[{""page_index"":0,""viewing_time"":6710.10000038147},{""page_index"":1,""viewing_time"":9461.69999885559},{""page_index"":2,""viewing_time"":4691.400001525879},{""page_index"":3,""viewing_time"":12735.19999885559},{""page_index"":4,""viewing_time"":7369.5}]","40968.20000076294","","","","","","","","","","","","","","","","","","","","","","","","",""
"pit-trial","39","448789","0.0-2.0-14.0-0.0","battery-v0.2","","","554.7000007629395","","","10","995","231","&#9826;","elianto","#f73b6a7A","-1"," ","0","-10","[1404.8999996185303]","1","0","3","","","","","","","","",""
"pit-trial","40","453648","0.0-2.0-14.0-1.0","battery-v0.2","","","-1","","","10","995","231","&#9826;","elianto","#f73b6a7A","-1","-1","1","0","[]","0","0","3","","","","","","","","",""
"pit-trial","41","458507","0.0-2.0-14.0-2.0","battery-v0.2","","","-1","","","10","995","231","&#9826;","elianto","#f73b6a7A","-1","-1","1","0","[]","0","0","3","","","","","","","","",""
"pit-trial","42","461508","0.0-2.0-14.0-3.0","battery-v0.2","","","142.79999923706055","","","10","995","231","&#9826;","elianto","#f73b6a7A","-1"," ","0","0","[995.1999988555908,2139.2999992370605]","2","0","3","","","","","","","","",""
"pit-trial","43","464956","0.0-2.0-14.0-4.0","battery-v0.2","","","593.2000007629395","","","10","995","231","&#9826;","elianto","#f73b6a7A","-1"," ","0","-10","[848.1000003814697,1443.7000007629395]","2","0","3","","","","","","","","",""
"pit-trial","44","468387","0.0-2.0-14.1-0.1","battery-v0.2","","","576.0999984741211","","","10","995","231","&#9826;","elianto","#f73b6a7A","-1"," ","0","-10","[1426.7999992370605,1652]","2","0","3","","","","","","","","",""
"pit-trial","45","471266","0.0-2.0-14.1-1.1","battery-v0.2","","","25.899999618530273","","","10","995","231","&#9826;","elianto","#f73b6a7A","-1"," ","0","-10","[877.0999984741211]","1","0","3","","","","","","","","",""
"pit-trial","46","474552","0.0-2.0-14.1-2.1","battery-v0.2","","","430","","","10","995","231","&#9826;","elianto","#f73b6a7A","-1"," ","0","-10","[766.3999996185303,1281.8999996185303]","2","0","3","","","","","","","","",""
"pit-trial","47","477568","0.0-2.0-14.1-3.1","battery-v0.2","","","161.89999961853027","","","10","995","231","&#9826;","elianto","#f73b6a7A","-1"," ","0","0","[833.1000003814697,1013.8000011444092,1191,1371.1000003814697,2316.2000007629395]","5","0","3","","","","","","","","",""
"pit-trial","48","481010","0.0-2.0-14.1-4.1","battery-v0.2","","","586.8000011444092","","","10","995","231","&#9826;","elianto","#f73b6a7A","-1"," ","0","-10","[1437.5,1741.1000003814697]","2","0","3","","","","","","","","",""
"pit-trial","49","485867","0.0-2.0-14.2-0.2","battery-v0.2","","","-1","","","10","995","231","&#9826;","elianto","#f73b6a7A","-1","-1","1","0","[]","0","0","3","","","","","","","","",""
"pit-trial","50","490725","0.0-2.0-14.2-1.2","battery-v0.2","","","-1","","","10","995","231","&#9826;","elianto","#f73b6a7A","-1","-1","1","0","[]","0","0","3","","","","","","","","",""
"pit-trial","51","495584","0.0-2.0-14.2-2.2","battery-v0.2","","","-1","","","10","995","231","&#9826;","elianto","#f73b6a7A","-1","-1","1","0","[]","0","0","3","","","","","","","","",""
"pit-trial","52","500443","0.0-2.0-14.2-3.2","battery-v0.2","","","-1","","","10","995","231","&#9826;","elianto","#f73b6a7A","-1","-1","1","-10","[]","0","0","3","","","","","","","","",""
"pit-trial","53","505301","0.0-2.0-14.2-4.2","battery-v0.2","","","-1","","","10","995","231","&#9826;","elianto","#f73b6a7A","-1","-1","1","0","[]","0","0","3","","","","","","","","",""
"call-function","54","505302","0.0-2.0-15.0","battery-v0.2","","","","","","","","","","","","","","","","","","","","","","","","","","","",""
"pit-instructions","55","538612","0.0-2.0-16.0","battery-v0.2","","[{""page_index"":0,""viewing_time"":9930.5},{""page_index"":1,""viewing_time"":10170.10000038147},{""page_index"":2,""viewing_time"":5839.299999237061},{""page_index"":3,""viewing_time"":7369.200000762939}]","33310.10000038147","","","","","","","","","","","","","","","","","","","","","","","","",""
"pit-trial","56","543268","0.0-2.0-17.0-0.0","battery-v0.2","","","1799.2999992370605","","","10","995","231","&#9789;","elianto","#f73b6a7A"," "," ","1","0","[2652.8999996185303]","1","0","4","","","","","","","","",""
"pit-trial","57","546600","0.0-2.0-17.0-1.0","battery-v0.2","","","475.5","","","10","995","231","&#9789;","elianto","#f73b6a7A"," "," ","1","0","[1326]","1","0","4","","","","","","","","",""
"pit-trial","58","551458","0.0-2.0-17.0-2.0","battery-v0.2","","","-1","","","10","995","231","&#9789;","elianto","#f73b6a7A"," ","-1","0","-10","[]","0","0","4","","","","","","","","",""
"pit-trial","59","556317","0.0-2.0-17.0-3.0","battery-v0.2","","","-1","","","10","995","231","&#9789;","elianto","#f73b6a7A"," ","-1","0","0","[]","0","0","4","","","","","","","","",""
"pit-trial","60","561176","0.0-2.0-17.0-4.0","battery-v0.2","","","-1","","","10","995","231","&#9789;","elianto","#f73b6a7A"," ","-1","0","-10","[]","0","0","4","","","","","","","","",""
"pit-trial","61","566036","0.0-2.0-17.1-0.1","battery-v0.2","","","-1","","","10","995","231","&#9789;","elianto","#f73b6a7A"," ","-1","0","-10","[]","0","0","4","","","","","","","","",""
"pit-trial","62","570894","0.0-2.0-17.1-1.1","battery-v0.2","","","-1","","","10","995","231","&#9789;","elianto","#f73b6a7A"," ","-1","0","-10","[]","0","0","4","","","","","","","","",""
"pit-trial","63","575753","0.0-2.0-17.1-2.1","battery-v0.2","","","-1","","","10","995","231","&#9789;","elianto","#f73b6a7A"," ","-1","0","-10","[]","0","0","4","","","","","","","","",""
"pit-trial","64","580612","0.0-2.0-17.1-3.1","battery-v0.2","","","-1","","","10","995","231","&#9789;","elianto","#f73b6a7A"," ","-1","0","0","[]","0","0","4","","","","","","","","",""
"pit-trial","65","585470","0.0-2.0-17.1-4.1","battery-v0.2","","","-1","","","10","995","231","&#9789;","elianto","#f73b6a7A"," ","-1","0","-10","[]","0","0","4","","","","","","","","",""
"pit-trial","66","590329","0.0-2.0-17.2-0.2","battery-v0.2","","","-1","","","10","995","231","&#9789;","elianto","#f73b6a7A"," ","-1","0","-10","[]","0","0","4","","","","","","","","",""
"pit-trial","67","595188","0.0-2.0-17.2-1.2","battery-v0.2","","","-1","","","10","995","231","&#9789;","elianto","#f73b6a7A"," ","-1","0","-10","[]","0","0","4","","","","","","","","",""
"pit-trial","68","600047","0.0-2.0-17.2-2.2","battery-v0.2","","","-1","","","10","995","231","&#9789;","elianto","#f73b6a7A"," ","-1","0","-10","[]","0","0","4","","","","","","","","",""
"pit-trial","69","604905","0.0-2.0-17.2-3.2","battery-v0.2","","","-1","","","10","995","231","&#9789;","elianto","#f73b6a7A"," ","-1","0","0","[]","0","0","4","","","","","","","","",""
"pit-trial","70","609764","0.0-2.0-17.2-4.2","battery-v0.2","","","-1","","","10","995","231","&#9789;","elianto","#f73b6a7A"," ","-1","0","-10","[]","0","0","4","","","","","","","","",""
"pit-trial","71","614623","0.0-2.0-17.3-0.3","battery-v0.2","","","-1","","","10","995","231","&#9789;","elianto","#f73b6a7A"," ","-1","0","-10","[]","0","0","4","","","","","","","","",""
"pit-trial","72","619481","0.0-2.0-17.3-1.3","battery-v0.2","","","-1","","","10","995","231","&#9789;","elianto","#f73b6a7A"," ","-1","0","-10","[4223.199998855591,4402.699998855591,4616.299999237061]","3","0","4","","","","","","","","",""
"pit-trial","73","622535","0.0-2.0-17.3-2.3","battery-v0.2","","","199.60000038146973","","","10","995","231","&#9789;","elianto","#f73b6a7A"," "," ","1","0","[5.5,210.89999961853027,1051.5,1242.8000011444092]","4","0","4","","","","","","","","",""
"pit-trial","74","627394","0.0-2.0-17.3-3.3","battery-v0.2","","","-1","","","10","995","231","&#9789;","elianto","#f73b6a7A"," ","-1","0","0","[]","0","0","4","","","","","","","","",""
"pit-trial","75","632252","0.0-2.0-17.3-4.3","battery-v0.2","","","-1","","","10","995","231","&#9789;","elianto","#f73b6a7A"," ","-1","0","-10","[]","0","0","4","","","","","","","","",""
"pit-trial","76","637113","0.0-2.0-17.4-0.4","battery-v0.2","","","-1","","","10","995","231","&#9789;","elianto","#f73b6a7A"," ","-1","0","-10","[]","0","0","4","","","","","","","","",""
"pit-trial","77","641970","0.0-2.0-17.4-1.4","battery-v0.2","","","-1","","","10","995","231","&#9789;","elianto","#f73b6a7A"," ","-1","0","-10","[]","0","0","4","","","","","","","","",""
"pit-trial","78","646828","0.0-2.0-17.4-2.4","battery-v0.2","","","-1","","","10","995","231","&#9789;","elianto","#f73b6a7A"," ","-1","0","-10","[]","0","0","4","","","","","","","","",""
"pit-trial","79","651687","0.0-2.0-17.4-3.4","battery-v0.2","","","-1","","","10","995","231","&#9789;","elianto","#f73b6a7A"," ","-1","0","0","[]","0","0","4","","","","","","","","",""
"pit-trial","80","656546","0.0-2.0-17.4-4.4","battery-v0.2","","","-1","","","10","995","231","&#9789;","elianto","#f73b6a7A"," ","-1","0","-10","[]","0","0","4","","","","","","","","",""
"pit-instructions","81","678507","0.0-2.0-17.4-5.4-0.4","battery-v0.2","","[{""page_index"":0,""viewing_time"":6289.699998855591},{""page_index"":1,""viewing_time"":6715.300001144409},{""page_index"":2,""viewing_time"":8955.39999961853}]","21960.79999923706","","","","","","","","","","","","","","","","","","","","","","","","",""
"pit-trial","82","682118","0.0-2.0-17.5-0.5","battery-v0.2","","","755.2000007629395","","","10","995","231","&#9789;","elianto","#f73b6a7A"," "," ","1","0","[1607.2000007629395]","1","0","4","","","","","","","","",""
"pit-trial","83","685270","0.0-2.0-17.5-1.5","battery-v0.2","","","295.20000076293945","","","10","995","231","&#9789;","elianto","#f73b6a7A"," "," ","1","0","[1146.5]","1","0","4","","","","","","","","",""
"pit-trial","84","688439","0.0-2.0-17.5-2.5","battery-v0.2","","","315.1000003814697","","","10","995","231","&#9789;","elianto","#f73b6a7A"," "," ","1","0","[1167.2000007629395]","1","0","4","","","","","","","","",""
"pit-trial","85","691522","0.0-2.0-17.5-3.5","battery-v0.2","","","228.20000076293945","","","10","995","231","&#9789;","elianto","#f73b6a7A"," "," ","1","-10","[136.60000038146973,1080.6000003814697,1293.7999992370605]","3","0","4","","","","","","","","",""
"pit-trial","86","694662","0.0-2.0-17.5-4.5","battery-v0.2","","","284.8000011444092","","","10","995","231","&#9789;","elianto","#f73b6a7A"," "," ","1","0","[363.3000011444092,651.8000011444092,1136.3000011444092]","3","0","4","","","","","","","","",""
"call-function","87","694663","0.0-2.0-18.0","battery-v0.2","","","","","","","","","","","","","","","","","","","","","","","","","","","",""
"pit-instructions","88","770534","0.0-2.0-19.0","battery-v0.2","","[{""page_index"":0,""viewing_time"":7333.39999961853},{""page_index"":1,""viewing_time"":6311.5},{""page_index"":2,""viewing_time"":15682.79999923706},{""page_index"":3,""viewing_time"":8055.60000038147},{""page_index"":4,""viewing_time"":8763.89999961853},{""page_index"":5,""viewing_time"":10215.20000076294},{""page_index"":6,""viewing_time"":10282.89999961853},{""page_index"":7,""viewing_time"":5467.700000762939},{""page_index"":8,""viewing_time"":3757.599998474121}]","75870.89999961853","","","","","","","","","","","","","","","","","","","","","","","","",""
"pit-comprehension","89","776599","0.0-2.0-20.0-0.0","battery-v0.2","","","6062.60000038147","[""SPACE""]","0","10","995","231","","","","","","","","","","","","","","","","","","","",""
"pit-instructions","90","780209","0.0-2.0-20.0-1.0","battery-v0.2","","[{""page_index"":0,""viewing_time"":3591.6000003814697}]","3591.8999996185303","","","","","","","","","","","","","","","","","","","","","","","","",""
"pit-comprehension","91","786701","0.0-2.0-21.0-0.0","battery-v0.2","","","6489.60000038147","[""10""]","0","10","995","231","","","","","","","","","","","","","","","","","","","",""
"pit-instructions","92","789704","0.0-2.0-21.0-1.0","battery-v0.2","","[{""page_index"":0,""viewing_time"":2985.7999992370605}]","2986.1000003814697","","","","","","","","","","","","","","","","","","","","","","","","",""
"pit-comprehension","93","796410","0.0-2.0-22.0-0.0","battery-v0.2","","","6703.10000038147","[""0""]","0","10","995","231","","","","","","","","","","","","","","","","","","","",""
"pit-instructions","94","799840","0.0-2.0-22.0-1.0","battery-v0.2","","[{""page_index"":0,""viewing_time"":3412}]","3412.400001525879","","","","","","","","","","","","","","","","","","","","","","","","",""
"pit-comprehension","95","813409","0.0-2.0-23.0-0.0","battery-v0.2","","","13565.89999961853","[""True""]","0","10","995","231","","","","","","","","","","","","","","","","","","","",""
"pit-instructions","96","816209","0.0-2.0-23.0-1.0","battery-v0.2","","[{""page_index"":0,""viewing_time"":2782.8999996185303}]","2783.2999992370605","","","","","","","","","","","","","","","","","","","","","","","","",""
"pit-comprehension","97","830993","0.0-2.0-24.0-0.0","battery-v0.2","","","14781","[""True""]","0","10","995","231","","","","","","","","","","","","","","","","","","","",""
"pit-instructions","98","833760","0.0-2.0-24.0-1.0","battery-v0.2","","[{""page_index"":0,""viewing_time"":2749.3999996185303}]","2749.7000007629395","","","","","","","","","","","","","","","","","","","","","","","","",""
"pit-comprehension","99","840770","0.0-2.0-25.0-0.0","battery-v0.2","","","7007.300001144409","[""True""]","0","10","995","231","","","","","","","","","","","","","","","","","","","",""
"pit-instructions","100","842141","0.0-2.0-25.0-1.0","battery-v0.2","","[{""page_index"":0,""viewing_time"":1353.099998474121}]","1353.2999992370605","","","","","","","","","","","","","","","","","","","","","","","","",""
"pit-comprehension","101","847418","0.0-2.0-26.0-0.0","battery-v0.2","","","5274.39999961853","[""False""]","0","10","995","231","","","","","","","","","","","","","","","","","","","",""
"pit-instructions","102","849656","0.0-2.0-26.0-1.0","battery-v0.2","","[{""page_index"":0,""viewing_time"":2218.2999992370605}]","2218.699998855591","","","","","","","","","","","","","","","","","","","","","","","","",""
"pit-instructions","103","868815","0.0-3.0","battery-v0.2","","[{""page_index"":0,""viewing_time"":5114.900001525879},{""page_index"":1,""viewing_time"":6031.099998474121},{""page_index"":2,""viewing_time"":7998.700000762939}]","19144.90000152588","","","","","","","","","","","","","","","","","","","","","","","","",""
"pit-trial","104","872495","0.0-4.0","battery-v0.2","","","749","","","10","995","231","&#9730;","elianto","#3366ff99"," "," ","1","0","[1599.3000011444092]","1","1","","","995","1","1","1","win","go","1","[]"
"pit-trial","105","875827","0.0-5.0","battery-v0.2","","","475","","","10","995","231","&#9728;","elianto","#f73b6a7A","-1"," ","0","-10","[1325.2999992370605]","1","1","","","995","2","0","4","lose","no-go","0","0"
"pit-trial","106","880687","0.0-6.0","battery-v0.2","","","-1","","","10","995","231","&#9752;","elianto","#f73b6a7A"," ","-1","0","-10","[3145.8999996185303]","1","1","","","995","3","3","3","lose","go","0","0"
"pit-trial","107","883995","0.0-7.0","battery-v0.2","","","450.8999996185303","","","10","995","231","&#9733;","elianto","#3366ff99","-1"," ","0","0","[1301.2999992370605]","1","1","","","995","4","2","2","win","no-go","0","0"
"pit-trial","108","887455","0.0-8.0","battery-v0.2","","","607.2999992370605","","","10","995","231","&#9728;","elianto","#f73b6a7A","-1"," ","0","-10","[1458.7999992370605]","1","1","","","995","5","0","4","lose","no-go","0","0"
"pit-trial","109","891170","0.0-9.0","battery-v0.2","","","858.6999988555908","","","10","995","231","&#9733;","elianto","#3366ff99","-1"," ","0","0","[1710.7999992370605]","1","1","","","995","6","2","2","win","no-go","0","0"
"pit-trial","110","894839","0.0-10.0","battery-v0.2","","","811.2000007629395","","","10","995","231","&#9730;","elianto","#3366ff99"," "," ","1","+10","[1663.2000007629395]","1","1","","","995","7","1","1","win","go","0","0"
"pit-trial","111","899699","0.0-11.0","battery-v0.2","","","-1","","","10","995","231","&#9752;","elianto","#f73b6a7A"," ","-1","0","-10","[]","0","1","","","995","8","3","3","lose","go","0","0"
"pit-trial","112","903478","0.0-12.0","battery-v0.2","","","922.6000003814697","","","10","995","231","&#9730;","elianto","#3366ff99"," "," ","1","+10","[1774.6000003814697]","1","1","","","995","9","1","1","win","go","0","0"
"pit-trial","113","908336","0.0-13.0","battery-v0.2","","","-1","","","10","995","231","&#9733;","elianto","#3366ff99","-1","-1","1","+10","[]","0","1","","","995","10","2","2","win","no-go","0","0"
"pit-trial","114","911959","0.0-14.0","battery-v0.2","","","769.3999996185303","","","10","995","231","&#9752;","elianto","#f73b6a7A"," "," ","1","0","[1619.7999992370605]","1","1","","","995","11","3","3","lose","go","0","0"
"pit-trial","115","915720","0.0-15.0","battery-v0.2","","","902.6000003814697","","","10","995","231","&#9728;","elianto","#f73b6a7A","-1"," ","0","-10","[1754.2000007629395]","1","1","","","995","12","0","4","lose","no-go","0","0"
"pit-trial","116","920579","0.0-16.0","battery-v0.2","","","-1","","","10","995","231","&#9728;","elianto","#f73b6a7A","-1","-1","1","0","[]","0","1","","","995","13","0","4","lose","no-go","0","0"
"pit-trial","117","924085","0.0-17.0","battery-v0.2","","","654","","","10","995","231","&#9730;","elianto","#3366ff99"," "," ","1","+10","[1504.1000003814697]","1","1","","","995","14","1","1","win","go","0","0"
"pit-trial","118","927731","0.0-18.0","battery-v0.2","","","792.2999992370605","","","10","995","231","&#9733;","elianto","#3366ff99","-1"," ","0","0","[1643.1000003814697]","1","1","","","995","15","2","2","win","no-go","0","0"
"pit-trial","119","931334","0.0-19.0","battery-v0.2","","","746.5","","","10","995","231","&#9752;","elianto","#f73b6a7A"," "," ","1","0","[1597.3999996185303]","1","1","","","995","16","3","3","lose","go","0","0"
"pit-trial","120","934819","0.0-20.0","battery-v0.2","","","630.6999988555908","","","10","995","231","&#9752;","elianto","#f73b6a7A"," "," ","1","0","[1482.1000003814697]","1","1","","","995","17","3","3","lose","go","0","0"
"pit-trial","121","938243","0.0-21.0","battery-v0.2","","","565.6999988555908","","","10","995","231","&#9730;","elianto","#3366ff99"," "," ","1","+10","[1417.3999996185303]","1","1","","","995","18","1","1","win","go","0","0"
"pit-trial","122","943102","0.0-22.0","battery-v0.2","","","-1","","","10","995","231","&#9728;","elianto","#f73b6a7A","-1","-1","1","0","[]","0","1","","","995","19","0","4","lose","no-go","0","0"
"pit-trial","123","946927","0.0-23.0","battery-v0.2","","","969.2000007629395","","","10","995","231","&#9733;","elianto","#3366ff99","-1"," ","0","+10","[1819.400001525879]","1","1","","","995","20","2","2","win","no-go","1","0"
"pit-instructions","124","960684","0.0-24.0","battery-v0.2","","[{""page_index"":0,""viewing_time"":6488.39999961853},{""page_index"":1,""viewing_time"":7267.60000038147}]","13756.19999885559","","","","","","","","","","","","","","","","","","","","","","","","",""
"pit-trial","125","965537","0.0-25.0","battery-v0.2","","","-1","","","10","995","231","m","elianto","#3366ff99","-1","-1","1","+10","[]","0","2","","","995","21","0","2","win","no-go","0","0"
"pit-trial","126","970393","0.0-26.0","battery-v0.2","","","-1","","","10","995","231","y","elianto","#f73b6a7A","-1","-1","1","0","[]","0","2","","","995","22","2","4","lose","no-go","0","0"
"pit-trial","127","973609","0.0-27.0","battery-v0.2","","","361.8000011444092","","","10","995","231","h","elianto","#3366ff99"," "," ","1","+10","[1213.7000007629395]","1","2","","","995","23","3","1","win","go","0","0"
"pit-trial","128","978468","0.0-28.0","battery-v0.2","","","-1","","","10","995","231","r","elianto","#f73b6a7A"," ","-1","0","-10","[22.30000114440918]","1","2","","","995","24","1","3","lose","go","0","0"
"pit-trial","129","982049","0.0-29.0","battery-v0.2","","","724.6000003814697","","","10","995","231","h","elianto","#3366ff99"," "," ","1","+10","[1576.5]","1","2","","","995","25","3","1","win","go","0","0"
"pit-trial","130","985399","0.0-30.0","battery-v0.2","","","497.5","","","10","995","231","r","elianto","#f73b6a7A"," "," ","1","0","[1347.8999996185303]","1","2","","","995","26","1","3","lose","go","0","0"
"pit-trial","131","988911","0.0-31.0","battery-v0.2","","","658.1999988555908","","","10","995","231","m","elianto","#3366ff99","-1"," ","0","+10","[1508.400001525879]","1","2","","","995","27","0","2","win","no-go","1","0"
"pit-trial","132","992424","0.0-32.0","battery-v0.2","","","654.9000015258789","","","10","995","231","y","elianto","#f73b6a7A","-1"," ","0","0","[1507]","1","2","","","995","28","2","4","lose","no-go","1","0"
"pit-trial","133","996069","0.0-33.0","battery-v0.2","","","787.9000015258789","","","10","995","231","h","elianto","#3366ff99"," "," ","1","+10","[1637.8999996185303]","1","2","","","995","29","3","1","win","go","0","0"
"pit-trial","134","999349","0.0-34.0","battery-v0.2","","","426","","","10","995","231","y","elianto","#f73b6a7A","-1"," ","0","0","[65.10000038146973,1278.2999992370605]","2","2","","","995","30","2","4","lose","no-go","1","0"
"pit-trial","135","1002838","0.0-35.0","battery-v0.2","","","635.3000011444092","","","10","995","231","m","elianto","#3366ff99","-1"," ","0","+10","[1485.3999996185303]","1","2","","","995","31","0","2","win","no-go","1","0"
"pit-trial","136","1005967","0.0-36.0","battery-v0.2","","","273.6000003814697","","","10","995","231","r","elianto","#f73b6a7A"," "," ","1","0","[1124.2000007629395]","1","2","","","995","32","1","3","lose","go","0","0"
"pit-trial","137","1008962","0.0-37.0","battery-v0.2","","","137","","","10","995","231","h","elianto","#3366ff99"," "," ","1","0","[989.2000007629395]","1","2","","","995","33","3","1","win","go","1","0"
"pit-trial","138","1011929","0.0-38.0","battery-v0.2","","","112","","","10","995","231","y","elianto","#f73b6a7A","-1"," ","0","-10","[962.6999988555908]","1","2","","","995","34","2","4","lose","no-go","0","0"
"pit-trial","139","1014964","0.0-39.0","battery-v0.2","","","183.60000038146973","","","10","995","231","m","elianto","#3366ff99","-1"," ","0","+10","[1033.7000007629395]","1","2","","","995","35","0","2","win","no-go","1","0"
"pit-trial","140","1018096","0.0-40.0","battery-v0.2","","","275.5","","","10","995","231","r","elianto","#f73b6a7A"," "," ","1","0","[69,1125.5]","2","2","","","995","36","1","3","lose","go","0","0"
"pit-trial","141","1021425","0.0-41.0","battery-v0.2","","","471.1999988555908","","","10","995","231","y","elianto","#f73b6a7A","-1"," ","0","-10","[494.6000003814697,1323.8999996185303]","2","2","","","995","37","2","4","lose","no-go","0","0"
"pit-trial","142","1025295","0.0-42.0","battery-v0.2","","","1014.3000011444092","","","10","995","231","h","elianto","#3366ff99"," "," ","1","+10","[1864.8000011444092]","1","2","","","995","38","3","1","win","go","0","0"
"pit-trial","143","1028960","0.0-43.0","battery-v0.2","","","812.3000011444092","","","10","995","231","r","elianto","#f73b6a7A"," "," ","1","0","[1662.8000011444092]","1","2","","","995","39","1","3","lose","go","0","0"
"pit-trial","144","1033819","0.0-44.0","battery-v0.2","","","-1","","","10","995","231","m","elianto","#3366ff99","-1","-1","1","+10","[]","0","2","","","995","40","0","2","win","no-go","0","0"
"pit-trial","145","1038027","0.0-45.0","battery-v0.2","","","1357","","","10","995","231","r","elianto","#f73b6a7A"," "," ","1","0","[2207]","1","2","","","995","41","1","3","lose","go","0","0"
"pit-trial","146","1042882","0.0-46.0","battery-v0.2","","","-1","","","10","995","231","h","elianto","#3366ff99"," ","-1","0","+10","[3646]","1","2","","","995","42","3","1","win","go","1","0"
"pit-trial","147","1047741","0.0-47.0","battery-v0.2","","","-1","","","10","995","231","m","elianto","#3366ff99","-1","-1","1","+10","[3786.2999992370605]","1","2","","","995","43","0","2","win","no-go","0","0"
"pit-trial","148","1052180","0.0-48.0","battery-v0.2","","","1585.2999992370605","","","10","995","231","y","elianto","#f73b6a7A","-1"," ","0","-10","[2437.199998855591]","1","2","","","995","44","2","4","lose","no-go","0","0"
"pit-trial","149","1057039","0.0-49.0","battery-v0.2","","","-1","","","10","995","231","y","elianto","#f73b6a7A","-1","-1","1","0","[3466.300001144409]","1","2","","","995","45","2","4","lose","no-go","0","0"
"pit-trial","150","1061897","0.0-50.0","battery-v0.2","","","-1","","","10","995","231","r","elianto","#f73b6a7A"," ","-1","0","-10","[3906.2000007629395,4715.799999237061]","2","2","","","995","46","1","3","lose","go","0","0"
"pit-trial","151","1065467","0.0-51.0","battery-v0.2","","","717.4000015258789","","","10","995","231","h","elianto","#3366ff99"," "," ","1","+10","[1567.7000007629395]","1","2","","","995","47","3","1","win","go","0","0"
"pit-trial","152","1069072","0.0-52.0","battery-v0.2","","","746.7999992370605","","","10","995","231","m","elianto","#3366ff99","-1"," ","0","0","[1597.400001525879]","1","2","","","995","48","0","2","win","no-go","0","0"
"pit-trial","153","1073931","0.0-53.0","battery-v0.2","","","-1","","","10","995","231","r","elianto","#f73b6a7A"," ","-1","0","-10","[]","0","2","","","995","49","1","3","lose","go","0","0"
"pit-trial","154","1078789","0.0-54.0","battery-v0.2","","","-1","","","10","995","231","y","elianto","#f73b6a7A","-1","-1","1","0","[]","0","2","","","995","50","2","4","lose","no-go","0","0"
"pit-trial","155","1083648","0.0-55.0","battery-v0.2","","","-1","","","10","995","231","m","elianto","#3366ff99","-1","-1","1","+10","[20.399999618530273]","1","2","","","995","51","0","2","win","no-go","0","0"
"pit-trial","156","1088507","0.0-56.0","battery-v0.2","","","-1","","","10","995","231","h","elianto","#3366ff99"," ","-1","0","0","[2991.7999992370605]","1","2","","","995","52","3","1","win","go","0","0"
"pit-trial","157","1092358","0.0-57.0","battery-v0.2","","","994.2999992370605","","","10","995","231","c","elianto","#f73b6a7A","-1"," ","0","-10","[1846.1999988555908]","1","2","","","995","53","5","4","lose","no-go","0","0"
"pit-trial","158","1096814","0.0-58.0","battery-v0.2","","","1597.8999996185303","","","10","995","231","r","elianto","#f73b6a7A"," "," ","1","-10","[2449.3999996185303]","1","2","","","995","54","1","3","lose","go","1","0"
"pit-trial","159","1100413","0.0-59.0","battery-v0.2","","","742.1000003814697","","","10","995","231","y","elianto","#f73b6a7A","-1"," ","0","-10","[1594.2000007629395]","1","2","","","995","55","2","4","lose","no-go","0","0"
"pit-trial","160","1103797","0.0-60.0","battery-v0.2","","","529.8999996185303","","","10","995","231","z","elianto","#f73b6a7A"," "," ","1","-10","[719,1381.3000011444092]","2","2","","","995","56","4","3","lose","go","1","0"
"pit-trial","161","1108655","0.0-61.0","battery-v0.2","","","-1","","","10","995","231","c","elianto","#f73b6a7A","-1","-1","1","0","[3791]","1","2","","","995","57","5","4","lose","no-go","0","0"
"pit-trial","162","1113514","0.0-62.0","battery-v0.2","","","-1","","","10","995","231","z","elianto","#f73b6a7A"," ","-1","0","-10","[2892.8999996185303]","1","2","","","995","58","4","3","lose","go","0","0"
"pit-trial","163","1118077","0.0-63.0","battery-v0.2","","","1704.1000003814697","","","10","995","231","r","elianto","#f73b6a7A"," "," ","1","0","[2555.7000007629395]","1","2","","","995","59","1","3","lose","go","0","0"
"pit-trial","164","1122935","0.0-64.0","battery-v0.2","","","-1","","","10","995","231","y","elianto","#f73b6a7A","-1","-1","1","0","[]","0","2","","","995","60","2","4","lose","no-go","0","0"
"pit-trial","165","1127075","0.0-65.0","battery-v0.2","","","1285.1000003814697","","","10","995","231","y","elianto","#f73b6a7A","-1"," ","0","-10","[201.5,2135.3999996185303]","2","2","","","995","61","2","4","lose","no-go","0","0"
"pit-trial","166","1130337","0.0-66.0","battery-v0.2","","","407.1000003814697","","","10","995","231","b","elianto","#3366ff99","-1"," ","0","0","[1258.8000011444092]","1","2","","","995","62","6","2","win","no-go","0","0"
"pit-trial","167","1135132","0.0-67.0","battery-v0.2","","","1937.2999992370605","","","10","995","231","c","elianto","#f73b6a7A","-1"," ","0","-10","[2788.8999996185303]","1","2","","","995","63","5","4","lose","no-go","0","0"
"pit-trial","168","1138777","0.0-68.0","battery-v0.2","","","788.5","","","10","995","231","z","elianto","#f73b6a7A"," "," ","1","0","[1639.1000003814697]","1","2","","","995","64","4","3","lose","go","0","0"
"pit-trial","169","1143636","0.0-69.0","battery-v0.2","","","-1","","","10","995","231","y","elianto","#f73b6a7A","-1","-1","1","0","[3236.300001144409]","1","2","","","995","65","2","4","lose","no-go","0","0"
"pit-trial","170","1148495","0.0-70.0","battery-v0.2","","","-1","","","10","995","231","z","elianto","#f73b6a7A"," ","-1","0","-10","[3822.7999992370605]","1","2","","","995","66","4","3","lose","go","0","0"
"pit-trial","171","1151914","0.0-71.0","battery-v0.2","","","566.1000003814697","","","10","995","231","b","elianto","#3366ff99","-1"," ","0","0","[1416.3000011444092]","1","2","","","995","67","6","2","win","no-go","0","0"
"pit-trial","172","1156279","0.0-72.0","battery-v0.2","","","1512.5","","","10","995","231","c","elianto","#f73b6a7A","-1"," ","0","-10","[2362.6000003814697]","1","2","","","995","68","5","4","lose","no-go","0","0"
"pit-trial","173","1161138","0.0-73.0","battery-v0.2","","","-1","","","10","995","231","b","elianto","#3366ff99","-1","-1","1","0","[3509.7000007629395,3824.5,4038.6000003814697,4702.299999237061]","4","2","","","995","69","6","2","win","no-go","1","0"
"pit-trial","174","1164586","0.0-74.0","battery-v0.2","","","590","","","10","995","231","z","elianto","#f73b6a7A"," "," ","1","0","[1441]","1","2","","","995","70","4","3","lose","go","0","0"
"pit-trial","175","1167778","0.0-75.0","battery-v0.2","","","336.1000003814697","","","10","995","231","t","elianto","#3366ff99"," "," ","1","0","[1188.1999988555908]","1","2","","","995","71","7","1","win","go","1","0"
"pit-trial","176","1170884","0.0-76.0","battery-v0.2","","","249.60000038146973","","","10","995","231","c","elianto","#f73b6a7A","-1"," ","0","0","[1100.6000003814697]","1","2","","","995","72","5","4","lose","no-go","1","0"
"pit-trial","177","1174112","0.0-77.0","battery-v0.2","","","372.79999923706055","","","10","995","231","z","elianto","#f73b6a7A"," "," ","1","0","[784.7000007629395,1222.8999996185303]","2","2","","","995","73","4","3","lose","go","0","0"
"pit-trial","178","1178715","0.0-78.0","battery-v0.2","","","1745.5","","","10","995","231","t","elianto","#3366ff99"," "," ","1","+10","[2597.3999996185303]","1","2","","","995","74","7","1","win","go","0","0"
"pit-trial","179","1182065","0.0-79.0","battery-v0.2","","","495.1999988555908","","","10","995","231","c","elianto","#f73b6a7A","-1"," ","0","0","[1346.5]","1","2","","","995","75","5","4","lose","no-go","1","0"
"pit-trial","180","1185014","0.0-80.0","battery-v0.2","","","94.4000015258789","","","10","995","231","b","elianto","#3366ff99","-1"," ","0","0","[944.6000003814697]","1","2","","","995","76","6","2","win","no-go","0","0"
"pit-trial","181","1188566","0.0-81.0","battery-v0.2","","","700.1000003814697","","","10","995","231","t","elianto","#3366ff99"," "," ","1","+10","[1550.8999996185303]","1","2","","","995","77","7","1","win","go","0","0"
"pit-trial","182","1193426","0.0-82.0","battery-v0.2","","","-1","","","10","995","231","c","elianto","#f73b6a7A","-1","-1","1","0","[]","0","2","","","995","78","5","4","lose","no-go","0","0"
"pit-trial","183","1198283","0.0-83.0","battery-v0.2","","","-1","","","10","995","231","z","elianto","#f73b6a7A"," ","-1","0","0","[]","0","2","","","995","79","4","3","lose","go","1","0"
"pit-trial","184","1203142","0.0-84.0","battery-v0.2","","","-1","","","10","995","231","b","elianto","#3366ff99","-1","-1","1","+10","[3491.5]","1","2","","","995","80","6","2","win","no-go","0","0"
"pit-trial","185","1207333","0.0-85.0","battery-v0.2","","","1336.8999996185303","","","10","995","231","b","elianto","#3366ff99","-1"," ","0","0","[2187.6000003814697]","1","2","","","995","81","6","2","win","no-go","0","0"
"pit-trial","186","1210845","0.0-86.0","battery-v0.2","","","654.5","","","10","995","231","t","elianto","#3366ff99"," "," ","1","+10","[1506.5]","1","2","","","995","82","7","1","win","go","0","0"
"pit-trial","187","1215704","0.0-87.0","battery-v0.2","","","-1","","","10","995","231","c","elianto","#f73b6a7A","-1","-1","1","-10","[]","0","2","","","995","83","5","4","lose","no-go","1","0"
"pit-trial","188","1220563","0.0-88.0","battery-v0.2","","","-1","","","10","995","231","z","elianto","#f73b6a7A"," ","-1","0","-10","[]","0","2","","","995","84","4","3","lose","go","0","0"
"pit-trial","189","1224028","0.0-89.0","battery-v0.2","","","611.4000015258789","","","10","995","231","b","elianto","#3366ff99","-1"," ","0","0","[1462.8999996185303]","1","2","","","995","85","6","2","win","no-go","0","0"
"pit-trial","190","1228886","0.0-90.0","battery-v0.2","","","-1","","","10","995","231","z","elianto","#f73b6a7A"," ","-1","0","0","[]","0","2","","","995","86","4","3","lose","go","1","0"
"pit-trial","191","1232960","0.0-91.0","battery-v0.2","","","1220.400001525879","","","10","995","231","c","elianto","#f73b6a7A","-1"," ","0","-10","[2071.400001525879]","1","2","","","995","87","5","4","lose","no-go","0","0"
"pit-trial","192","1236496","0.0-92.0","battery-v0.2","","","679.1000003814697","","","10","995","231","t","elianto","#3366ff99"," "," ","1","+10","[1529.3000011444092]","1","2","","","995","88","7","1","win","go","0","0"
"pit-trial","193","1241354","0.0-93.0","battery-v0.2","","","-1","","","10","995","231","z","elianto","#f73b6a7A"," ","-1","0","-10","[]","0","2","","","995","89","4","3","lose","go","0","0"
"pit-trial","194","1246213","0.0-94.0","battery-v0.2","","","-1","","","10","995","231","c","elianto","#f73b6a7A","-1","-1","1","0","[]","0","2","","","995","90","5","4","lose","no-go","0","0"
"pit-trial","195","1249747","0.0-95.0","battery-v0.2","","","678.2000007629395","","","10","995","231","t","elianto","#3366ff99"," "," ","1","+10","[1528.5]","1","2","","","995","91","7","1","win","go","0","0"
"pit-trial","196","1253323","0.0-96.0","battery-v0.2","","","719.3999996185303","","","10","995","231","b","elianto","#3366ff99","-1"," ","0","0","[1570.8999996185303]","1","2","","","995","92","6","2","win","no-go","0","0"
"pit-trial","197","1256742","0.0-97.0","battery-v0.2","","","565.2999992370605","","","10","995","231","b","elianto","#3366ff99","-1"," ","0","0","[1415.6000003814697]","1","2","","","995","93","6","2","win","no-go","0","0"
"pit-trial","198","1260365","0.0-98.0","battery-v0.2","","","768.3999996185303","","","10","995","231","x","elianto","#3366ff99"," "," ","1","+10","[1618.5]","1","2","","","995","94","8","1","win","go","0","0"
"pit-trial","199","1265223","0.0-99.0","battery-v0.2","","","-1","","","10","995","231","z","elianto","#f73b6a7A"," ","-1","0","-10","[]","0","2","","","995","95","4","3","lose","go","0","0"
"pit-trial","200","1268642","0.0-100.0","battery-v0.2","","","566.2999992370605","","","10","995","231","t","elianto","#3366ff99"," "," ","1","0","[1417.3999996185303]","1","2","","","995","96","7","1","win","go","1","0"
"pit-trial","201","1272044","0.0-101.0","battery-v0.2","","","544.7000007629395","","","10","995","231","x","elianto","#3366ff99"," "," ","1","+10","[1396]","1","2","","","995","97","8","1","win","go","0","0"
"pit-trial","202","1275550","0.0-102.0","battery-v0.2","","","654.0999984741211","","","10","995","231","t","elianto","#3366ff99"," "," ","1","+10","[1504.6999988555908]","1","2","","","995","98","7","1","win","go","0","0"
"pit-trial","203","1280409","0.0-103.0","battery-v0.2","","","-1","","","10","995","231","z","elianto","#f73b6a7A"," ","-1","0","-10","[]","0","2","","","995","99","4","3","lose","go","0","0"
"pit-trial","204","1283944","0.0-104.0","battery-v0.2","","","680.5","","","10","995","231","b","elianto","#3366ff99","-1"," ","0","0","[1532.2000007629395]","1","2","","","995","100","6","2","win","no-go","0","0"
"pit-trial","205","1287343","0.0-105.0","battery-v0.2","","","542.8999996185303","","","10","995","231","f","elianto","#3366ff99","-1"," ","0","0","[1394.1999988555908]","1","2","","","995","101","9","2","win","no-go","0","0"
"pit-trial","206","1290765","0.0-106.0","battery-v0.2","","","564.7999992370605","","","10","995","231","x","elianto","#3366ff99"," "," ","1","+10","[1415]","1","2","","","995","102","8","1","win","go","0","0"
"pit-trial","207","1295377","0.0-107.0","battery-v0.2","","","1756","","","10","995","231","t","elianto","#3366ff99"," "," ","1","+10","[2606.3999996185303]","1","2","","","995","103","7","1","win","go","0","0"
"pit-trial","208","1298729","0.0-108.0","battery-v0.2","","","493.70000076293945","","","10","995","231","b","elianto","#3366ff99","-1"," ","0","0","[1346.7000007629395]","1","2","","","995","104","6","2","win","no-go","0","0"
"pit-trial","209","1302258","0.0-109.0","battery-v0.2","","","675.5","","","10","995","231","b","elianto","#3366ff99","-1"," ","0","0","[245.5,1527.3000011444092]","2","2","","","995","105","6","2","win","no-go","0","0"
"pit-trial","210","1305480","0.0-110.0","battery-v0.2","","","365.3000011444092","","","10","995","231","f","elianto","#3366ff99","-1"," ","0","0","[1215.400001525879]","1","2","","","995","106","9","2","win","no-go","0","0"
"pit-trial","211","1308338","0.0-111.0","battery-v0.2","","","5.600000381469727","","","10","995","231","x","elianto","#3366ff99"," "," ","1","+10","[856.1000003814697,1526.1999988555908]","2","2","","","995","107","8","1","win","go","0","0"
"pit-trial","212","1311621","0.0-112.0","battery-v0.2","","","427.79999923706055","","","10","995","231","t","elianto","#3366ff99"," "," ","1","+10","[1278.1000003814697,3258.1000003814697]","2","2","","","995","108","7","1","win","go","0","0"
"pit-trial","213","1316480","0.0-113.0","battery-v0.2","","","-1","","","10","995","231","q","elianto","#f73b6a7A","-1","-1","1","0","[]","0","2","","","995","109","11","4","lose","no-go","0","0"
"pit-trial","214","1321339","0.0-114.0","battery-v0.2","","","-1","","","10","995","231","n","elianto","#f73b6a7A"," ","-1","0","-10","[]","0","2","","","995","110","10","3","lose","go","0","0"
"pit-trial","215","1326197","0.0-115.0","battery-v0.2","","","-1","","","10","995","231","x","elianto","#3366ff99"," ","-1","0","+10","[]","0","2","","","995","111","8","1","win","go","1","0"
"pit-trial","216","1329506","0.0-116.0","battery-v0.2","","","456.1999988555908","","","10","995","231","f","elianto","#3366ff99","-1"," ","0","+10","[1307.099998474121]","1","2","","","995","112","9","2","win","no-go","1","0"
"pit-trial","217","1334365","0.0-117.0","battery-v0.2","","","-1","","","10","995","231","q","elianto","#f73b6a7A","-1","-1","1","0","[]","0","2","","","995","113","11","4","lose","no-go","0","0"
"pit-trial","218","1337947","0.0-118.0","battery-v0.2","","","725.2999992370605","","","10","995","231","f","elianto","#3366ff99","-1"," ","0","+10","[1576.6999988555908]","1","2","","","995","114","9","2","win","no-go","1","0"
"pit-trial","219","1342805","0.0-119.0","battery-v0.2","","","-1","","","10","995","231","n","elianto","#f73b6a7A"," ","-1","0","-10","[]","0","2","","","995","115","10","3","lose","go","0","0"
"pit-trial","220","1347304","0.0-120.0","battery-v0.2","","","1645.6000003814697","","","10","995","231","x","elianto","#3366ff99"," "," ","1","+10","[2496.699998855591]","1","2","","","995","116","8","1","win","go","0","0"
"pit-trial","221","1352163","0.0-121.0","battery-v0.2","","","-1","","","10","995","231","x","elianto","#3366ff99"," ","-1","0","0","[3667.3999996185303,4477.39999961853]","2","2","","","995","117","8","1","win","go","0","0"
"pit-trial","222","1355790","0.0-122.0","battery-v0.2","","","771.2000007629395","","","10","995","231","f","elianto","#3366ff99","-1"," ","0","+10","[1621.3999996185303,2296.699998855591,2881.599998474121,3489.199998855591]","4","2","","","995","118","9","2","win","no-go","1","0"
"pit-trial","223","1360650","0.0-123.0","battery-v0.2","","","-1","","","10","995","231","q","elianto","#f73b6a7A","-1","-1","1","0","[380.0999984741211,840.5999984741211]","2","2","","","995","119","11","4","lose","no-go","0","0"
"pit-trial","224","1365508","0.0-124.0","battery-v0.2","","","-1","","","10","995","231","n","elianto","#f73b6a7A"," ","-1","0","-10","[]","0","2","","","995","120","10","3","lose","go","0","0"
"pit-trial","225","1370367","0.0-125.0","battery-v0.2","","","-1","","","10","995","231","q","elianto","#f73b6a7A","-1","-1","1","0","[]","0","2","","","995","121","11","4","lose","no-go","0","0"
"pit-trial","226","1374692","0.0-126.0","battery-v0.2","","","1467.1000003814697","","","10","995","231","x","elianto","#3366ff99"," "," ","1","+10","[2317.800001144409]","1","2","","","995","122","8","1","win","go","0","0"
"pit-trial","227","1378627","0.0-127.0","battery-v0.2","","","1080","","","10","995","231","n","elianto","#f73b6a7A"," "," ","1","0","[1930.6999988555908]","1","2","","","995","123","10","3","lose","go","0","0"
"pit-trial","228","1383306","0.0-128.0","battery-v0.2","","","1823.5","","","10","995","231","f","elianto","#3366ff99","-1"," ","0","0","[2674.7000007629395]","1","2","","","995","124","9","2","win","no-go","0","0"
"pit-trial","229","1388165","0.0-129.0","battery-v0.2","","","-1","","","10","995","231","n","elianto","#f73b6a7A"," ","-1","0","-10","[]","0","2","","","995","125","10","3","lose","go","0","0"
"pit-trial","230","1393023","0.0-130.0","battery-v0.2","","","-1","","","10","995","231","q","elianto","#f73b6a7A","-1","-1","1","0","[]","0","2","","","995","126","11","4","lose","no-go","0","0"
"pit-trial","231","1396605","0.0-131.0","battery-v0.2","","","726.7999992370605","","","10","995","231","f","elianto","#3366ff99","-1"," ","0","0","[1577]","1","2","","","995","127","9","2","win","no-go","0","0"
"pit-trial","232","1400994","0.0-132.0","battery-v0.2","","","1530.5","","","10","995","231","x","elianto","#3366ff99"," "," ","1","0","[2382.800001144409]","1","2","","","995","128","8","1","win","go","1","0"
"pit-trial","233","1404999","0.0-133.0","battery-v0.2","","","1147.099998474121","","","10","995","231","x","elianto","#3366ff99"," "," ","1","+10","[1999.099998474121]","1","2","","","995","129","8","1","win","go","0","0"
"pit-trial","234","1408441","0.0-134.0","battery-v0.2","","","585.8999996185303","","","10","995","231","f","elianto","#3366ff99","-1"," ","0","+10","[1436.5,2381.2999992370605]","2","2","","","995","130","9","2","win","no-go","1","0"
"pit-trial","235","1411837","0.0-135.0","battery-v0.2","","","541.7000007629395","","","10","995","231","q","elianto","#f73b6a7A","-1"," ","0","0","[1392]","1","2","","","995","131","11","4","lose","no-go","1","0"
"pit-trial","236","1416696","0.0-136.0","battery-v0.2","","","-1","","","10","995","231","n","elianto","#f73b6a7A"," ","-1","0","-10","[]","0","2","","","995","132","10","3","lose","go","0","0"
"pit-trial","237","1421555","0.0-137.0","battery-v0.2","","","-1","","","10","995","231","n","elianto","#f73b6a7A"," ","-1","0","-10","[94.10000038146973]","1","2","","","995","133","10","3","lose","go","0","0"
"pit-trial","238","1426413","0.0-138.0","battery-v0.2","","","-1","","","10","995","231","q","elianto","#f73b6a7A","-1","-1","1","0","[]","0","2","","","995","134","11","4","lose","no-go","0","0"
"pit-trial","239","1430064","0.0-139.0","battery-v0.2","","","794","","","10","995","231","f","elianto","#3366ff99","-1"," ","0","+10","[1645.1000003814697]","1","2","","","995","135","9","2","win","no-go","1","0"
"pit-trial","240","1433437","0.0-140.0","battery-v0.2","","","519.3000011444092","","","10","995","231","x","elianto","#3366ff99"," "," ","1","0","[1369.3000011444092]","1","2","","","995","136","8","1","win","go","1","0"
"pit-trial","241","1436949","0.0-141.0","battery-v0.2","","","655","","","10","995","231","x","elianto","#3366ff99"," "," ","1","+10","[1505.7999992370605]","1","2","","","995","137","8","1","win","go","0","0"
"pit-trial","242","1440522","0.0-142.0","battery-v0.2","","","719.5","","","10","995","231","f","elianto","#3366ff99","-1"," ","0","0","[1571.3999996185303]","1","2","","","995","138","9","2","win","no-go","0","0"
"pit-trial","243","1445377","0.0-143.0","battery-v0.2","","","-1","","","10","995","231","n","elianto","#f73b6a7A"," ","-1","0","-10","[]","0","2","","","995","139","10","3","lose","go","0","0"
"pit-trial","244","1449660","0.0-144.0","battery-v0.2","","","1428","","","10","995","231","q","elianto","#f73b6a7A","-1"," ","0","-10","[2278.3999996185303,3088.3999996185303,3358.3999996185303,3887,4078.2000007629395,4280.89999961853]","6","2","","","995","140","11","4","lose","no-go","0","0"
"pit-instructions","245","1499577","0.0-145.0","battery-v0.2","","[{""page_index"":0,""viewing_time"":41771.5},{""page_index"":1,""viewing_time"":8145.5}]","49917.29999923706","","","","","","","","","","","","","","","","","","","","","","","","",""
"pit-trial","246","1504065","0.0-146.0","battery-v0.2","","","1521.1000003814697","","","10","995","231","j","elianto","#3366ff99","-1"," ","0","+10","[2371.7999992370605]","1","3","","","995","141","1","2","win","no-go","1","0"
"pit-trial","247","1507556","0.0-147.0","battery-v0.2","","","632.6999988555908","","","10","995","231","d","elianto","#3366ff99"," "," ","1","+10","[1484.5]","1","3","","","995","142","2","1","win","go","0","0"
"pit-trial","248","1510917","0.0-148.0","battery-v0.2","","","505.6999988555908","","","10","995","231","v","elianto","#3366ff99","-1"," ","0","0","[1357.5]","1","3","","","995","143","0","2","win","no-go","0","0"
"pit-trial","249","1515776","0.0-149.0","battery-v0.2","","","-1","","","10","995","231","k","elianto","#f73b6a7A"," ","-1","0","-10","[]","0","3","","","995","144","3","3","lose","go","0","0"
"pit-trial","250","1520637","0.0-150.0","battery-v0.2","","","-1","","","10","995","231","d","elianto","#3366ff99"," ","-1","0","0","[]","0","3","","","995","145","2","1","win","go","0","0"
"pit-trial","251","1525493","0.0-151.0","battery-v0.2","","","-1","","","10","995","231","k","elianto","#f73b6a7A"," ","-1","0","-10","[]","0","3","","","995","146","3","3","lose","go","0","0"
"pit-trial","252","1530353","0.0-152.0","battery-v0.2","","","-1","","","10","995","231","v","elianto","#3366ff99","-1","-1","1","+10","[]","0","3","","","995","147","0","2","win","no-go","0","0"
"pit-trial","253","1535206","0.0-153.0","battery-v0.2","","","-1","","","10","995","231","j","elianto","#3366ff99","-1","-1","1","+10","[]","0","3","","","995","148","1","2","win","no-go","0","0"
"pit-trial","254","1540065","0.0-154.0","battery-v0.2","","","-1","","","10","995","231","k","elianto","#f73b6a7A"," ","-1","0","-10","[]","0","3","","","995","149","3","3","lose","go","0","0"
"pit-trial","255","1543406","0.0-155.0","battery-v0.2","","","488.8999996185303","","","10","995","231","j","elianto","#3366ff99","-1"," ","0","+10","[1338.8999996185303]","1","3","","","995","150","1","2","win","no-go","1","0"
"pit-trial","256","1546920","0.0-156.0","battery-v0.2","","","656.1999988555908","","","10","995","231","v","elianto","#3366ff99","-1"," ","0","0","[1507.599998474121]","1","3","","","995","151","0","2","win","no-go","0","0"
"pit-trial","257","1550583","0.0-157.0","battery-v0.2","","","810.7000007629395","","","10","995","231","d","elianto","#3366ff99"," "," ","1","0","[1660.8000011444092]","1","3","","","995","152","2","1","win","go","1","0"
"pit-trial","258","1553692","0.0-158.0","battery-v0.2","","","252","","","10","995","231","j","elianto","#3366ff99","-1"," ","0","0","[1102.8999996185303]","1","3","","","995","153","1","2","win","no-go","0","0"
"pit-trial","259","1558548","0.0-159.0","battery-v0.2","","","-1","","","10","995","231","d","elianto","#3366ff99"," ","-1","0","+10","[]","0","3","","","995","154","2","1","win","go","1","0"
"pit-trial","260","1563406","0.0-160.0","battery-v0.2","","","-1","","","10","995","231","k","elianto","#f73b6a7A"," ","-1","0","-10","[]","0","3","","","995","155","3","3","lose","go","0","0"
"pit-trial","261","1567708","0.0-161.0","battery-v0.2","","","1447.8999996185303","","","10","995","231","v","elianto","#3366ff99","-1"," ","0","0","[2298]","1","3","","","995","156","0","2","win","no-go","0","0"
"pit-trial","262","1572565","0.0-162.0","battery-v0.2","","","-1","","","10","995","231","k","elianto","#f73b6a7A"," ","-1","0","-10","[]","0","3","","","995","157","3","3","lose","go","0","0"
"pit-trial","263","1576461","0.0-163.0","battery-v0.2","","","1041","","","10","995","231","j","elianto","#3366ff99","-1"," ","0","0","[1891.3999996185303]","1","3","","","995","158","1","2","win","no-go","0","0"
"pit-trial","264","1580937","0.0-164.0","battery-v0.2","","","1620.900001525879","","","10","995","231","v","elianto","#3366ff99","-1"," ","0","0","[2472.7000007629395]","1","3","","","995","159","0","2","win","no-go","0","0"
"pit-trial","265","1585796","0.0-165.0","battery-v0.2","","","-1","","","10","995","231","d","elianto","#3366ff99"," ","-1","0","0","[90.89999961853027,2969.5,4814.60000038147]","3","3","","","995","160","2","1","win","go","0","0"
"pit-trial","266","1588733","0.0-166.0","battery-v0.2","","","84.5","","","10","995","231","d","elianto","#3366ff99"," "," ","1","+10","[720.8999996185303,934.8000011444092,1148.5,1362,1879.8000011444092,2082,2307.1000003814697,2520.7000007629395,2779.8999996185303]","9","3","","","995","161","2","1","win","go","0","0"
"pit-trial","267","1592030","0.0-167.0","battery-v0.2","","","443.6999988555908","","","10","995","231","v","elianto","#3366ff99","-1"," ","0","0","[44.60000038146973,236,494.6999988555908,1293.7999992370605,2711.2999992370605]","5","3","","","995","162","0","2","win","no-go","0","0"
"pit-trial","268","1594955","0.0-168.0","battery-v0.2","","","69.5","","","10","995","231","j","elianto","#3366ff99","-1"," ","0","+10","[921.5,1596.8999996185303,1968.099998474121,2328.099998474121,2868.099998474121]","5","3","","","995","163","1","2","win","no-go","1","0"
"pit-trial","269","1598193","0.0-169.0","battery-v0.2","","","385.3000011444092","","","10","995","231","k","elianto","#f73b6a7A"," "," ","1","0","[1236.7000007629395]","1","3","","","995","164","3","3","lose","go","0","0"
"pit-trial","270","1601684","0.0-170.0","battery-v0.2","","","635.3999996185303","","","10","995","231","j","elianto","#3366ff99","-1"," ","0","+10","[1486.1999988555908]","1","3","","","995","165","1","2","win","no-go","1","0"
"pit-trial","271","1604743","0.0-171.0","battery-v0.2","","","205.69999885559082","","","10","995","231","k","elianto","#f73b6a7A"," "," ","1","0","[1055.7000007629395]","1","3","","","995","166","3","3","lose","go","0","0"
"pit-trial","272","1607715","0.0-172.0","battery-v0.2","","","116.29999923706055","","","10","995","231","v","elianto","#3366ff99","-1"," ","0","0","[968.2999992370605]","1","3","","","995","167","0","2","win","no-go","0","0"
"pit-trial","273","1611001","0.0-173.0","battery-v0.2","","","427.6000003814697","","","10","995","231","d","elianto","#3366ff99"," "," ","1","+10","[1279.7999992370605]","1","3","","","995","168","2","1","win","go","0","0"
"pit-trial","274","1614484","0.0-174.0","battery-v0.2","","","629.5","","","10","995","231","d","elianto","#3366ff99"," "," ","1","0","[177.80000114440918,1481.3999996185303,3169.2000007629395]","3","3","","","995","169","2","1","win","go","1","0"
"pit-trial","275","1619342","0.0-175.0","battery-v0.2","","","-1","","","10","995","231","k","elianto","#f73b6a7A"," ","-1","0","-10","[]","0","3","","","995","170","3","3","lose","go","0","0"
"pit-trial","276","1622856","0.0-176.0","battery-v0.2","","","658.2999992370605","","","10","995","231","v","elianto","#3366ff99","-1"," ","0","0","[1510.6000003814697]","1","3","","","995","171","0","2","win","no-go","0","0"
"pit-trial","277","1626233","0.0-177.0","battery-v0.2","","","520.9000015258789","","","10","995","231","j","elianto","#3366ff99","-1"," ","0","0","[1371.3000011444092]","1","3","","","995","172","1","2","win","no-go","0","0"
"pit-trial","278","1629582","0.0-178.0","battery-v0.2","","","495.3999996185303","","","10","995","231","v","elianto","#3366ff99","-1"," ","0","0","[1347.2000007629395]","1","3","","","995","173","0","2","win","no-go","0","0"
"pit-trial","279","1632710","0.0-179.0","battery-v0.2","","","274.3999996185303","","","10","995","231","e","elianto","#f73b6a7A","-1"," ","0","-10","[1125.1000003814697]","1","3","","","995","174","4","4","lose","no-go","0","0"
"pit-trial","280","1637570","0.0-180.0","battery-v0.2","","","-1","","","10","995","231","w","elianto","#f73b6a7A"," ","-1","0","-10","[]","0","3","","","995","175","5","3","lose","go","0","0"
"pit-trial","281","1641935","0.0-181.0","battery-v0.2","","","1512.5","","","10","995","231","d","elianto","#3366ff99"," "," ","1","+10","[2363.2999992370605]","1","3","","","995","176","2","1","win","go","0","0"
"pit-trial","282","1646793","0.0-182.0","battery-v0.2","","","-1","","","10","995","231","w","elianto","#f73b6a7A"," ","-1","0","0","[]","0","3","","","995","177","5","3","lose","go","1","0"
"pit-trial","283","1651646","0.0-183.0","battery-v0.2","","","-1","","","10","995","231","v","elianto","#3366ff99","-1","-1","1","+10","[]","0","3","","","995","178","0","2","win","no-go","0","0"
"pit-trial","284","1656505","0.0-184.0","battery-v0.2","","","-1","","","10","995","231","e","elianto","#f73b6a7A","-1","-1","1","0","[]","0","3","","","995","179","4","4","lose","no-go","0","0"
"pit-trial","285","1661364","0.0-185.0","battery-v0.2","","","-1","","","10","995","231","d","elianto","#3366ff99"," ","-1","0","0","[]","0","3","","","995","180","2","1","win","go","0","0"
"pit-trial","286","1666223","0.0-186.0","battery-v0.2","","","-1","","","10","995","231","d","elianto","#3366ff99"," ","-1","0","0","[2981.800001144409]","1","3","","","995","181","2","1","win","go","0","0"
"pit-trial","287","1670849","0.0-187.0","battery-v0.2","","","1772.7000007629395","","","10","995","231","s","elianto","#3366ff99","-1"," ","0","0","[2622.900001525879]","1","3","","","995","182","6","2","win","no-go","0","0"
"pit-trial","288","1675708","0.0-188.0","battery-v0.2","","","-1","","","10","995","231","e","elianto","#f73b6a7A","-1","-1","1","0","[2968.800001144409]","1","3","","","995","183","4","4","lose","no-go","0","0"
"pit-trial","289","1679713","0.0-189.0","battery-v0.2","","","1151","","","10","995","231","w","elianto","#f73b6a7A"," "," ","1","0","[2002.900001525879]","1","3","","","995","184","5","3","lose","go","0","0"
"pit-trial","290","1683295","0.0-190.0","battery-v0.2","","","724","","","10","995","231","e","elianto","#f73b6a7A","-1"," ","0","-10","[1575.7999992370605]","1","3","","","995","185","4","4","lose","no-go","0","0"
"pit-trial","291","1687051","0.0-191.0","battery-v0.2","","","899.2000007629395","","","10","995","231","d","elianto","#3366ff99"," "," ","1","+10","[1750.900001525879]","1","3","","","995","186","2","1","win","go","0","0"
"pit-trial","292","1691845","0.0-192.0","battery-v0.2","","","1936.1999988555908","","","10","995","231","w","elianto","#f73b6a7A"," "," ","1","-10","[2788.099998474121]","1","3","","","995","187","5","3","lose","go","1","0"
"pit-trial","293","1695845","0.0-193.0","battery-v0.2","","","1147.3999996185303","","","10","995","231","s","elianto","#3366ff99","-1"," ","0","0","[1998.1000003814697]","1","3","","","995","188","6","2","win","no-go","0","0"
"pit-trial","294","1700704","0.0-194.0","battery-v0.2","","","-1","","","10","995","231","s","elianto","#3366ff99","-1","-1","1","+10","[]","0","3","","","995","189","6","2","win","no-go","0","0"
"pit-trial","295","1704308","0.0-195.0","battery-v0.2","","","748.9000015258789","","","10","995","231","w","elianto","#f73b6a7A"," "," ","1","0","[1600.1000003814697]","1","3","","","995","190","5","3","lose","go","0","0"
"pit-trial","296","1707774","0.0-196.0","battery-v0.2","","","610","","","10","995","231","e","elianto","#f73b6a7A","-1"," ","0","-10","[1460]","1","3","","","995","191","4","4","lose","no-go","0","0"
"pit-trial","297","1712475","0.0-197.0","battery-v0.2","","","1845.2999992370605","","","10","995","231","p","elianto","#f73b6a7A","-1"," ","0","-10","[2697.2000007629395]","1","3","","","995","192","7","4","lose","no-go","0","0"
"pit-trial","298","1716052","0.0-198.0","battery-v0.2","","","721.8999996185303","","","10","995","231","p","elianto","#f73b6a7A","-1"," ","0","-10","[1573.6000003814697]","1","3","","","995","193","7","4","lose","no-go","0","0"
"pit-trial","299","1720765","0.0-199.0","battery-v0.2","","","1856.7000007629395","","","10","995","231","s","elianto","#3366ff99","-1"," ","0","0","[2708.6000003814697]","1","3","","","995","194","6","2","win","no-go","0","0"
"pit-trial","300","1724875","0.0-200.0","battery-v0.2","","","1252.599998474121","","","10","995","231","w","elianto","#f73b6a7A"," "," ","1","-10","[2103.3999996185303]","1","3","","","995","195","5","3","lose","go","1","0"
"pit-trial","301","1729734","0.0-201.0","battery-v0.2","","","-1","","","10","995","231","e","elianto","#f73b6a7A","-1","-1","1","0","[]","0","3","","","995","196","4","4","lose","no-go","0","0"
"pit-trial","302","1733739","0.0-202.0","battery-v0.2","","","1148.7000007629395","","","10","995","231","p","elianto","#f73b6a7A","-1"," ","0","-10","[2000.3000011444092]","1","3","","","995","197","7","4","lose","no-go","0","0"
"pit-trial","303","1738598","0.0-203.0","battery-v0.2","","","-1","","","10","995","231","w","elianto","#f73b6a7A"," ","-1","0","-10","[2855.800001144409]","1","3","","","995","198","5","3","lose","go","0","0"
"pit-trial","304","1743457","0.0-204.0","battery-v0.2","","","-1","","","10","995","231","s","elianto","#3366ff99","-1","-1","1","0","[]","0","3","","","995","199","6","2","win","no-go","1","0"
"pit-trial","305","1748316","0.0-205.0","battery-v0.2","","","-1","","","10","995","231","e","elianto","#f73b6a7A","-1","-1","1","-10","[2992.7000007629395]","1","3","","","995","200","4","4","lose","no-go","1","0"
"pit-trial","306","1752594","0.0-206.0","battery-v0.2","","","1421.8999996185303","","","10","995","231","e","elianto","#f73b6a7A","-1"," ","0","-10","[2273.699998855591]","1","3","","","995","201","4","4","lose","no-go","0","0"
"pit-trial","307","1756350","0.0-207.0","battery-v0.2","","","902.8000011444092","","","10","995","231","p","elianto","#f73b6a7A","-1"," ","0","-10","[1753]","1","3","","","995","202","7","4","lose","no-go","0","0"
"pit-trial","308","1761208","0.0-208.0","battery-v0.2","","","-1","","","10","995","231","w","elianto","#f73b6a7A"," ","-1","0","-10","[3082.6000003814697]","1","3","","","995","203","5","3","lose","go","0","0"
"pit-trial","309","1766069","0.0-209.0","battery-v0.2","","","-1","","","10","995","231","s","elianto","#3366ff99","-1","-1","1","0","[]","0","3","","","995","204","6","2","win","no-go","1","0"
"pit-trial","310","1769962","0.0-210.0","battery-v0.2","","","1038.3999996185303","","","10","995","231","w","elianto","#f73b6a7A"," "," ","1","-10","[1890.3999996185303]","1","3","","","995","205","5","3","lose","go","1","0"
"pit-trial","311","1774014","0.0-211.0","battery-v0.2","","","1196.8999996185303","","","10","995","231","s","elianto","#3366ff99","-1"," ","0","0","[2047.8999996185303]","1","3","","","995","206","6","2","win","no-go","0","0"
"pit-trial","312","1777659","0.0-212.0","battery-v0.2","","","789","","","10","995","231","p","elianto","#f73b6a7A","-1"," ","0","0","[1640.7999992370605]","1","3","","","995","207","7","4","lose","no-go","1","0"
"pit-trial","313","1781775","0.0-213.0","battery-v0.2","","","1262.6000003814697","","","10","995","231","e","elianto","#f73b6a7A","-1"," ","0","-10","[2112.8999996185303]","1","3","","","995","208","4","4","lose","no-go","0","0"
"pit-trial","314","1786631","0.0-214.0","battery-v0.2","","","-1","","","10","995","231","e","elianto","#f73b6a7A","-1","-1","1","0","[]","0","3","","","995","209","4","4","lose","no-go","0","0"
"pit-trial","315","1791045","0.0-215.0","battery-v0.2","","","1561.3000011444092","","","10","995","231","s","elianto","#3366ff99","-1"," ","0","0","[2411.3999996185303]","1","3","","","995","210","6","2","win","no-go","0","0"
"pit-trial","316","1795335","0.0-216.0","battery-v0.2","","","1433.5","","","10","995","231","p","elianto","#f73b6a7A","-1"," ","0","-10","[2283.7000007629395]","1","3","","","995","211","7","4","lose","no-go","0","0"
"pit-trial","317","1799317","0.0-217.0","battery-v0.2","","","1125","","","10","995","231","w","elianto","#f73b6a7A"," "," ","1","0","[1976.3999996185303]","1","3","","","995","212","5","3","lose","go","0","0"
"pit-trial","318","1803276","0.0-218.0","battery-v0.2","","","1103.1000003814697","","","10","995","231","g","elianto","#f73b6a7A","-1"," ","0","-10","[1954.1999988555908]","1","3","","","995","213","8","4","lose","no-go","0","0"
"pit-trial","319","1807462","0.0-219.0","battery-v0.2","","","1328.2999992370605","","","10","995","231","p","elianto","#f73b6a7A","-1"," ","0","-10","[2180.199998855591]","1","3","","","995","214","7","4","lose","no-go","0","0"
"pit-trial","320","1811531","0.0-220.0","battery-v0.2","","","1215.7000007629395","","","10","995","231","s","elianto","#3366ff99","-1"," ","0","0","[2067.5]","1","3","","","995","215","6","2","win","no-go","0","0"
"pit-trial","321","1815426","0.0-221.0","battery-v0.2","","","1039.8999996185303","","","10","995","231","w","elianto","#f73b6a7A"," "," ","1","-10","[1891]","1","3","","","995","216","5","3","lose","go","1","0"
"pit-trial","322","1820285","0.0-222.0","battery-v0.2","","","-1","","","10","995","231","w","elianto","#f73b6a7A"," ","-1","0","-10","[]","0","3","","","995","217","5","3","lose","go","0","0"
"pit-trial","323","1823930","0.0-223.0","battery-v0.2","","","791.6000003814697","","","10","995","231","p","elianto","#f73b6a7A","-1"," ","0","-10","[1642.1000003814697]","1","3","","","995","218","7","4","lose","no-go","0","0"
"pit-trial","324","1827657","0.0-224.0","battery-v0.2","","","870.9000015258789","","","10","995","231","s","elianto","#3366ff99","-1"," ","0","0","[451.5,1722.1000003814697]","2","3","","","995","219","6","2","win","no-go","0","0"
"pit-trial","325","1832074","0.0-225.0","battery-v0.2","","","1564","","","10","995","231","g","elianto","#f73b6a7A","-1"," ","0","-10","[2415]","1","3","","","995","220","8","4","lose","no-go","0","0"
"pit-trial","326","1835697","0.0-226.0","battery-v0.2","","","768.2999992370605","","","10","995","231","l","elianto","#f73b6a7A"," "," ","1","0","[1620]","1","3","","","995","221","10","3","lose","go","0","0"
"pit-trial","327","1840381","0.0-227.0","battery-v0.2","","","1826.1000003814697","","","10","995","231","a","elianto","#3366ff99"," "," ","1","+10","[2678]","1","3","","","995","222","9","1","win","go","0","0"
"pit-trial","328","1844497","0.0-228.0","battery-v0.2","","","1259","","","10","995","231","g","elianto","#f73b6a7A","-1"," ","0","-10","[2110.5]","1","3","","","995","223","8","4","lose","no-go","0","0"
"pit-trial","329","1848636","0.0-229.0","battery-v0.2","","","1284.8000011444092","","","10","995","231","s","elianto","#3366ff99","-1"," ","0","0","[2135.2000007629395]","1","3","","","995","224","6","2","win","no-go","0","0"
"pit-trial","330","1853384","0.0-230.0","battery-v0.2","","","1893.5","","","10","995","231","a","elianto","#3366ff99"," "," ","1","+10","[2744.2000007629395]","1","3","","","995","225","9","1","win","go","0","0"
"pit-trial","331","1857186","0.0-231.0","battery-v0.2","","","947.1000003814697","","","10","995","231","s","elianto","#3366ff99","-1"," ","0","0","[1798.2000007629395]","1","3","","","995","226","6","2","win","no-go","0","0"
"pit-trial","332","1861261","0.0-232.0","battery-v0.2","","","1216.3999996185303","","","10","995","231","l","elianto","#f73b6a7A"," "," ","1","-10","[2068.3999996185303]","1","3","","","995","227","10","3","lose","go","1","0"
"pit-trial","333","1865917","0.0-233.0","battery-v0.2","","","1801.1000003814697","","","10","995","231","g","elianto","#f73b6a7A","-1"," ","0","0","[2651.300001144409]","1","3","","","995","228","8","4","lose","no-go","1","0"
"pit-trial","334","1869899","0.0-234.0","battery-v0.2","","","1128.1000003814697","","","10","995","231","g","elianto","#f73b6a7A","-1"," ","0","-10","[1978.1000003814697]","1","3","","","995","229","8","4","lose","no-go","0","0"
"pit-trial","335","1873794","0.0-235.0","battery-v0.2","","","1037.1000003814697","","","10","995","231","a","elianto","#3366ff99"," "," ","1","+10","[1888.5]","1","3","","","995","230","9","1","win","go","0","0"
"pit-trial","336","1877596","0.0-236.0","battery-v0.2","","","945.6000003814697","","","10","995","231","u","elianto","#3366ff99"," "," ","1","+10","[1795.6999988555908]","1","3","","","995","231","11","1","win","go","0","0"
"pit-trial","337","1881474","0.0-237.0","battery-v0.2","","","1023.7999992370605","","","10","995","231","l","elianto","#f73b6a7A"," "," ","1","-10","[1875]","1","3","","","995","232","10","3","lose","go","1","0"
"pit-trial","338","1886199","0.0-238.0","battery-v0.2","","","1871.7000007629395","","","10","995","231","a","elianto","#3366ff99"," "," ","1","+10","[2722.6000003814697]","1","3","","","995","233","9","1","win","go","0","0"
"pit-trial","339","1890361","0.0-239.0","battery-v0.2","","","1308.099998474121","","","10","995","231","u","elianto","#3366ff99"," "," ","1","0","[2159.8999996185303]","1","3","","","995","234","11","1","win","go","1","0"
"pit-trial","340","1894053","0.0-240.0","battery-v0.2","","","838","","","10","995","231","g","elianto","#f73b6a7A","-1"," ","0","-10","[1688.1999988555908]","1","3","","","995","235","8","4","lose","no-go","0","0"
"pit-trial","341","1897699","0.0-241.0","battery-v0.2","","","790.3999996185303","","","10","995","231","l","elianto","#f73b6a7A"," "," ","1","0","[1640.7999992370605]","1","3","","","995","236","10","3","lose","go","0","0"
"pit-trial","342","1901390","0.0-242.0","battery-v0.2","","","833.7999992370605","","","10","995","231","a","elianto","#3366ff99"," "," ","1","+10","[1685.6000003814697]","1","3","","","995","237","9","1","win","go","0","0"
"pit-trial","343","1905077","0.0-243.0","battery-v0.2","","","833.7000007629395","","","10","995","231","u","elianto","#3366ff99"," "," ","1","+10","[1683.900001525879]","1","3","","","995","238","11","1","win","go","0","0"
"pit-trial","344","1908745","0.0-244.0","battery-v0.2","","","814.6000003814697","","","10","995","231","l","elianto","#f73b6a7A"," "," ","1","0","[1664.8000011444092]","1","3","","","995","239","10","3","lose","go","0","0"
"pit-trial","345","1912321","0.0-245.0","battery-v0.2","","","722.8999996185303","","","10","995","231","g","elianto","#f73b6a7A","-1"," ","0","-10","[1574]","1","3","","","995","240","8","4","lose","no-go","0","0"
"pit-trial","346","1916263","0.0-246.0","battery-v0.2","","","1084.5","","","10","995","231","a","elianto","#3366ff99"," "," ","1","+10","[1935.6000003814697]","1","3","","","995","241","9","1","win","go","0","0"
"pit-trial","347","1919885","0.0-247.0","battery-v0.2","","","766.1000003814697","","","10","995","231","l","elianto","#f73b6a7A"," "," ","1","0","[1616.6000003814697]","1","3","","","995","242","10","3","lose","go","0","0"
"pit-trial","348","1924744","0.0-248.0","battery-v0.2","","","-1","","","10","995","231","u","elianto","#3366ff99"," ","-1","0","0","[3529.5]","1","3","","","995","243","11","1","win","go","0","0"
"pit-trial","349","1929602","0.0-249.0","battery-v0.2","","","-1","","","10","995","231","g","elianto","#f73b6a7A","-1","-1","1","0","[]","0","3","","","995","244","8","4","lose","no-go","0","0"
"pit-trial","350","1934443","0.0-250.0","battery-v0.2","","","1984.3000011444092","","","10","995","231","l","elianto","#f73b6a7A"," "," ","1","0","[2834.800001144409]","1","3","","","995","245","10","3","lose","go","0","0"
"pit-trial","351","1939302","0.0-251.0","battery-v0.2","","","-1","","","10","995","231","a","elianto","#3366ff99"," ","-1","0","0","[4069.2000007629395,4496.799999237061,4710.39999961853]","3","3","","","995","246","9","1","win","go","0","0"
"pit-trial","352","1943150","0.0-252.0","battery-v0.2","","","991.6999988555908","","","10","995","231","g","elianto","#f73b6a7A","-1"," ","0","-10","[1842.1999988555908,2517.199998855591,3259.699998855591,3473.5,3698.6000003814697]","5","3","","","995","247","8","4","lose","no-go","0","0"
"pit-trial","353","1946976","0.0-253.0","battery-v0.2","","","968.3999996185303","","","10","995","231","u","elianto","#3366ff99"," "," ","1","+10","[121.30000114440918,1819.7000007629395]","2","3","","","995","248","11","1","win","go","0","0"
"pit-trial","354","1950059","0.0-254.0","battery-v0.2","","","224.69999885559082","","","10","995","231","u","elianto","#3366ff99"," "," ","1","+10","[490.1999988555908,1075.6999988555908,1492,1784.6999988555908,2054.5,2257.099998474121]","6","3","","","995","249","11","1","win","go","0","0"
"pit-trial","355","1953925","0.0-255.0","battery-v0.2","","","1013.5","","","10","995","231","g","elianto","#f73b6a7A","-1"," ","0","-10","[1863.5,2111]","2","3","","","995","250","8","4","lose","no-go","0","0"
"pit-trial","356","1957147","0.0-256.0","battery-v0.2","","","363","","","10","995","231","a","elianto","#3366ff99"," "," ","1","+10","[1214.900001525879]","1","3","","","995","251","9","1","win","go","0","0"
"pit-trial","357","1962005","0.0-257.0","battery-v0.2","","","-1","","","10","995","231","l","elianto","#f73b6a7A"," ","-1","0","0","[3348.6000003814697,3944.8999996185303,4473.39999961853]","3","3","","","995","252","10","3","lose","go","1","0"
"pit-trial","358","1965088","0.0-258.0","battery-v0.2","","","227.10000038146973","","","10","995","231","g","elianto","#f73b6a7A","-1"," ","0","-10","[446.8999996185303,1077.1999988555908,1594.8999996185303,2393.699998855591,2663.5]","5","3","","","995","253","8","4","lose","no-go","0","0"
"pit-trial","359","1969946","0.0-259.0","battery-v0.2","","","-1","","","10","995","231","u","elianto","#3366ff99"," ","-1","0","0","[515.1000003814697,774.8000011444092]","2","3","","","995","254","11","1","win","go","0","0"
"pit-trial","360","1973290","0.0-260.0","battery-v0.2","","","486.5","","","10","995","231","l","elianto","#f73b6a7A"," "," ","1","0","[743.6000003814697,1337.2999992370605,3058.699998855591]","3","3","","","995","255","10","3","lose","go","0","0"
"pit-trial","361","1978149","0.0-261.0","battery-v0.2","","","-1","","","10","995","231","a","elianto","#3366ff99"," ","-1","0","0","[3517.7999992370605,3979.099998474121]","2","3","","","995","256","9","1","win","go","0","0"
"pit-trial","362","1983009","0.0-262.0","battery-v0.2","","","-1","","","10","995","231","u","elianto","#3366ff99"," ","-1","0","0","[3879.2999992370605]","1","3","","","995","257","11","1","win","go","0","0"
"pit-trial","363","1986078","0.0-263.0","battery-v0.2","","","214.79999923706055","","","10","995","231","g","elianto","#f73b6a7A","-1"," ","0","-10","[1066,2370.900001525879]","2","3","","","995","258","8","4","lose","no-go","0","0"
"pit-trial","364","1989590","0.0-264.0","battery-v0.2","","","655.3999996185303","","","10","995","231","a","elianto","#3366ff99"," "," ","1","0","[1507.099998474121]","1","3","","","995","259","9","1","win","go","1","0"
"pit-trial","365","1992985","0.0-265.0","battery-v0.2","","","542","","","10","995","231","l","elianto","#f73b6a7A"," "," ","1","0","[1392.7999992370605,3350]","2","3","","","995","260","10","3","lose","go","0","0"
"pit-instructions","366","2003438","0.0-266.0","battery-v0.2","","[{""page_index"":0,""viewing_time"":10451.80000114441}]","10452.10000038147","","","","","","","","","","","","","","","","","","","","","","","","",""
