"trial_type","trial_index","time_elapsed","internal_node_id","task_version","success","view_history","rt","rune","rune_set","hex","correct","choice","accuracy","outcome","keys","total_keys","block","practice","subject","participantId","value","responses","num_errors","sub","trial","stimulus","robot","valence","action","sham"
"pavlovia","0","24","0.0-0.0","battery-v0.2","","","","","","","","","","","","","","","","","","","","","","","","","",""
"fullscreen","1","3692","0.0-1.0","battery-v0.2","true","","","","","","","","","","","","","","","","","","","","","","","","",""
"pit-instructions","2","8100","0.0-2.0-0.0","battery-v0.2","","[{""page_index"":0,""viewing_time"":1629.199999988079},{""page_index"":1,""viewing_time"":159.59999999403954},{""page_index"":2,""viewing_time"":160.59999999403954},{""page_index"":3,""viewing_time"":163.10000002384186},{""page_index"":4,""viewing_time"":147.2999999821186},{""page_index"":5,""viewing_time"":175.40000000596046},{""page_index"":6,""viewing_time"":163.59999999403954},{""page_index"":7,""viewing_time"":162.40000000596046},{""page_index"":8,""viewing_time"":157.59999999403954},{""page_index"":9,""viewing_time"":149.80000001192093},{""page_index"":10,""viewing_time"":174.19999998807907},{""page_index"":11,""viewing_time"":181.59999999403954},{""page_index"":12,""viewing_time"":155.40000000596046},{""page_index"":13,""viewing_time"":156.80000001192093},{""page_index"":14,""viewing_time"":190.19999998807907},{""page_index"":15,""viewing_time"":175},{""page_index"":16,""viewing_time"":126.5},{""page_index"":17,""viewing_time"":171.7000000178814}]","4401.5999999940395","","","","","","","","","","","","","","","","","","","","","","",""
"pit-trial","3","11336","0.0-2.0-1.0-0.0","battery-v0.2","","","374.2000000178814","&#9776;","elianto","#3366ff99","32","32","1","+10","1227.7000000178814","1","0","1","5ee95e0e8737a0304baac70a&order=3&STUDY_ID=61caf6d05e4609be7bf98488","999","","","","","","","","","",""
"pit-trial","4","14710","0.0-2.0-1.0-1.0","battery-v0.2","","","517.1999999880791","&#9776;","elianto","#3366ff99","32","32","1","+10","1367.4000000059605","1","0","1","5ee95e0e8737a0304baac70a&order=3&STUDY_ID=61caf6d05e4609be7bf98488","999","","","","","","","","","",""
"pit-trial","5","18193","0.0-2.0-1.0-2.0","battery-v0.2","","","624.3000000119209","&#9776;","elianto","#3366ff99","32","32","1","+10","1475.4000000059605","1","0","1","5ee95e0e8737a0304baac70a&order=3&STUDY_ID=61caf6d05e4609be7bf98488","999","","","","","","","","","",""
"pit-trial","6","21392","0.0-2.0-1.0-3.0","battery-v0.2","","","343.40000000596046","&#9776;","elianto","#3366ff99","32","32","1","0","1193.800000011921","1","0","1","5ee95e0e8737a0304baac70a&order=3&STUDY_ID=61caf6d05e4609be7bf98488","999","","","","","","","","","",""
"pit-trial","7","24310","0.0-2.0-1.0-4.0","battery-v0.2","","","63","&#9776;","elianto","#3366ff99","32","32","1","+10","913.8999999761581","1","0","1","5ee95e0e8737a0304baac70a&order=3&STUDY_ID=61caf6d05e4609be7bf98488","999","","","","","","","","","",""
"call-function","8","24314","0.0-2.0-2.0","battery-v0.2","","","","","","","","","","","","","","","","","","","","","","","","","",""
"pit-instructions","9","25749","0.0-2.0-3.0","battery-v0.2","","[{""page_index"":0,""viewing_time"":914.7999999821186},{""page_index"":1,""viewing_time"":188.40000000596046},{""page_index"":2,""viewing_time"":187.5},{""page_index"":3,""viewing_time"":142.69999998807907}]","1433.699999988079","","","","","","","","","","","","","","","","","","","","","","",""
"pit-trial","10","30604","0.0-2.0-4.0-0.0","battery-v0.2","","","-1","&#9761;","elianto","#3366ff99","-1","-1","1","+10","","0","0","2","5ee95e0e8737a0304baac70a&order=3&STUDY_ID=61caf6d05e4609be7bf98488","999","","","","","","","","","",""
"pit-trial","11","35458","0.0-2.0-4.0-1.0","battery-v0.2","","","-1","&#9761;","elianto","#3366ff99","-1","-1","1","+10","","0","0","2","5ee95e0e8737a0304baac70a&order=3&STUDY_ID=61caf6d05e4609be7bf98488","999","","","","","","","","","",""
"pit-trial","12","40314","0.0-2.0-4.0-2.0","battery-v0.2","","","-1","&#9761;","elianto","#3366ff99","-1","-1","1","+10","","0","0","2","5ee95e0e8737a0304baac70a&order=3&STUDY_ID=61caf6d05e4609be7bf98488","999","","","","","","","","","",""
"pit-trial","13","45170","0.0-2.0-4.0-3.0","battery-v0.2","","","-1","&#9761;","elianto","#3366ff99","-1","-1","1","+10","","0","0","2","5ee95e0e8737a0304baac70a&order=3&STUDY_ID=61caf6d05e4609be7bf98488","999","","","","","","","","","",""
"pit-trial","14","50026","0.0-2.0-4.0-4.0","battery-v0.2","","","-1","&#9761;","elianto","#3366ff99","-1","-1","1","0","","0","0","2","5ee95e0e8737a0304baac70a&order=3&STUDY_ID=61caf6d05e4609be7bf98488","999","","","","","","","","","",""
"call-function","15","50029","0.0-2.0-5.0","battery-v0.2","","","","","","","","","","","","","","","","","","","","","","","","","",""
"pit-instructions","16","56131","0.0-2.0-6.0","battery-v0.2","","[{""page_index"":0,""viewing_time"":5920.9000000059605},{""page_index"":1,""viewing_time"":180.40000000596046}]","6102","","","","","","","","","","","","","","","","","","","","","","",""
"pit-trial","17","59407","0.0-2.0-7.0-0.0","battery-v0.2","","","420.19999998807907","&#9826;","elianto","#f73b6a7A","-1","32","0","-10","1270.300000011921","1","0","3","5ee95e0e8737a0304baac70a&order=3&STUDY_ID=61caf6d05e4609be7bf98488","999","","","","","","","","","",""
"pit-trial","18","64267","0.0-2.0-7.0-1.0","battery-v0.2","","","-1","&#9826;","elianto","#f73b6a7A","-1","-1","1","0","","0","0","3","5ee95e0e8737a0304baac70a&order=3&STUDY_ID=61caf6d05e4609be7bf98488","999","","","","","","","","","",""
"pit-trial","19","69124","0.0-2.0-7.0-2.0","battery-v0.2","","","-1","&#9826;","elianto","#f73b6a7A","-1","-1","1","-10","","0","0","3","5ee95e0e8737a0304baac70a&order=3&STUDY_ID=61caf6d05e4609be7bf98488","999","","","","","","","","","",""
"pit-trial","20","73978","0.0-2.0-7.0-3.0","battery-v0.2","","","-1","&#9826;","elianto","#f73b6a7A","-1","-1","1","0","","0","0","3","5ee95e0e8737a0304baac70a&order=3&STUDY_ID=61caf6d05e4609be7bf98488","999","","","","","","","","","",""
"pit-trial","21","78835","0.0-2.0-7.0-4.0","battery-v0.2","","","-1","&#9826;","elianto","#f73b6a7A","-1","-1","1","0","","0","0","3","5ee95e0e8737a0304baac70a&order=3&STUDY_ID=61caf6d05e4609be7bf98488","999","","","","","","","","","",""
"call-function","22","78836","0.0-2.0-8.0","battery-v0.2","","","","","","","","","","","","","","","","","","","","","","","","","",""
"pit-instructions","23","88123","0.0-2.0-9.0","battery-v0.2","","[{""page_index"":0,""viewing_time"":8127.300000011921},{""page_index"":1,""viewing_time"":1158.9000000059605}]","9286.800000011921","","","","","","","","","","","","","","","","","","","","","","",""
"pit-trial","24","91332","0.0-2.0-10.0-0.0","battery-v0.2","","","355","&#9789;","elianto","#f73b6a7A","32","32","1","0","1205.6000000238419","1","0","4","5ee95e0e8737a0304baac70a&order=3&STUDY_ID=61caf6d05e4609be7bf98488","999","","","","","","","","","",""
"pit-trial","25","94607","0.0-2.0-10.0-1.0","battery-v0.2","","","419.90000000596046","&#9789;","elianto","#f73b6a7A","32","32","1","0","839.1999999880791,1270","2","0","4","5ee95e0e8737a0304baac70a&order=3&STUDY_ID=61caf6d05e4609be7bf98488","999","","","","","","","","","",""
"pit-trial","26","97883","0.0-2.0-10.0-2.0","battery-v0.2","","","418","&#9789;","elianto","#f73b6a7A","32","32","1","0","1268.4000000059605","1","0","4","5ee95e0e8737a0304baac70a&order=3&STUDY_ID=61caf6d05e4609be7bf98488","999","","","","","","","","","",""
"pit-trial","27","101371","0.0-2.0-10.0-3.0","battery-v0.2","","","630.9000000059605","&#9789;","elianto","#f73b6a7A","32","32","1","0","1481.9000000059605","1","0","4","5ee95e0e8737a0304baac70a&order=3&STUDY_ID=61caf6d05e4609be7bf98488","999","","","","","","","","","",""
"pit-trial","28","104483","0.0-2.0-10.0-4.0","battery-v0.2","","","253.40000000596046","&#9789;","elianto","#f73b6a7A","32","32","1","-10","1104.2000000178814","1","0","4","5ee95e0e8737a0304baac70a&order=3&STUDY_ID=61caf6d05e4609be7bf98488","999","","","","","","","","","",""
"call-function","29","104486","0.0-2.0-11.0","battery-v0.2","","","","","","","","","","","","","","","","","","","","","","","","","",""
"pit-instructions","30","107891","0.0-2.0-12.0","battery-v0.2","","[{""page_index"":0,""viewing_time"":1432.699999988079},{""page_index"":1,""viewing_time"":474},{""page_index"":2,""viewing_time"":671.1999999880791},{""page_index"":3,""viewing_time"":421.60000002384186},{""page_index"":4,""viewing_time"":404.59999999403954}]","3404.699999988079","","","","","","","","","","","","","","","","","","","","","","",""
"pit-comprehension","31","110971","0.0-2.0-13.0-0.0","battery-v0.2","","","3074.5","","","","","","","","","","","","","","","SPACE","0","","","","","","",""
"pit-instructions","32","112289","0.0-2.0-13.0-1.0","battery-v0.2","","[{""page_index"":0,""viewing_time"":1304}]","1304.2999999821186","","","","","","","","","","","","","","","","","","","","","","",""
"pit-comprehension","33","115006","0.0-2.0-14.0-0.0","battery-v0.2","","","2714","","","","","","","","","","","","","","","0","1","","","","","","",""
"pit-instructions","34","116072","0.0-2.0-14.0-1.0","battery-v0.2","","[{""page_index"":0,""viewing_time"":1051.699999988079}]","1052.4000000059605","","","","","","","","","","","","","","","","","","","","","","",""
"pit-instructions","35","117466","0.0-2.0-14.0-2.0-0.0","battery-v0.2","","[{""page_index"":0,""viewing_time"":1391.5}]","1392.4000000059605","","","","","","","","","","","","","","","","","","","","","","",""
"pit-comprehension","36","121687","0.0-2.0-14.1-0.1","battery-v0.2","","","4216","","","","","","","","","","","","","","","10","0","","","","","","",""
"pit-instructions","37","122775","0.0-2.0-14.1-1.1","battery-v0.2","","[{""page_index"":0,""viewing_time"":1074.2999999821186}]","1074.7999999821186","","","","","","","","","","","","","","","","","","","","","","",""
"pit-comprehension","38","124879","0.0-2.0-15.0-0.0","battery-v0.2","","","2100.5","","","","","","","","","","","","","","","0","0","","","","","","",""
"pit-instructions","39","125944","0.0-2.0-15.0-1.0","battery-v0.2","","[{""page_index"":0,""viewing_time"":1050.699999988079}]","1051.199999988079","","","","","","","","","","","","","","","","","","","","","","",""
"pit-comprehension","40","128231","0.0-2.0-16.0-0.0","battery-v0.2","","","2281.9000000059605","","","","","","","","","","","","","","","True","0","","","","","","",""
"pit-instructions","41","129203","0.0-2.0-16.0-1.0","battery-v0.2","","[{""page_index"":0,""viewing_time"":957}]","957.5","","","","","","","","","","","","","","","","","","","","","","",""
"pit-comprehension","42","132701","0.0-2.0-17.0-0.0","battery-v0.2","","","3494.5999999940395","","","","","","","","","","","","","","","True","0","","","","","","",""
"pit-instructions","43","133608","0.0-2.0-17.0-1.0","battery-v0.2","","[{""page_index"":0,""viewing_time"":892.7999999821186}]","893.0999999940395","","","","","","","","","","","","","","","","","","","","","","",""
"pit-comprehension","44","135680","0.0-2.0-18.0-0.0","battery-v0.2","","","2069","","","","","","","","","","","","","","","True","0","","","","","","",""
"pit-instructions","45","136503","0.0-2.0-18.0-1.0","battery-v0.2","","[{""page_index"":0,""viewing_time"":807.5}]","807.8000000119209","","","","","","","","","","","","","","","","","","","","","","",""
"pit-instructions","46","139878","0.0-3.0","battery-v0.2","","[{""page_index"":0,""viewing_time"":653.9000000059605},{""page_index"":1,""viewing_time"":2075.2999999821186},{""page_index"":2,""viewing_time"":644.2000000178814}]","3374.0999999940395","","","","","","","","","","","","","","","","","","","","","","",""
"pit-trial","47","147102","0.0-4.0","battery-v0.2","","","-1","&#9733;","elianto","#3366ff99","-1","-1","1","+10","","0","1","","","","","","","5ee95e0e8737a0304baac70a&order=3&STUDY_ID=61caf6d05e4609be7bf98488","1","2","2","win","no-go","0"
"pit-trial","48","153392","0.0-5.0","battery-v0.2","","","-1","&#9730;","elianto","#3366ff99","32","-1","0","+10","","0","1","","","","","","","5ee95e0e8737a0304baac70a&order=3&STUDY_ID=61caf6d05e4609be7bf98488","2","1","1","win","go","1"
"pit-trial","49","159682","0.0-6.0","battery-v0.2","","","-1","&#9752;","elianto","#f73b6a7A","32","-1","0","0","","0","1","","","","","","","5ee95e0e8737a0304baac70a&order=3&STUDY_ID=61caf6d05e4609be7bf98488","3","3","3","lose","go","1"
"pit-trial","50","166392","0.0-7.0","battery-v0.2","","","-1","&#9728;","elianto","#f73b6a7A","-1","-1","1","0","","0","1","","","","","","","5ee95e0e8737a0304baac70a&order=3&STUDY_ID=61caf6d05e4609be7bf98488","4","0","4","lose","no-go","0"
"pit-trial","51","172393","0.0-8.0","battery-v0.2","","","-1","&#9752;","elianto","#f73b6a7A","32","-1","0","-10","","0","1","","","","","","","5ee95e0e8737a0304baac70a&order=3&STUDY_ID=61caf6d05e4609be7bf98488","5","3","3","lose","go","0"
"pit-trial","52","178392","0.0-9.0","battery-v0.2","","","-1","&#9728;","elianto","#f73b6a7A","-1","-1","1","0","","0","1","","","","","","","5ee95e0e8737a0304baac70a&order=3&STUDY_ID=61caf6d05e4609be7bf98488","6","0","4","lose","no-go","0"
"pit-trial","53","184392","0.0-10.0","battery-v0.2","","","-1","&#9733;","elianto","#3366ff99","-1","-1","1","0","","0","1","","","","","","","5ee95e0e8737a0304baac70a&order=3&STUDY_ID=61caf6d05e4609be7bf98488","7","2","2","win","no-go","1"
"pit-trial","54","190395","0.0-11.0","battery-v0.2","","","-1","&#9730;","elianto","#3366ff99","32","-1","0","0","","0","1","","","","","","","5ee95e0e8737a0304baac70a&order=3&STUDY_ID=61caf6d05e4609be7bf98488","8","1","1","win","go","0"
"pit-trial","55","197890","0.0-12.0","battery-v0.2","","","-1","&#9733;","elianto","#3366ff99","-1","-1","1","+10","","0","1","","","","","","","5ee95e0e8737a0304baac70a&order=3&STUDY_ID=61caf6d05e4609be7bf98488","9","2","2","win","no-go","0"
"pit-trial","56","204392","0.0-13.0","battery-v0.2","","","-1","&#9730;","elianto","#3366ff99","32","-1","0","+10","","0","1","","","","","","","5ee95e0e8737a0304baac70a&order=3&STUDY_ID=61caf6d05e4609be7bf98488","10","1","1","win","go","1"
"pit-trial","57","211075","0.0-14.0","battery-v0.2","","","-1","&#9752;","elianto","#f73b6a7A","32","-1","0","-10","","0","1","","","","","","","5ee95e0e8737a0304baac70a&order=3&STUDY_ID=61caf6d05e4609be7bf98488","11","3","3","lose","go","0"
"pit-trial","58","217391","0.0-15.0","battery-v0.2","","","-1","&#9728;","elianto","#f73b6a7A","-1","-1","1","0","","0","1","","","","","","","5ee95e0e8737a0304baac70a&order=3&STUDY_ID=61caf6d05e4609be7bf98488","12","0","4","lose","no-go","0"
"pit-trial","59","223394","0.0-16.0","battery-v0.2","","","-1","&#9733;","elianto","#3366ff99","-1","-1","1","0","","0","1","","","","","","","5ee95e0e8737a0304baac70a&order=3&STUDY_ID=61caf6d05e4609be7bf98488","13","2","2","win","no-go","1"
"pit-trial","60","229482","0.0-17.0","battery-v0.2","","","-1","&#9730;","elianto","#3366ff99","32","-1","0","0","","0","1","","","","","","","5ee95e0e8737a0304baac70a&order=3&STUDY_ID=61caf6d05e4609be7bf98488","14","1","1","win","go","0"
"pit-trial","61","235393","0.0-18.0","battery-v0.2","","","-1","&#9752;","elianto","#f73b6a7A","32","-1","0","-10","","0","1","","","","","","","5ee95e0e8737a0304baac70a&order=3&STUDY_ID=61caf6d05e4609be7bf98488","15","3","3","lose","go","0"
"pit-trial","62","241393","0.0-19.0","battery-v0.2","","","-1","&#9728;","elianto","#f73b6a7A","-1","-1","1","-10","","0","1","","","","","","","5ee95e0e8737a0304baac70a&order=3&STUDY_ID=61caf6d05e4609be7bf98488","16","0","4","lose","no-go","1"
"pit-trial","63","247398","0.0-20.0","battery-v0.2","","","-1","&#9730;","elianto","#3366ff99","32","-1","0","0","","0","1","","","","","","","5ee95e0e8737a0304baac70a&order=3&STUDY_ID=61caf6d05e4609be7bf98488","17","1","1","win","go","0"
"pit-trial","64","253391","0.0-21.0","battery-v0.2","","","-1","&#9733;","elianto","#3366ff99","-1","-1","1","+10","","0","1","","","","","","","5ee95e0e8737a0304baac70a&order=3&STUDY_ID=61caf6d05e4609be7bf98488","18","2","2","win","no-go","0"
"pit-trial","65","259392","0.0-22.0","battery-v0.2","","","-1","&#9728;","elianto","#f73b6a7A","-1","-1","1","0","","0","1","","","","","","","5ee95e0e8737a0304baac70a&order=3&STUDY_ID=61caf6d05e4609be7bf98488","19","0","4","lose","no-go","0"
"pit-trial","66","265391","0.0-23.0","battery-v0.2","","","-1","&#9752;","elianto","#f73b6a7A","32","-1","0","-10","","0","1","","","","","","","5ee95e0e8737a0304baac70a&order=3&STUDY_ID=61caf6d05e4609be7bf98488","20","3","3","lose","go","0"
"pit-instructions","67","358588","0.0-24.0","battery-v0.2","","[{""page_index"":0,""viewing_time"":92883},{""page_index"":1,""viewing_time"":312.2999999821186}]","93195.90000000596","","","","","","","","","","","","","","","","","","","","","","",""
"pit-trial","68","365392","0.0-25.0","battery-v0.2","","","-1","v","elianto","#3366ff99","-1","-1","1","+10","","0","2","","","","","","","5ee95e0e8737a0304baac70a&order=3&STUDY_ID=61caf6d05e4609be7bf98488","21","0","2","win","no-go","0"
"pit-trial","69","372067","0.0-26.0","battery-v0.2","","","-1","k","elianto","#3366ff99","32","-1","0","0","","0","2","","","","","","","5ee95e0e8737a0304baac70a&order=3&STUDY_ID=61caf6d05e4609be7bf98488","22","3","1","win","go","0"
"pit-trial","70","378391","0.0-27.0","battery-v0.2","","","-1","d","elianto","#f73b6a7A","-1","-1","1","0","","0","2","","","","","","","5ee95e0e8737a0304baac70a&order=3&STUDY_ID=61caf6d05e4609be7bf98488","23","2","4","lose","no-go","0"
"pit-trial","71","385887","0.0-28.0","battery-v0.2","","","-1","j","elianto","#f73b6a7A","32","-1","0","-10","","0","2","","","","","","","5ee95e0e8737a0304baac70a&order=3&STUDY_ID=61caf6d05e4609be7bf98488","24","1","3","lose","go","0"
"pit-trial","72","393555","0.0-29.0","battery-v0.2","","","-1","j","elianto","#f73b6a7A","32","-1","0","0","","0","2","","","","","","","5ee95e0e8737a0304baac70a&order=3&STUDY_ID=61caf6d05e4609be7bf98488","25","1","3","lose","go","1"
"pit-trial","73","401781","0.0-30.0","battery-v0.2","","","-1","k","elianto","#3366ff99","32","-1","0","+10","","0","2","","","","","","","5ee95e0e8737a0304baac70a&order=3&STUDY_ID=61caf6d05e4609be7bf98488","26","3","1","win","go","1"
"pit-trial","74","409575","0.0-31.0","battery-v0.2","","","-1","d","elianto","#f73b6a7A","-1","-1","1","0","","0","2","","","","","","","5ee95e0e8737a0304baac70a&order=3&STUDY_ID=61caf6d05e4609be7bf98488","27","2","4","lose","no-go","0"
"pit-trial","75","416391","0.0-32.0","battery-v0.2","","","-1","v","elianto","#3366ff99","-1","-1","1","+10","","0","2","","","","","","","5ee95e0e8737a0304baac70a&order=3&STUDY_ID=61caf6d05e4609be7bf98488","28","0","2","win","no-go","0"
"pit-trial","76","422392","0.0-33.0","battery-v0.2","","","-1","k","elianto","#3366ff99","32","-1","0","0","","0","2","","","","","","","5ee95e0e8737a0304baac70a&order=3&STUDY_ID=61caf6d05e4609be7bf98488","29","3","1","win","go","0"
"pit-trial","77","428391","0.0-34.0","battery-v0.2","","","-1","v","elianto","#3366ff99","-1","-1","1","+10","","0","2","","","","","","","5ee95e0e8737a0304baac70a&order=3&STUDY_ID=61caf6d05e4609be7bf98488","30","0","2","win","no-go","0"
"pit-trial","78","435843","0.0-35.0","battery-v0.2","","","-1","d","elianto","#f73b6a7A","-1","-1","1","0","","0","2","","","","","","","5ee95e0e8737a0304baac70a&order=3&STUDY_ID=61caf6d05e4609be7bf98488","31","2","4","lose","no-go","0"
"pit-trial","79","443560","0.0-36.0","battery-v0.2","","","-1","j","elianto","#f73b6a7A","32","-1","0","-10","","0","2","","","","","","","5ee95e0e8737a0304baac70a&order=3&STUDY_ID=61caf6d05e4609be7bf98488","32","1","3","lose","go","0"
"pit-trial","80","451598","0.0-37.0","battery-v0.2","","","-1","j","elianto","#f73b6a7A","32","-1","0","-10","","0","2","","","","","","","5ee95e0e8737a0304baac70a&order=3&STUDY_ID=61caf6d05e4609be7bf98488","33","1","3","lose","go","0"
"pit-trial","81","458391","0.0-38.0","battery-v0.2","","","-1","d","elianto","#f73b6a7A","-1","-1","1","0","","0","2","","","","","","","5ee95e0e8737a0304baac70a&order=3&STUDY_ID=61caf6d05e4609be7bf98488","34","2","4","lose","no-go","0"
"pit-trial","82","464391","0.0-39.0","battery-v0.2","","","-1","k","elianto","#3366ff99","32","-1","0","0","","0","2","","","","","","","5ee95e0e8737a0304baac70a&order=3&STUDY_ID=61caf6d05e4609be7bf98488","35","3","1","win","go","0"
"pit-trial","83","470391","0.0-40.0","battery-v0.2","","","-1","v","elianto","#3366ff99","-1","-1","1","+10","","0","2","","","","","","","5ee95e0e8737a0304baac70a&order=3&STUDY_ID=61caf6d05e4609be7bf98488","36","0","2","win","no-go","0"
"pit-trial","84","476390","0.0-41.0","battery-v0.2","","","-1","k","elianto","#3366ff99","32","-1","0","0","","0","2","","","","","","","5ee95e0e8737a0304baac70a&order=3&STUDY_ID=61caf6d05e4609be7bf98488","37","3","1","win","go","0"
"pit-trial","85","483591","0.0-42.0","battery-v0.2","","","-1","j","elianto","#f73b6a7A","32","-1","0","-10","","0","2","","","","","","","5ee95e0e8737a0304baac70a&order=3&STUDY_ID=61caf6d05e4609be7bf98488","38","1","3","lose","go","0"
"pit-trial","86","491396","0.0-43.0","battery-v0.2","","","-1","v","elianto","#3366ff99","-1","-1","1","+10","","0","2","","","","","","","5ee95e0e8737a0304baac70a&order=3&STUDY_ID=61caf6d05e4609be7bf98488","39","0","2","win","no-go","0"
"pit-trial","87","498480","0.0-44.0","battery-v0.2","","","-1","d","elianto","#f73b6a7A","-1","-1","1","0","","0","2","","","","","","","5ee95e0e8737a0304baac70a&order=3&STUDY_ID=61caf6d05e4609be7bf98488","40","2","4","lose","no-go","0"
"pit-trial","88","505519","0.0-45.0","battery-v0.2","","","-1","k","elianto","#3366ff99","32","-1","0","0","","0","2","","","","","","","5ee95e0e8737a0304baac70a&order=3&STUDY_ID=61caf6d05e4609be7bf98488","41","3","1","win","go","0"
"pit-trial","89","512475","0.0-46.0","battery-v0.2","","","-1","v","elianto","#3366ff99","-1","-1","1","+10","","0","2","","","","","","","5ee95e0e8737a0304baac70a&order=3&STUDY_ID=61caf6d05e4609be7bf98488","42","0","2","win","no-go","0"
"pit-trial","90","519481","0.0-47.0","battery-v0.2","","","-1","j","elianto","#f73b6a7A","32","-1","0","-10","","0","2","","","","","","","5ee95e0e8737a0304baac70a&order=3&STUDY_ID=61caf6d05e4609be7bf98488","43","1","3","lose","go","0"
"pit-trial","91","525390","0.0-48.0","battery-v0.2","","","-1","d","elianto","#f73b6a7A","-1","-1","1","0","","0","2","","","","","","","5ee95e0e8737a0304baac70a&order=3&STUDY_ID=61caf6d05e4609be7bf98488","44","2","4","lose","no-go","0"
"pit-trial","92","531390","0.0-49.0","battery-v0.2","","","-1","v","elianto","#3366ff99","-1","-1","1","+10","","0","2","","","","","","","5ee95e0e8737a0304baac70a&order=3&STUDY_ID=61caf6d05e4609be7bf98488","45","0","2","win","no-go","0"
"pit-trial","93","537390","0.0-50.0","battery-v0.2","","","-1","d","elianto","#f73b6a7A","-1","-1","1","0","","0","2","","","","","","","5ee95e0e8737a0304baac70a&order=3&STUDY_ID=61caf6d05e4609be7bf98488","46","2","4","lose","no-go","0"
"pit-trial","94","542491","0.0-51.0","battery-v0.2","","","-1","k","elianto","#3366ff99","32","-1","0","+10","","0","2","","","","","","","5ee95e0e8737a0304baac70a&order=3&STUDY_ID=61caf6d05e4609be7bf98488","47","3","1","win","go","1"
"pit-trial","95","549510","0.0-52.0","battery-v0.2","","","-1","j","elianto","#f73b6a7A","32","-1","0","-10","","0","2","","","","","","","5ee95e0e8737a0304baac70a&order=3&STUDY_ID=61caf6d05e4609be7bf98488","48","1","3","lose","go","0"
"pit-trial","96","556647","0.0-53.0","battery-v0.2","","","-1","j","elianto","#f73b6a7A","32","-1","0","-10","","0","2","","","","","","","5ee95e0e8737a0304baac70a&order=3&STUDY_ID=61caf6d05e4609be7bf98488","49","1","3","lose","go","0"
"pit-trial","97","564587","0.0-54.0","battery-v0.2","","","-1","k","elianto","#3366ff99","32","-1","0","0","","0","2","","","","","","","5ee95e0e8737a0304baac70a&order=3&STUDY_ID=61caf6d05e4609be7bf98488","50","3","1","win","go","0"
"pit-trial","98","572591","0.0-55.0","battery-v0.2","","","-1","v","elianto","#3366ff99","-1","-1","1","+10","","0","2","","","","","","","5ee95e0e8737a0304baac70a&order=3&STUDY_ID=61caf6d05e4609be7bf98488","51","0","2","win","no-go","0"
"pit-trial","99","580597","0.0-56.0","battery-v0.2","","","-1","d","elianto","#f73b6a7A","-1","-1","1","0","","0","2","","","","","","","5ee95e0e8737a0304baac70a&order=3&STUDY_ID=61caf6d05e4609be7bf98488","52","2","4","lose","no-go","0"
"pit-trial","100","588592","0.0-57.0","battery-v0.2","","","-1","e","elianto","#f73b6a7A","32","-1","0","-10","","0","2","","","","","","","5ee95e0e8737a0304baac70a&order=3&STUDY_ID=61caf6d05e4609be7bf98488","53","4","3","lose","go","0"
"pit-trial","101","596598","0.0-58.0","battery-v0.2","","","-1","d","elianto","#f73b6a7A","-1","-1","1","0","","0","2","","","","","","","5ee95e0e8737a0304baac70a&order=3&STUDY_ID=61caf6d05e4609be7bf98488","54","2","4","lose","no-go","0"
"pit-trial","102","604068","0.0-59.0","battery-v0.2","","","-1","j","elianto","#f73b6a7A","32","-1","0","0","","0","2","","","","","","","5ee95e0e8737a0304baac70a&order=3&STUDY_ID=61caf6d05e4609be7bf98488","55","1","3","lose","go","1"
"pit-trial","103","611530","0.0-60.0","battery-v0.2","","","-1","w","elianto","#f73b6a7A","-1","-1","1","0","","0","2","","","","","","","5ee95e0e8737a0304baac70a&order=3&STUDY_ID=61caf6d05e4609be7bf98488","56","5","4","lose","no-go","0"
"pit-trial","104","618481","0.0-61.0","battery-v0.2","","","-1","w","elianto","#f73b6a7A","-1","-1","1","0","","0","2","","","","","","","5ee95e0e8737a0304baac70a&order=3&STUDY_ID=61caf6d05e4609be7bf98488","57","5","4","lose","no-go","0"
"pit-trial","105","625481","0.0-62.0","battery-v0.2","","","-1","d","elianto","#f73b6a7A","-1","-1","1","0","","0","2","","","","","","","5ee95e0e8737a0304baac70a&order=3&STUDY_ID=61caf6d05e4609be7bf98488","58","2","4","lose","no-go","0"
"pit-trial","106","632482","0.0-63.0","battery-v0.2","","","-1","j","elianto","#f73b6a7A","32","-1","0","-10","","0","2","","","","","","","5ee95e0e8737a0304baac70a&order=3&STUDY_ID=61caf6d05e4609be7bf98488","59","1","3","lose","go","0"
"pit-trial","107","639414","0.0-64.0","battery-v0.2","","","-1","e","elianto","#f73b6a7A","32","-1","0","-10","","0","2","","","","","","","5ee95e0e8737a0304baac70a&order=3&STUDY_ID=61caf6d05e4609be7bf98488","60","4","3","lose","go","0"
"pit-trial","108","646468","0.0-65.0","battery-v0.2","","","-1","s","elianto","#3366ff99","-1","-1","1","+10","","0","2","","","","","","","5ee95e0e8737a0304baac70a&order=3&STUDY_ID=61caf6d05e4609be7bf98488","61","6","2","win","no-go","0"
"pit-trial","109","652908","0.0-66.0","battery-v0.2","","","-1","w","elianto","#f73b6a7A","-1","-1","1","0","","0","2","","","","","","","5ee95e0e8737a0304baac70a&order=3&STUDY_ID=61caf6d05e4609be7bf98488","62","5","4","lose","no-go","0"
"pit-trial","110","660505","0.0-67.0","battery-v0.2","","","-1","e","elianto","#f73b6a7A","32","-1","0","-10","","0","2","","","","","","","5ee95e0e8737a0304baac70a&order=3&STUDY_ID=61caf6d05e4609be7bf98488","63","4","3","lose","go","0"
"pit-trial","111","667450","0.0-68.0","battery-v0.2","","","-1","d","elianto","#f73b6a7A","-1","-1","1","0","","0","2","","","","","","","5ee95e0e8737a0304baac70a&order=3&STUDY_ID=61caf6d05e4609be7bf98488","64","2","4","lose","no-go","0"
"pit-trial","112","674455","0.0-69.0","battery-v0.2","","","-1","d","elianto","#f73b6a7A","-1","-1","1","0","","0","2","","","","","","","5ee95e0e8737a0304baac70a&order=3&STUDY_ID=61caf6d05e4609be7bf98488","65","2","4","lose","no-go","0"
"pit-trial","113","681454","0.0-70.0","battery-v0.2","","","-1","s","elianto","#3366ff99","-1","-1","1","+10","","0","2","","","","","","","5ee95e0e8737a0304baac70a&order=3&STUDY_ID=61caf6d05e4609be7bf98488","66","6","2","win","no-go","0"
"pit-trial","114","687500","0.0-71.0","battery-v0.2","","","-1","e","elianto","#f73b6a7A","32","-1","0","-10","","0","2","","","","","","","5ee95e0e8737a0304baac70a&order=3&STUDY_ID=61caf6d05e4609be7bf98488","67","4","3","lose","go","0"
"pit-trial","115","694448","0.0-72.0","battery-v0.2","","","-1","w","elianto","#f73b6a7A","-1","-1","1","0","","0","2","","","","","","","5ee95e0e8737a0304baac70a&order=3&STUDY_ID=61caf6d05e4609be7bf98488","68","5","4","lose","no-go","0"
"pit-trial","116","701425","0.0-73.0","battery-v0.2","","","-1","w","elianto","#f73b6a7A","-1","-1","1","-10","","0","2","","","","","","","5ee95e0e8737a0304baac70a&order=3&STUDY_ID=61caf6d05e4609be7bf98488","69","5","4","lose","no-go","1"
"pit-trial","117","708450","0.0-74.0","battery-v0.2","","","-1","e","elianto","#f73b6a7A","32","-1","0","0","","0","2","","","","","","","5ee95e0e8737a0304baac70a&order=3&STUDY_ID=61caf6d05e4609be7bf98488","70","4","3","lose","go","1"
"pit-trial","118","715447","0.0-75.0","battery-v0.2","","","-1","s","elianto","#3366ff99","-1","-1","1","+10","","0","2","","","","","","","5ee95e0e8737a0304baac70a&order=3&STUDY_ID=61caf6d05e4609be7bf98488","71","6","2","win","no-go","0"
"pit-trial","119","722448","0.0-76.0","battery-v0.2","","","-1","p","elianto","#3366ff99","32","-1","0","0","","0","2","","","","","","","5ee95e0e8737a0304baac70a&order=3&STUDY_ID=61caf6d05e4609be7bf98488","72","7","1","win","go","0"
"pit-trial","120","729452","0.0-77.0","battery-v0.2","","","-1","w","elianto","#f73b6a7A","-1","-1","1","0","","0","2","","","","","","","5ee95e0e8737a0304baac70a&order=3&STUDY_ID=61caf6d05e4609be7bf98488","73","5","4","lose","no-go","0"
"pit-trial","121","736440","0.0-78.0","battery-v0.2","","","-1","p","elianto","#3366ff99","32","-1","0","0","","0","2","","","","","","","5ee95e0e8737a0304baac70a&order=3&STUDY_ID=61caf6d05e4609be7bf98488","74","7","1","win","go","0"
"pit-trial","122","743453","0.0-79.0","battery-v0.2","","","-1","e","elianto","#f73b6a7A","32","-1","0","0","","0","2","","","","","","","5ee95e0e8737a0304baac70a&order=3&STUDY_ID=61caf6d05e4609be7bf98488","75","4","3","lose","go","1"
"pit-trial","123","750382","0.0-80.0","battery-v0.2","","","-1","s","elianto","#3366ff99","-1","-1","1","+10","","0","2","","","","","","","5ee95e0e8737a0304baac70a&order=3&STUDY_ID=61caf6d05e4609be7bf98488","76","6","2","win","no-go","0"
"pit-trial","124","757462","0.0-81.0","battery-v0.2","","","-1","e","elianto","#f73b6a7A","32","-1","0","-10","","0","2","","","","","","","5ee95e0e8737a0304baac70a&order=3&STUDY_ID=61caf6d05e4609be7bf98488","77","4","3","lose","go","0"
"pit-trial","125","764451","0.0-82.0","battery-v0.2","","","-1","s","elianto","#3366ff99","-1","-1","1","0","","0","2","","","","","","","5ee95e0e8737a0304baac70a&order=3&STUDY_ID=61caf6d05e4609be7bf98488","78","6","2","win","no-go","1"
"pit-trial","126","770358","0.0-83.0","battery-v0.2","","","-1","w","elianto","#f73b6a7A","-1","-1","1","0","","0","2","","","","","","","5ee95e0e8737a0304baac70a&order=3&STUDY_ID=61caf6d05e4609be7bf98488","79","5","4","lose","no-go","0"
"pit-trial","127","777259","0.0-84.0","battery-v0.2","","","-1","p","elianto","#3366ff99","32","-1","0","0","","0","2","","","","","","","5ee95e0e8737a0304baac70a&order=3&STUDY_ID=61caf6d05e4609be7bf98488","80","7","1","win","go","0"
"pit-trial","128","782115","0.0-85.0","battery-v0.2","","","-1","s","elianto","#3366ff99","-1","-1","1","+10","","0","2","","","","","","","5ee95e0e8737a0304baac70a&order=3&STUDY_ID=61caf6d05e4609be7bf98488","81","6","2","win","no-go","0"
"pit-trial","129","786972","0.0-86.0","battery-v0.2","","","-1","p","elianto","#3366ff99","32","-1","0","0","","0","2","","","","","","","5ee95e0e8737a0304baac70a&order=3&STUDY_ID=61caf6d05e4609be7bf98488","82","7","1","win","go","0"
"pit-trial","130","791833","0.0-87.0","battery-v0.2","","","-1","e","elianto","#f73b6a7A","32","-1","0","-10","","0","2","","","","","","","5ee95e0e8737a0304baac70a&order=3&STUDY_ID=61caf6d05e4609be7bf98488","83","4","3","lose","go","0"
"pit-trial","131","796688","0.0-88.0","battery-v0.2","","","-1","w","elianto","#f73b6a7A","-1","-1","1","0","","0","2","","","","","","","5ee95e0e8737a0304baac70a&order=3&STUDY_ID=61caf6d05e4609be7bf98488","84","5","4","lose","no-go","0"
"pit-trial","132","801549","0.0-89.0","battery-v0.2","","","-1","w","elianto","#f73b6a7A","-1","-1","1","0","","0","2","","","","","","","5ee95e0e8737a0304baac70a&order=3&STUDY_ID=61caf6d05e4609be7bf98488","85","5","4","lose","no-go","0"
"pit-trial","133","806408","0.0-90.0","battery-v0.2","","","-1","e","elianto","#f73b6a7A","32","-1","0","0","","0","2","","","","","","","5ee95e0e8737a0304baac70a&order=3&STUDY_ID=61caf6d05e4609be7bf98488","86","4","3","lose","go","1"
"pit-trial","134","811267","0.0-91.0","battery-v0.2","","","-1","p","elianto","#3366ff99","32","-1","0","0","","0","2","","","","","","","5ee95e0e8737a0304baac70a&order=3&STUDY_ID=61caf6d05e4609be7bf98488","87","7","1","win","go","0"
"pit-trial","135","816126","0.0-92.0","battery-v0.2","","","-1","s","elianto","#3366ff99","-1","-1","1","+10","","0","2","","","","","","","5ee95e0e8737a0304baac70a&order=3&STUDY_ID=61caf6d05e4609be7bf98488","88","6","2","win","no-go","0"
"pit-trial","136","820981","0.0-93.0","battery-v0.2","","","-1","w","elianto","#f73b6a7A","-1","-1","1","-10","","0","2","","","","","","","5ee95e0e8737a0304baac70a&order=3&STUDY_ID=61caf6d05e4609be7bf98488","89","5","4","lose","no-go","1"
"pit-trial","137","825837","0.0-94.0","battery-v0.2","","","-1","e","elianto","#f73b6a7A","32","-1","0","0","","0","2","","","","","","","5ee95e0e8737a0304baac70a&order=3&STUDY_ID=61caf6d05e4609be7bf98488","90","4","3","lose","go","1"
"pit-trial","138","830699","0.0-95.0","battery-v0.2","","","-1","s","elianto","#3366ff99","-1","-1","1","+10","","0","2","","","","","","","5ee95e0e8737a0304baac70a&order=3&STUDY_ID=61caf6d05e4609be7bf98488","91","6","2","win","no-go","0"
"pit-trial","139","835560","0.0-96.0","battery-v0.2","","","-1","p","elianto","#3366ff99","32","-1","0","0","","0","2","","","","","","","5ee95e0e8737a0304baac70a&order=3&STUDY_ID=61caf6d05e4609be7bf98488","92","7","1","win","go","0"
"pit-trial","140","840416","0.0-97.0","battery-v0.2","","","-1","s","elianto","#3366ff99","-1","-1","1","+10","","0","2","","","","","","","5ee95e0e8737a0304baac70a&order=3&STUDY_ID=61caf6d05e4609be7bf98488","93","6","2","win","no-go","0"
"pit-trial","141","845358","0.0-98.0","battery-v0.2","","","-1","p","elianto","#3366ff99","32","-1","0","0","","0","2","","","","","","","5ee95e0e8737a0304baac70a&order=3&STUDY_ID=61caf6d05e4609be7bf98488","94","7","1","win","go","0"
"pit-trial","142","850846","0.0-99.0","battery-v0.2","","","-1","g","elianto","#3366ff99","32","-1","0","0","","0","2","","","","","","","5ee95e0e8737a0304baac70a&order=3&STUDY_ID=61caf6d05e4609be7bf98488","95","8","1","win","go","0"
"pit-trial","143","857370","0.0-100.0","battery-v0.2","","","-1","e","elianto","#f73b6a7A","32","-1","0","-10","","0","2","","","","","","","5ee95e0e8737a0304baac70a&order=3&STUDY_ID=61caf6d05e4609be7bf98488","96","4","3","lose","go","0"
"pit-trial","144","862358","0.0-101.0","battery-v0.2","","","-1","e","elianto","#f73b6a7A","32","-1","0","-10","","0","2","","","","","","","5ee95e0e8737a0304baac70a&order=3&STUDY_ID=61caf6d05e4609be7bf98488","97","4","3","lose","go","0"
"pit-trial","145","867215","0.0-102.0","battery-v0.2","","","-1","s","elianto","#3366ff99","-1","-1","1","+10","","0","2","","","","","","","5ee95e0e8737a0304baac70a&order=3&STUDY_ID=61caf6d05e4609be7bf98488","98","6","2","win","no-go","0"
"pit-trial","146","872074","0.0-103.0","battery-v0.2","","","-1","g","elianto","#3366ff99","32","-1","0","0","","0","2","","","","","","","5ee95e0e8737a0304baac70a&order=3&STUDY_ID=61caf6d05e4609be7bf98488","99","8","1","win","go","0"
"pit-trial","147","876934","0.0-104.0","battery-v0.2","","","-1","p","elianto","#3366ff99","32","-1","0","0","","0","2","","","","","","","5ee95e0e8737a0304baac70a&order=3&STUDY_ID=61caf6d05e4609be7bf98488","100","7","1","win","go","0"
"pit-trial","148","881793","0.0-105.0","battery-v0.2","","","-1","a","elianto","#3366ff99","-1","-1","1","+10","","0","2","","","","","","","5ee95e0e8737a0304baac70a&order=3&STUDY_ID=61caf6d05e4609be7bf98488","101","9","2","win","no-go","0"
"pit-trial","149","887358","0.0-106.0","battery-v0.2","","","-1","g","elianto","#3366ff99","32","-1","0","0","","0","2","","","","","","","5ee95e0e8737a0304baac70a&order=3&STUDY_ID=61caf6d05e4609be7bf98488","102","8","1","win","go","0"
"pit-trial","150","892475","0.0-107.0","battery-v0.2","","","-1","s","elianto","#3366ff99","-1","-1","1","+10","","0","2","","","","","","","5ee95e0e8737a0304baac70a&order=3&STUDY_ID=61caf6d05e4609be7bf98488","103","6","2","win","no-go","0"
"pit-trial","151","897334","0.0-108.0","battery-v0.2","","","-1","p","elianto","#3366ff99","32","-1","0","0","","0","2","","","","","","","5ee95e0e8737a0304baac70a&order=3&STUDY_ID=61caf6d05e4609be7bf98488","104","7","1","win","go","0"
"pit-trial","152","902196","0.0-109.0","battery-v0.2","","","-1","p","elianto","#3366ff99","32","-1","0","0","","0","2","","","","","","","5ee95e0e8737a0304baac70a&order=3&STUDY_ID=61caf6d05e4609be7bf98488","105","7","1","win","go","0"
"pit-trial","153","907052","0.0-110.0","battery-v0.2","","","-1","s","elianto","#3366ff99","-1","-1","1","0","","0","2","","","","","","","5ee95e0e8737a0304baac70a&order=3&STUDY_ID=61caf6d05e4609be7bf98488","106","6","2","win","no-go","1"
"pit-trial","154","911909","0.0-111.0","battery-v0.2","","","-1","a","elianto","#3366ff99","-1","-1","1","0","","0","2","","","","","","","5ee95e0e8737a0304baac70a&order=3&STUDY_ID=61caf6d05e4609be7bf98488","107","9","2","win","no-go","1"
"pit-trial","155","916766","0.0-112.0","battery-v0.2","","","-1","g","elianto","#3366ff99","32","-1","0","0","","0","2","","","","","","","5ee95e0e8737a0304baac70a&order=3&STUDY_ID=61caf6d05e4609be7bf98488","108","8","1","win","go","0"
"pit-trial","156","921625","0.0-113.0","battery-v0.2","","","-1","g","elianto","#3366ff99","32","-1","0","0","","0","2","","","","","","","5ee95e0e8737a0304baac70a&order=3&STUDY_ID=61caf6d05e4609be7bf98488","109","8","1","win","go","0"
"pit-trial","157","926484","0.0-114.0","battery-v0.2","","","-1","l","elianto","#f73b6a7A","32","-1","0","0","","0","2","","","","","","","5ee95e0e8737a0304baac70a&order=3&STUDY_ID=61caf6d05e4609be7bf98488","110","10","3","lose","go","1"
"pit-trial","158","931342","0.0-115.0","battery-v0.2","","","-1","u","elianto","#f73b6a7A","-1","-1","1","0","","0","2","","","","","","","5ee95e0e8737a0304baac70a&order=3&STUDY_ID=61caf6d05e4609be7bf98488","111","11","4","lose","no-go","0"
"pit-trial","159","936198","0.0-116.0","battery-v0.2","","","-1","a","elianto","#3366ff99","-1","-1","1","+10","","0","2","","","","","","","5ee95e0e8737a0304baac70a&order=3&STUDY_ID=61caf6d05e4609be7bf98488","112","9","2","win","no-go","0"
"pit-trial","160","941053","0.0-117.0","battery-v0.2","","","-1","g","elianto","#3366ff99","32","-1","0","0","","0","2","","","","","","","5ee95e0e8737a0304baac70a&order=3&STUDY_ID=61caf6d05e4609be7bf98488","113","8","1","win","go","0"
"pit-trial","161","945913","0.0-118.0","battery-v0.2","","","-1","u","elianto","#f73b6a7A","-1","-1","1","0","","0","2","","","","","","","5ee95e0e8737a0304baac70a&order=3&STUDY_ID=61caf6d05e4609be7bf98488","114","11","4","lose","no-go","0"
"pit-trial","162","950772","0.0-119.0","battery-v0.2","","","-1","l","elianto","#f73b6a7A","32","-1","0","-10","","0","2","","","","","","","5ee95e0e8737a0304baac70a&order=3&STUDY_ID=61caf6d05e4609be7bf98488","115","10","3","lose","go","0"
"pit-trial","163","955632","0.0-120.0","battery-v0.2","","","-1","a","elianto","#3366ff99","-1","-1","1","+10","","0","2","","","","","","","5ee95e0e8737a0304baac70a&order=3&STUDY_ID=61caf6d05e4609be7bf98488","116","9","2","win","no-go","0"
"pit-trial","164","960488","0.0-121.0","battery-v0.2","","","-1","g","elianto","#3366ff99","32","-1","0","0","","0","2","","","","","","","5ee95e0e8737a0304baac70a&order=3&STUDY_ID=61caf6d05e4609be7bf98488","117","8","1","win","go","0"
"pit-trial","165","965343","0.0-122.0","battery-v0.2","","","-1","a","elianto","#3366ff99","-1","-1","1","+10","","0","2","","","","","","","5ee95e0e8737a0304baac70a&order=3&STUDY_ID=61caf6d05e4609be7bf98488","118","9","2","win","no-go","0"
"pit-trial","166","970358","0.0-123.0","battery-v0.2","","","-1","u","elianto","#f73b6a7A","-1","-1","1","0","","0","2","","","","","","","5ee95e0e8737a0304baac70a&order=3&STUDY_ID=61caf6d05e4609be7bf98488","119","11","4","lose","no-go","0"
"pit-trial","167","977446","0.0-124.0","battery-v0.2","","","-1","l","elianto","#f73b6a7A","32","-1","0","-10","","0","2","","","","","","","5ee95e0e8737a0304baac70a&order=3&STUDY_ID=61caf6d05e4609be7bf98488","120","10","3","lose","go","0"
"pit-trial","168","984792","0.0-125.0","battery-v0.2","","","-1","l","elianto","#f73b6a7A","32","-1","0","0","","0","2","","","","","","","5ee95e0e8737a0304baac70a&order=3&STUDY_ID=61caf6d05e4609be7bf98488","121","10","3","lose","go","1"
"pit-trial","169","992534","0.0-126.0","battery-v0.2","","","-1","g","elianto","#3366ff99","32","-1","0","0","","0","2","","","","","","","5ee95e0e8737a0304baac70a&order=3&STUDY_ID=61caf6d05e4609be7bf98488","122","8","1","win","go","0"
"pit-trial","170","999706","0.0-127.0","battery-v0.2","","","-1","u","elianto","#f73b6a7A","-1","-1","1","-10","","0","2","","","","","","","5ee95e0e8737a0304baac70a&order=3&STUDY_ID=61caf6d05e4609be7bf98488","123","11","4","lose","no-go","1"
"pit-trial","171","1007540","0.0-128.0","battery-v0.2","","","-1","a","elianto","#3366ff99","-1","-1","1","0","","0","2","","","","","","","5ee95e0e8737a0304baac70a&order=3&STUDY_ID=61caf6d05e4609be7bf98488","124","9","2","win","no-go","1"
"pit-trial","172","1014357","0.0-129.0","battery-v0.2","","","-1","u","elianto","#f73b6a7A","-1","-1","1","0","","0","2","","","","","","","5ee95e0e8737a0304baac70a&order=3&STUDY_ID=61caf6d05e4609be7bf98488","125","11","4","lose","no-go","0"
"pit-trial","173","1021448","0.0-130.0","battery-v0.2","","","-1","l","elianto","#f73b6a7A","32","-1","0","-10","","0","2","","","","","","","5ee95e0e8737a0304baac70a&order=3&STUDY_ID=61caf6d05e4609be7bf98488","126","10","3","lose","go","0"
"pit-trial","174","1027357","0.0-131.0","battery-v0.2","","","-1","g","elianto","#3366ff99","32","-1","0","0","","0","2","","","","","","","5ee95e0e8737a0304baac70a&order=3&STUDY_ID=61caf6d05e4609be7bf98488","127","8","1","win","go","0"
"pit-trial","175","1034466","0.0-132.0","battery-v0.2","","","-1","a","elianto","#3366ff99","-1","-1","1","0","","0","2","","","","","","","5ee95e0e8737a0304baac70a&order=3&STUDY_ID=61caf6d05e4609be7bf98488","128","9","2","win","no-go","1"
"pit-trial","176","1041442","0.0-133.0","battery-v0.2","","","-1","a","elianto","#3366ff99","-1","-1","1","+10","","0","2","","","","","","","5ee95e0e8737a0304baac70a&order=3&STUDY_ID=61caf6d05e4609be7bf98488","129","9","2","win","no-go","0"
"pit-trial","177","1048851","0.0-134.0","battery-v0.2","","","-1","l","elianto","#f73b6a7A","32","-1","0","-10","","0","2","","","","","","","5ee95e0e8737a0304baac70a&order=3&STUDY_ID=61caf6d05e4609be7bf98488","130","10","3","lose","go","0"
"pit-trial","178","1056523","0.0-135.0","battery-v0.2","","","-1","g","elianto","#3366ff99","32","-1","0","0","","0","2","","","","","","","5ee95e0e8737a0304baac70a&order=3&STUDY_ID=61caf6d05e4609be7bf98488","131","8","1","win","go","0"
"pit-trial","179","1064852","0.0-136.0","battery-v0.2","","","-1","u","elianto","#f73b6a7A","-1","-1","1","0","","0","2","","","","","","","5ee95e0e8737a0304baac70a&order=3&STUDY_ID=61caf6d05e4609be7bf98488","132","11","4","lose","no-go","0"
"pit-trial","180","1072526","0.0-137.0","battery-v0.2","","","-1","l","elianto","#f73b6a7A","32","-1","0","0","","0","2","","","","","","","5ee95e0e8737a0304baac70a&order=3&STUDY_ID=61caf6d05e4609be7bf98488","133","10","3","lose","go","1"
"pit-trial","181","1080321","0.0-138.0","battery-v0.2","","","-1","g","elianto","#3366ff99","32","-1","0","+10","","0","2","","","","","","","5ee95e0e8737a0304baac70a&order=3&STUDY_ID=61caf6d05e4609be7bf98488","134","8","1","win","go","1"
"pit-trial","182","1087463","0.0-139.0","battery-v0.2","","","-1","a","elianto","#3366ff99","-1","-1","1","+10","","0","2","","","","","","","5ee95e0e8737a0304baac70a&order=3&STUDY_ID=61caf6d05e4609be7bf98488","135","9","2","win","no-go","0"
"pit-trial","183","1094446","0.0-140.0","battery-v0.2","","","-1","u","elianto","#f73b6a7A","-1","-1","1","0","","0","2","","","","","","","5ee95e0e8737a0304baac70a&order=3&STUDY_ID=61caf6d05e4609be7bf98488","136","11","4","lose","no-go","0"
"pit-trial","184","1101447","0.0-141.0","battery-v0.2","","","-1","a","elianto","#3366ff99","-1","-1","1","0","","0","2","","","","","","","5ee95e0e8737a0304baac70a&order=3&STUDY_ID=61caf6d05e4609be7bf98488","137","9","2","win","no-go","1"
"pit-trial","185","1108446","0.0-142.0","battery-v0.2","","","-1","u","elianto","#f73b6a7A","-1","-1","1","0","","0","2","","","","","","","5ee95e0e8737a0304baac70a&order=3&STUDY_ID=61caf6d05e4609be7bf98488","138","11","4","lose","no-go","0"
"pit-trial","186","1115448","0.0-143.0","battery-v0.2","","","-1","l","elianto","#f73b6a7A","32","-1","0","-10","","0","2","","","","","","","5ee95e0e8737a0304baac70a&order=3&STUDY_ID=61caf6d05e4609be7bf98488","139","10","3","lose","go","0"
"pit-trial","187","1122451","0.0-144.0","battery-v0.2","","","-1","g","elianto","#3366ff99","32","-1","0","0","","0","2","","","","","","","5ee95e0e8737a0304baac70a&order=3&STUDY_ID=61caf6d05e4609be7bf98488","140","8","1","win","go","0"
"pit-instructions","188","2255058","0.0-145.0","battery-v0.2","","[{""page_index"":0,""viewing_time"":1131983.5},{""page_index"":1,""viewing_time"":646.5999999940395}]","1132630.400000006","","","","","","","","","","","","","","","","","","","","","","",""
"pit-trial","189","2262277","0.0-146.0","battery-v0.2","","","-1","r","elianto","#3366ff99","-1","-1","1","+10","","0","3","","","","","","","5ee95e0e8737a0304baac70a&order=3&STUDY_ID=61caf6d05e4609be7bf98488","141","1","2","win","no-go","0"
"pit-trial","190","2269233","0.0-147.0","battery-v0.2","","","-1","y","elianto","#3366ff99","32","-1","0","0","","0","3","","","","","","","5ee95e0e8737a0304baac70a&order=3&STUDY_ID=61caf6d05e4609be7bf98488","142","2","1","win","go","0"
"pit-trial","191","2276451","0.0-148.0","battery-v0.2","","","-1","h","elianto","#f73b6a7A","32","-1","0","0","","0","3","","","","","","","5ee95e0e8737a0304baac70a&order=3&STUDY_ID=61caf6d05e4609be7bf98488","143","3","3","lose","go","1"
"pit-trial","192","2283418","0.0-149.0","battery-v0.2","","","-1","m","elianto","#3366ff99","-1","-1","1","+10","","0","3","","","","","","","5ee95e0e8737a0304baac70a&order=3&STUDY_ID=61caf6d05e4609be7bf98488","144","0","2","win","no-go","0"
"pit-trial","193","2289332","0.0-150.0","battery-v0.2","","","-1","r","elianto","#3366ff99","-1","-1","1","+10","","0","3","","","","","","","5ee95e0e8737a0304baac70a&order=3&STUDY_ID=61caf6d05e4609be7bf98488","145","1","2","win","no-go","0"
"pit-trial","194","2295331","0.0-151.0","battery-v0.2","","","-1","h","elianto","#f73b6a7A","32","-1","0","-10","","0","3","","","","","","","5ee95e0e8737a0304baac70a&order=3&STUDY_ID=61caf6d05e4609be7bf98488","146","3","3","lose","go","0"
"pit-trial","195","2301331","0.0-152.0","battery-v0.2","","","-1","y","elianto","#3366ff99","32","-1","0","0","","0","3","","","","","","","5ee95e0e8737a0304baac70a&order=3&STUDY_ID=61caf6d05e4609be7bf98488","147","2","1","win","go","0"
"pit-trial","196","2307331","0.0-153.0","battery-v0.2","","","-1","m","elianto","#3366ff99","-1","-1","1","+10","","0","3","","","","","","","5ee95e0e8737a0304baac70a&order=3&STUDY_ID=61caf6d05e4609be7bf98488","148","0","2","win","no-go","0"
"pit-trial","197","2314057","0.0-154.0","battery-v0.2","","","-1","r","elianto","#3366ff99","-1","-1","1","0","","0","3","","","","","","","5ee95e0e8737a0304baac70a&order=3&STUDY_ID=61caf6d05e4609be7bf98488","149","1","2","win","no-go","1"
"pit-trial","198","2321825","0.0-155.0","battery-v0.2","","","-1","y","elianto","#3366ff99","32","-1","0","+10","","0","3","","","","","","","5ee95e0e8737a0304baac70a&order=3&STUDY_ID=61caf6d05e4609be7bf98488","150","2","1","win","go","1"
"pit-trial","199","2328332","0.0-156.0","battery-v0.2","","","-1","h","elianto","#f73b6a7A","32","-1","0","0","","0","3","","","","","","","5ee95e0e8737a0304baac70a&order=3&STUDY_ID=61caf6d05e4609be7bf98488","151","3","3","lose","go","1"
"pit-trial","200","2334331","0.0-157.0","battery-v0.2","","","-1","m","elianto","#3366ff99","-1","-1","1","+10","","0","3","","","","","","","5ee95e0e8737a0304baac70a&order=3&STUDY_ID=61caf6d05e4609be7bf98488","152","0","2","win","no-go","0"
"pit-trial","201","2341345","0.0-158.0","battery-v0.2","","","-1","h","elianto","#f73b6a7A","32","-1","0","-10","","0","3","","","","","","","5ee95e0e8737a0304baac70a&order=3&STUDY_ID=61caf6d05e4609be7bf98488","153","3","3","lose","go","0"
"pit-trial","202","2348432","0.0-159.0","battery-v0.2","","","-1","r","elianto","#3366ff99","-1","-1","1","+10","","0","3","","","","","","","5ee95e0e8737a0304baac70a&order=3&STUDY_ID=61caf6d05e4609be7bf98488","154","1","2","win","no-go","0"
"pit-trial","203","2354331","0.0-160.0","battery-v0.2","","","-1","m","elianto","#3366ff99","-1","-1","1","+10","","0","3","","","","","","","5ee95e0e8737a0304baac70a&order=3&STUDY_ID=61caf6d05e4609be7bf98488","155","0","2","win","no-go","0"
"pit-trial","204","2360331","0.0-161.0","battery-v0.2","","","-1","y","elianto","#3366ff99","32","-1","0","0","","0","3","","","","","","","5ee95e0e8737a0304baac70a&order=3&STUDY_ID=61caf6d05e4609be7bf98488","156","2","1","win","go","0"
"pit-trial","205","2367407","0.0-162.0","battery-v0.2","","","-1","y","elianto","#3366ff99","32","-1","0","0","","0","3","","","","","","","5ee95e0e8737a0304baac70a&order=3&STUDY_ID=61caf6d05e4609be7bf98488","157","2","1","win","go","0"
"pit-trial","206","2374429","0.0-163.0","battery-v0.2","","","-1","h","elianto","#f73b6a7A","32","-1","0","-10","","0","3","","","","","","","5ee95e0e8737a0304baac70a&order=3&STUDY_ID=61caf6d05e4609be7bf98488","158","3","3","lose","go","0"
"pit-trial","207","2381636","0.0-164.0","battery-v0.2","","","-1","r","elianto","#3366ff99","-1","-1","1","+10","","0","3","","","","","","","5ee95e0e8737a0304baac70a&order=3&STUDY_ID=61caf6d05e4609be7bf98488","159","1","2","win","no-go","0"
"pit-trial","208","2389523","0.0-165.0","battery-v0.2","","","-1","m","elianto","#3366ff99","-1","-1","1","+10","","0","3","","","","","","","5ee95e0e8737a0304baac70a&order=3&STUDY_ID=61caf6d05e4609be7bf98488","160","0","2","win","no-go","0"
"pit-trial","209","2397534","0.0-166.0","battery-v0.2","","","-1","m","elianto","#3366ff99","-1","-1","1","+10","","0","3","","","","","","","5ee95e0e8737a0304baac70a&order=3&STUDY_ID=61caf6d05e4609be7bf98488","161","0","2","win","no-go","0"
"pit-trial","210","2404331","0.0-167.0","battery-v0.2","","","-1","r","elianto","#3366ff99","-1","-1","1","0","","0","3","","","","","","","5ee95e0e8737a0304baac70a&order=3&STUDY_ID=61caf6d05e4609be7bf98488","162","1","2","win","no-go","1"
"pit-trial","211","2411435","0.0-168.0","battery-v0.2","","","-1","y","elianto","#3366ff99","32","-1","0","0","","0","3","","","","","","","5ee95e0e8737a0304baac70a&order=3&STUDY_ID=61caf6d05e4609be7bf98488","163","2","1","win","go","0"
"pit-trial","212","2418449","0.0-169.0","battery-v0.2","","","-1","h","elianto","#f73b6a7A","32","-1","0","-10","","0","3","","","","","","","5ee95e0e8737a0304baac70a&order=3&STUDY_ID=61caf6d05e4609be7bf98488","164","3","3","lose","go","0"
"pit-trial","213","2424331","0.0-170.0","battery-v0.2","","","-1","r","elianto","#3366ff99","-1","-1","1","+10","","0","3","","","","","","","5ee95e0e8737a0304baac70a&order=3&STUDY_ID=61caf6d05e4609be7bf98488","165","1","2","win","no-go","0"
"pit-trial","214","2431419","0.0-171.0","battery-v0.2","","","-1","y","elianto","#3366ff99","32","-1","0","0","","0","3","","","","","","","5ee95e0e8737a0304baac70a&order=3&STUDY_ID=61caf6d05e4609be7bf98488","166","2","1","win","go","0"
"pit-trial","215","2438425","0.0-172.0","battery-v0.2","","","-1","m","elianto","#3366ff99","-1","-1","1","+10","","0","3","","","","","","","5ee95e0e8737a0304baac70a&order=3&STUDY_ID=61caf6d05e4609be7bf98488","167","0","2","win","no-go","0"
"pit-trial","216","2444420","0.0-173.0","battery-v0.2","","","-1","h","elianto","#f73b6a7A","32","-1","0","-10","","0","3","","","","","","","5ee95e0e8737a0304baac70a&order=3&STUDY_ID=61caf6d05e4609be7bf98488","168","3","3","lose","go","0"
"pit-trial","217","2450790","0.0-174.0","battery-v0.2","","","-1","h","elianto","#f73b6a7A","32","-1","0","-10","","0","3","","","","","","","5ee95e0e8737a0304baac70a&order=3&STUDY_ID=61caf6d05e4609be7bf98488","169","3","3","lose","go","0"
"pit-trial","218","2457331","0.0-175.0","battery-v0.2","","","-1","y","elianto","#3366ff99","32","-1","0","0","","0","3","","","","","","","5ee95e0e8737a0304baac70a&order=3&STUDY_ID=61caf6d05e4609be7bf98488","170","2","1","win","go","0"
"pit-trial","219","2463330","0.0-176.0","battery-v0.2","","","-1","r","elianto","#3366ff99","-1","-1","1","+10","","0","3","","","","","","","5ee95e0e8737a0304baac70a&order=3&STUDY_ID=61caf6d05e4609be7bf98488","171","1","2","win","no-go","0"
"pit-trial","220","2469331","0.0-177.0","battery-v0.2","","","-1","m","elianto","#3366ff99","-1","-1","1","0","","0","3","","","","","","","5ee95e0e8737a0304baac70a&order=3&STUDY_ID=61caf6d05e4609be7bf98488","172","0","2","win","no-go","1"
"pit-trial","221","2475330","0.0-178.0","battery-v0.2","","","-1","z","elianto","#f73b6a7A","-1","-1","1","0","","0","3","","","","","","","5ee95e0e8737a0304baac70a&order=3&STUDY_ID=61caf6d05e4609be7bf98488","173","4","4","lose","no-go","0"
"pit-trial","222","2481331","0.0-179.0","battery-v0.2","","","-1","c","elianto","#f73b6a7A","32","-1","0","-10","","0","3","","","","","","","5ee95e0e8737a0304baac70a&order=3&STUDY_ID=61caf6d05e4609be7bf98488","174","5","3","lose","go","0"
"pit-trial","223","2487331","0.0-180.0","battery-v0.2","","","-1","m","elianto","#3366ff99","-1","-1","1","+10","","0","3","","","","","","","5ee95e0e8737a0304baac70a&order=3&STUDY_ID=61caf6d05e4609be7bf98488","175","0","2","win","no-go","0"
"pit-trial","224","2494325","0.0-181.0","battery-v0.2","","","-1","y","elianto","#3366ff99","32","-1","0","+10","","0","3","","","","","","","5ee95e0e8737a0304baac70a&order=3&STUDY_ID=61caf6d05e4609be7bf98488","176","2","1","win","go","1"
"pit-trial","225","2501681","0.0-182.0","battery-v0.2","","","-1","y","elianto","#3366ff99","32","-1","0","+10","","0","3","","","","","","","5ee95e0e8737a0304baac70a&order=3&STUDY_ID=61caf6d05e4609be7bf98488","177","2","1","win","go","1"
"pit-trial","226","2508516","0.0-183.0","battery-v0.2","","","-1","z","elianto","#f73b6a7A","-1","-1","1","0","","0","3","","","","","","","5ee95e0e8737a0304baac70a&order=3&STUDY_ID=61caf6d05e4609be7bf98488","178","4","4","lose","no-go","0"
"pit-trial","227","2516436","0.0-184.0","battery-v0.2","","","-1","m","elianto","#3366ff99","-1","-1","1","0","","0","3","","","","","","","5ee95e0e8737a0304baac70a&order=3&STUDY_ID=61caf6d05e4609be7bf98488","179","0","2","win","no-go","1"
"pit-trial","228","2523419","0.0-185.0","battery-v0.2","","","-1","c","elianto","#f73b6a7A","32","-1","0","-10","","0","3","","","","","","","5ee95e0e8737a0304baac70a&order=3&STUDY_ID=61caf6d05e4609be7bf98488","180","5","3","lose","go","0"
"pit-trial","229","2530824","0.0-186.0","battery-v0.2","","","-1","y","elianto","#3366ff99","32","-1","0","0","","0","3","","","","","","","5ee95e0e8737a0304baac70a&order=3&STUDY_ID=61caf6d05e4609be7bf98488","181","2","1","win","go","0"
"pit-trial","230","2537331","0.0-187.0","battery-v0.2","","","-1","b","elianto","#3366ff99","-1","-1","1","+10","","0","3","","","","","","","5ee95e0e8737a0304baac70a&order=3&STUDY_ID=61caf6d05e4609be7bf98488","182","6","2","win","no-go","0"
"pit-trial","231","2544434","0.0-188.0","battery-v0.2","","","-1","c","elianto","#f73b6a7A","32","-1","0","0","","0","3","","","","","","","5ee95e0e8737a0304baac70a&order=3&STUDY_ID=61caf6d05e4609be7bf98488","183","5","3","lose","go","1"
"pit-trial","232","2550804","0.0-189.0","battery-v0.2","","","-1","z","elianto","#f73b6a7A","-1","-1","1","-10","","0","3","","","","","","","5ee95e0e8737a0304baac70a&order=3&STUDY_ID=61caf6d05e4609be7bf98488","184","4","4","lose","no-go","1"
"pit-trial","233","2603342","0.0-190.0","battery-v0.2","","","-1","b","elianto","#3366ff99","-1","-1","1","+10","","0","3","","","","","","","5ee95e0e8737a0304baac70a&order=3&STUDY_ID=61caf6d05e4609be7bf98488","185","6","2","win","no-go","0"
"pit-trial","234","2723341","0.0-191.0","battery-v0.2","","","-1","z","elianto","#f73b6a7A","-1","-1","1","0","","0","3","","","","","","","5ee95e0e8737a0304baac70a&order=3&STUDY_ID=61caf6d05e4609be7bf98488","186","4","4","lose","no-go","0"
"pit-trial","235","2843335","0.0-192.0","battery-v0.2","","","-1","c","elianto","#f73b6a7A","32","-1","0","-10","","0","3","","","","","","","5ee95e0e8737a0304baac70a&order=3&STUDY_ID=61caf6d05e4609be7bf98488","187","5","3","lose","go","0"
"pit-trial","236","2981416","0.0-193.0","battery-v0.2","","","-1","y","elianto","#3366ff99","32","-1","0","0","","0","3","","","","","","","5ee95e0e8737a0304baac70a&order=3&STUDY_ID=61caf6d05e4609be7bf98488","188","2","1","win","go","0"
"pit-trial","237","3102570","0.0-194.0","battery-v0.2","","","-1","t","elianto","#f73b6a7A","-1","-1","1","0","","0","3","","","","","","","5ee95e0e8737a0304baac70a&order=3&STUDY_ID=61caf6d05e4609be7bf98488","189","7","4","lose","no-go","0"
"pit-trial","238","3245096","0.0-195.0","battery-v0.2","","","-1","z","elianto","#f73b6a7A","-1","-1","1","0","","0","3","","","","","","","5ee95e0e8737a0304baac70a&order=3&STUDY_ID=61caf6d05e4609be7bf98488","190","4","4","lose","no-go","0"
"pit-trial","239","3249955","0.0-196.0","battery-v0.2","","","-1","c","elianto","#f73b6a7A","32","-1","0","0","3337.2000000178814","1","3","","","","","","","5ee95e0e8737a0304baac70a&order=3&STUDY_ID=61caf6d05e4609be7bf98488","191","5","3","lose","go","1"
"pit-trial","240","3254815","0.0-197.0","battery-v0.2","","","-1","b","elianto","#3366ff99","-1","-1","1","0","","0","3","","","","","","","5ee95e0e8737a0304baac70a&order=3&STUDY_ID=61caf6d05e4609be7bf98488","192","6","2","win","no-go","1"
"pit-trial","241","3262415","0.0-198.0","battery-v0.2","","","-1","z","elianto","#f73b6a7A","-1","-1","1","0","","0","3","","","","","","","5ee95e0e8737a0304baac70a&order=3&STUDY_ID=61caf6d05e4609be7bf98488","193","4","4","lose","no-go","0"
"pit-trial","242","3269200","0.0-199.0","battery-v0.2","","","-1","t","elianto","#f73b6a7A","-1","-1","1","0","","0","3","","","","","","","5ee95e0e8737a0304baac70a&order=3&STUDY_ID=61caf6d05e4609be7bf98488","194","7","4","lose","no-go","0"
"pit-trial","243","3276134","0.0-200.0","battery-v0.2","","","-1","c","elianto","#f73b6a7A","32","-1","0","-10","","0","3","","","","","","","5ee95e0e8737a0304baac70a&order=3&STUDY_ID=61caf6d05e4609be7bf98488","195","5","3","lose","go","0"
"pit-trial","244","3283153","0.0-201.0","battery-v0.2","","","-1","b","elianto","#3366ff99","-1","-1","1","+10","","0","3","","","","","","","5ee95e0e8737a0304baac70a&order=3&STUDY_ID=61caf6d05e4609be7bf98488","196","6","2","win","no-go","0"
"pit-trial","245","3290147","0.0-202.0","battery-v0.2","","","-1","z","elianto","#f73b6a7A","-1","-1","1","0","","0","3","","","","","","","5ee95e0e8737a0304baac70a&order=3&STUDY_ID=61caf6d05e4609be7bf98488","197","4","4","lose","no-go","0"
"pit-trial","246","3297147","0.0-203.0","battery-v0.2","","","-1","t","elianto","#f73b6a7A","-1","-1","1","0","","0","3","","","","","","","5ee95e0e8737a0304baac70a&order=3&STUDY_ID=61caf6d05e4609be7bf98488","198","7","4","lose","no-go","0"
"pit-trial","247","3304084","0.0-204.0","battery-v0.2","","","-1","b","elianto","#3366ff99","-1","-1","1","0","","0","3","","","","","","","5ee95e0e8737a0304baac70a&order=3&STUDY_ID=61caf6d05e4609be7bf98488","199","6","2","win","no-go","1"
"pit-trial","248","3311549","0.0-205.0","battery-v0.2","","","-1","c","elianto","#f73b6a7A","32","-1","0","-10","","0","3","","","","","","","5ee95e0e8737a0304baac70a&order=3&STUDY_ID=61caf6d05e4609be7bf98488","200","5","3","lose","go","0"
"pit-trial","249","3319204","0.0-206.0","battery-v0.2","","","-1","b","elianto","#3366ff99","-1","-1","1","0","","0","3","","","","","","","5ee95e0e8737a0304baac70a&order=3&STUDY_ID=61caf6d05e4609be7bf98488","201","6","2","win","no-go","1"
"pit-trial","250","3327533","0.0-207.0","battery-v0.2","","","-1","c","elianto","#f73b6a7A","32","-1","0","-10","","0","3","","","","","","","5ee95e0e8737a0304baac70a&order=3&STUDY_ID=61caf6d05e4609be7bf98488","202","5","3","lose","go","0"
"pit-trial","251","3334054","0.0-208.0","battery-v0.2","","","-1","t","elianto","#f73b6a7A","-1","-1","1","0","","0","3","","","","","","","5ee95e0e8737a0304baac70a&order=3&STUDY_ID=61caf6d05e4609be7bf98488","203","7","4","lose","no-go","0"
"pit-trial","252","3340054","0.0-209.0","battery-v0.2","","","-1","z","elianto","#f73b6a7A","-1","-1","1","0","","0","3","","","","","","","5ee95e0e8737a0304baac70a&order=3&STUDY_ID=61caf6d05e4609be7bf98488","204","4","4","lose","no-go","0"
"pit-trial","253","3346054","0.0-210.0","battery-v0.2","","","-1","z","elianto","#f73b6a7A","-1","-1","1","-10","","0","3","","","","","","","5ee95e0e8737a0304baac70a&order=3&STUDY_ID=61caf6d05e4609be7bf98488","205","4","4","lose","no-go","1"
"pit-trial","254","3352055","0.0-211.0","battery-v0.2","","","-1","b","elianto","#3366ff99","-1","-1","1","+10","","0","3","","","","","","","5ee95e0e8737a0304baac70a&order=3&STUDY_ID=61caf6d05e4609be7bf98488","206","6","2","win","no-go","0"
"pit-trial","255","3358054","0.0-212.0","battery-v0.2","","","-1","t","elianto","#f73b6a7A","-1","-1","1","0","","0","3","","","","","","","5ee95e0e8737a0304baac70a&order=3&STUDY_ID=61caf6d05e4609be7bf98488","207","7","4","lose","no-go","0"
"pit-trial","256","3365548","0.0-213.0","battery-v0.2","","","-1","c","elianto","#f73b6a7A","32","-1","0","-10","","0","3","","","","","","","5ee95e0e8737a0304baac70a&order=3&STUDY_ID=61caf6d05e4609be7bf98488","208","5","3","lose","go","0"
"pit-trial","257","3372068","0.0-214.0","battery-v0.2","","","-1","t","elianto","#f73b6a7A","-1","-1","1","0","","0","3","","","","","","","5ee95e0e8737a0304baac70a&order=3&STUDY_ID=61caf6d05e4609be7bf98488","209","7","4","lose","no-go","0"
"pit-trial","258","3379161","0.0-215.0","battery-v0.2","","","-1","b","elianto","#3366ff99","-1","-1","1","+10","","0","3","","","","","","","5ee95e0e8737a0304baac70a&order=3&STUDY_ID=61caf6d05e4609be7bf98488","210","6","2","win","no-go","0"
"pit-trial","259","3385054","0.0-216.0","battery-v0.2","","","-1","c","elianto","#f73b6a7A","32","-1","0","-10","","0","3","","","","","","","5ee95e0e8737a0304baac70a&order=3&STUDY_ID=61caf6d05e4609be7bf98488","211","5","3","lose","go","0"
"pit-trial","260","3392166","0.0-217.0","battery-v0.2","","","-1","z","elianto","#f73b6a7A","-1","-1","1","0","","0","3","","","","","","","5ee95e0e8737a0304baac70a&order=3&STUDY_ID=61caf6d05e4609be7bf98488","212","4","4","lose","no-go","0"
"pit-trial","261","3399128","0.0-218.0","battery-v0.2","","","-1","x","elianto","#f73b6a7A","-1","-1","1","0","","0","3","","","","","","","5ee95e0e8737a0304baac70a&order=3&STUDY_ID=61caf6d05e4609be7bf98488","213","8","4","lose","no-go","0"
"pit-trial","262","3406080","0.0-219.0","battery-v0.2","","","-1","c","elianto","#f73b6a7A","32","-1","0","-10","","0","3","","","","","","","5ee95e0e8737a0304baac70a&order=3&STUDY_ID=61caf6d05e4609be7bf98488","214","5","3","lose","go","0"
"pit-trial","263","3412053","0.0-220.0","battery-v0.2","","","-1","t","elianto","#f73b6a7A","-1","-1","1","0","","0","3","","","","","","","5ee95e0e8737a0304baac70a&order=3&STUDY_ID=61caf6d05e4609be7bf98488","215","7","4","lose","no-go","0"
"pit-trial","264","3419162","0.0-221.0","battery-v0.2","","","-1","b","elianto","#3366ff99","-1","-1","1","+10","","0","3","","","","","","","5ee95e0e8737a0304baac70a&order=3&STUDY_ID=61caf6d05e4609be7bf98488","216","6","2","win","no-go","0"
"pit-trial","265","3425545","0.0-222.0","battery-v0.2","","","-1","t","elianto","#f73b6a7A","-1","-1","1","0","","0","3","","","","","","","5ee95e0e8737a0304baac70a&order=3&STUDY_ID=61caf6d05e4609be7bf98488","217","7","4","lose","no-go","0"
"pit-trial","266","3432056","0.0-223.0","battery-v0.2","","","-1","b","elianto","#3366ff99","-1","-1","1","+10","","0","3","","","","","","","5ee95e0e8737a0304baac70a&order=3&STUDY_ID=61caf6d05e4609be7bf98488","218","6","2","win","no-go","0"
"pit-trial","267","3439134","0.0-224.0","battery-v0.2","","","-1","c","elianto","#f73b6a7A","32","-1","0","-10","","0","3","","","","","","","5ee95e0e8737a0304baac70a&order=3&STUDY_ID=61caf6d05e4609be7bf98488","219","5","3","lose","go","0"
"pit-trial","268","3446172","0.0-225.0","battery-v0.2","","","-1","x","elianto","#f73b6a7A","-1","-1","1","0","","0","3","","","","","","","5ee95e0e8737a0304baac70a&order=3&STUDY_ID=61caf6d05e4609be7bf98488","220","8","4","lose","no-go","0"
"pit-trial","269","3452054","0.0-226.0","battery-v0.2","","","-1","f","elianto","#3366ff99","32","-1","0","0","","0","3","","","","","","","5ee95e0e8737a0304baac70a&order=3&STUDY_ID=61caf6d05e4609be7bf98488","221","9","1","win","go","0"
"pit-trial","270","3459550","0.0-227.0","battery-v0.2","","","-1","n","elianto","#f73b6a7A","32","-1","0","-10","","0","3","","","","","","","5ee95e0e8737a0304baac70a&order=3&STUDY_ID=61caf6d05e4609be7bf98488","222","10","3","lose","go","0"
"pit-trial","271","3466054","0.0-228.0","battery-v0.2","","","-1","b","elianto","#3366ff99","-1","-1","1","0","","0","3","","","","","","","5ee95e0e8737a0304baac70a&order=3&STUDY_ID=61caf6d05e4609be7bf98488","223","6","2","win","no-go","1"
"pit-trial","272","3473160","0.0-229.0","battery-v0.2","","","-1","x","elianto","#f73b6a7A","-1","-1","1","0","","0","3","","","","","","","5ee95e0e8737a0304baac70a&order=3&STUDY_ID=61caf6d05e4609be7bf98488","224","8","4","lose","no-go","0"
"pit-trial","273","3480146","0.0-230.0","battery-v0.2","","","-1","n","elianto","#f73b6a7A","32","-1","0","-10","","0","3","","","","","","","5ee95e0e8737a0304baac70a&order=3&STUDY_ID=61caf6d05e4609be7bf98488","225","10","3","lose","go","0"
"pit-trial","274","3486583","0.0-231.0","battery-v0.2","","","-1","x","elianto","#f73b6a7A","-1","-1","1","0","","0","3","","","","","","","5ee95e0e8737a0304baac70a&order=3&STUDY_ID=61caf6d05e4609be7bf98488","226","8","4","lose","no-go","0"
"pit-trial","275","3494054","0.0-232.0","battery-v0.2","","","-1","b","elianto","#3366ff99","-1","-1","1","+10","","0","3","","","","","","","5ee95e0e8737a0304baac70a&order=3&STUDY_ID=61caf6d05e4609be7bf98488","227","6","2","win","no-go","0"
"pit-trial","276","3500053","0.0-233.0","battery-v0.2","","","-1","f","elianto","#3366ff99","32","-1","0","0","","0","3","","","","","","","5ee95e0e8737a0304baac70a&order=3&STUDY_ID=61caf6d05e4609be7bf98488","228","9","1","win","go","0"
"pit-trial","277","3506053","0.0-234.0","battery-v0.2","","","-1","f","elianto","#3366ff99","32","-1","0","0","","0","3","","","","","","","5ee95e0e8737a0304baac70a&order=3&STUDY_ID=61caf6d05e4609be7bf98488","229","9","1","win","go","0"
"pit-trial","278","3512053","0.0-235.0","battery-v0.2","","","-1","n","elianto","#f73b6a7A","32","-1","0","-10","","0","3","","","","","","","5ee95e0e8737a0304baac70a&order=3&STUDY_ID=61caf6d05e4609be7bf98488","230","10","3","lose","go","0"
"pit-trial","279","3519165","0.0-236.0","battery-v0.2","","","-1","x","elianto","#f73b6a7A","-1","-1","1","0","","0","3","","","","","","","5ee95e0e8737a0304baac70a&order=3&STUDY_ID=61caf6d05e4609be7bf98488","231","8","4","lose","no-go","0"
"pit-trial","280","3526134","0.0-237.0","battery-v0.2","","","-1","q","elianto","#3366ff99","32","-1","0","0","","0","3","","","","","","","5ee95e0e8737a0304baac70a&order=3&STUDY_ID=61caf6d05e4609be7bf98488","232","11","1","win","go","0"
"pit-trial","281","3533142","0.0-238.0","battery-v0.2","","","-1","x","elianto","#f73b6a7A","-1","-1","1","0","","0","3","","","","","","","5ee95e0e8737a0304baac70a&order=3&STUDY_ID=61caf6d05e4609be7bf98488","233","8","4","lose","no-go","0"
"pit-trial","282","3540132","0.0-239.0","battery-v0.2","","","-1","n","elianto","#f73b6a7A","32","-1","0","-10","","0","3","","","","","","","5ee95e0e8737a0304baac70a&order=3&STUDY_ID=61caf6d05e4609be7bf98488","234","10","3","lose","go","0"
"pit-trial","283","3547136","0.0-240.0","battery-v0.2","","","-1","f","elianto","#3366ff99","32","-1","0","0","","0","3","","","","","","","5ee95e0e8737a0304baac70a&order=3&STUDY_ID=61caf6d05e4609be7bf98488","235","9","1","win","go","0"
"pit-trial","284","3553279","0.0-241.0","battery-v0.2","","","-1","q","elianto","#3366ff99","32","-1","0","0","","0","3","","","","","","","5ee95e0e8737a0304baac70a&order=3&STUDY_ID=61caf6d05e4609be7bf98488","236","11","1","win","go","0"
"pit-trial","285","3619806","0.0-242.0","battery-v0.2","","","-1","n","elianto","#f73b6a7A","32","-1","0","-10","","0","3","","","","","","","5ee95e0e8737a0304baac70a&order=3&STUDY_ID=61caf6d05e4609be7bf98488","237","10","3","lose","go","0"
"pit-trial","286","3624004","0.0-243.0","battery-v0.2","","","1344.300000011921","q","elianto","#3366ff99","32","32","1","+10","2194.9000000059605","1","3","","","","","","","5ee95e0e8737a0304baac70a&order=3&STUDY_ID=61caf6d05e4609be7bf98488","238","11","1","win","go","0"
"pit-trial","287","3628865","0.0-244.0","battery-v0.2","","","-1","f","elianto","#3366ff99","32","-1","0","0","","0","3","","","","","","","5ee95e0e8737a0304baac70a&order=3&STUDY_ID=61caf6d05e4609be7bf98488","239","9","1","win","go","0"
"pit-trial","288","3633726","0.0-245.0","battery-v0.2","","","-1","x","elianto","#f73b6a7A","-1","-1","1","0","","0","3","","","","","","","5ee95e0e8737a0304baac70a&order=3&STUDY_ID=61caf6d05e4609be7bf98488","240","8","4","lose","no-go","0"
"pit-trial","289","3638581","0.0-246.0","battery-v0.2","","","-1","f","elianto","#3366ff99","32","-1","0","0","","0","3","","","","","","","5ee95e0e8737a0304baac70a&order=3&STUDY_ID=61caf6d05e4609be7bf98488","241","9","1","win","go","0"
"pit-trial","290","3643438","0.0-247.0","battery-v0.2","","","-1","q","elianto","#3366ff99","32","-1","0","+10","","0","3","","","","","","","5ee95e0e8737a0304baac70a&order=3&STUDY_ID=61caf6d05e4609be7bf98488","242","11","1","win","go","1"
"pit-trial","291","3648296","0.0-248.0","battery-v0.2","","","-1","n","elianto","#f73b6a7A","32","-1","0","0","","0","3","","","","","","","5ee95e0e8737a0304baac70a&order=3&STUDY_ID=61caf6d05e4609be7bf98488","243","10","3","lose","go","1"
"pit-trial","292","3653149","0.0-249.0","battery-v0.2","","","-1","x","elianto","#f73b6a7A","-1","-1","1","0","","0","3","","","","","","","5ee95e0e8737a0304baac70a&order=3&STUDY_ID=61caf6d05e4609be7bf98488","244","8","4","lose","no-go","0"
"pit-trial","293","3660465","0.0-250.0","battery-v0.2","","","-1","n","elianto","#f73b6a7A","32","-1","0","-10","","0","3","","","","","","","5ee95e0e8737a0304baac70a&order=3&STUDY_ID=61caf6d05e4609be7bf98488","245","10","3","lose","go","0"
"pit-trial","294","3667051","0.0-251.0","battery-v0.2","","","-1","q","elianto","#3366ff99","32","-1","0","0","","0","3","","","","","","","5ee95e0e8737a0304baac70a&order=3&STUDY_ID=61caf6d05e4609be7bf98488","246","11","1","win","go","0"
"pit-trial","295","3674147","0.0-252.0","battery-v0.2","","","-1","f","elianto","#3366ff99","32","-1","0","0","","0","3","","","","","","","5ee95e0e8737a0304baac70a&order=3&STUDY_ID=61caf6d05e4609be7bf98488","247","9","1","win","go","0"
"pit-trial","296","3681136","0.0-253.0","battery-v0.2","","","-1","x","elianto","#f73b6a7A","-1","-1","1","0","","0","3","","","","","","","5ee95e0e8737a0304baac70a&order=3&STUDY_ID=61caf6d05e4609be7bf98488","248","8","4","lose","no-go","0"
"pit-trial","297","3688141","0.0-254.0","battery-v0.2","","","-1","f","elianto","#3366ff99","32","-1","0","+10","","0","3","","","","","","","5ee95e0e8737a0304baac70a&order=3&STUDY_ID=61caf6d05e4609be7bf98488","249","9","1","win","go","1"
"pit-trial","298","3694051","0.0-255.0","battery-v0.2","","","-1","x","elianto","#f73b6a7A","-1","-1","1","0","","0","3","","","","","","","5ee95e0e8737a0304baac70a&order=3&STUDY_ID=61caf6d05e4609be7bf98488","250","8","4","lose","no-go","0"
"pit-trial","299","3701143","0.0-256.0","battery-v0.2","","","-1","n","elianto","#f73b6a7A","32","-1","0","-10","","0","3","","","","","","","5ee95e0e8737a0304baac70a&order=3&STUDY_ID=61caf6d05e4609be7bf98488","251","10","3","lose","go","0"
"pit-trial","300","3708137","0.0-257.0","battery-v0.2","","","-1","q","elianto","#3366ff99","32","-1","0","0","","0","3","","","","","","","5ee95e0e8737a0304baac70a&order=3&STUDY_ID=61caf6d05e4609be7bf98488","252","11","1","win","go","0"
"pit-trial","301","3715134","0.0-258.0","battery-v0.2","","","-1","q","elianto","#3366ff99","32","-1","0","0","","0","3","","","","","","","5ee95e0e8737a0304baac70a&order=3&STUDY_ID=61caf6d05e4609be7bf98488","253","11","1","win","go","0"
"pit-trial","302","3722138","0.0-259.0","battery-v0.2","","","-1","f","elianto","#3366ff99","32","-1","0","+10","","0","3","","","","","","","5ee95e0e8737a0304baac70a&order=3&STUDY_ID=61caf6d05e4609be7bf98488","254","9","1","win","go","1"
"pit-trial","303","3729124","0.0-260.0","battery-v0.2","","","-1","x","elianto","#f73b6a7A","-1","-1","1","0","","0","3","","","","","","","5ee95e0e8737a0304baac70a&order=3&STUDY_ID=61caf6d05e4609be7bf98488","255","8","4","lose","no-go","0"
"pit-trial","304","3736134","0.0-261.0","battery-v0.2","","","-1","n","elianto","#f73b6a7A","32","-1","0","-10","","0","3","","","","","","","5ee95e0e8737a0304baac70a&order=3&STUDY_ID=61caf6d05e4609be7bf98488","256","10","3","lose","go","0"
"pit-trial","305","3743140","0.0-262.0","battery-v0.2","","","-1","x","elianto","#f73b6a7A","-1","-1","1","0","","0","3","","","","","","","5ee95e0e8737a0304baac70a&order=3&STUDY_ID=61caf6d05e4609be7bf98488","257","8","4","lose","no-go","0"
"pit-trial","306","3750124","0.0-263.0","battery-v0.2","","","-1","n","elianto","#f73b6a7A","32","-1","0","-10","","0","3","","","","","","","5ee95e0e8737a0304baac70a&order=3&STUDY_ID=61caf6d05e4609be7bf98488","258","10","3","lose","go","0"
"pit-trial","307","3757132","0.0-264.0","battery-v0.2","","","-1","f","elianto","#3366ff99","32","-1","0","0","","0","3","","","","","","","5ee95e0e8737a0304baac70a&order=3&STUDY_ID=61caf6d05e4609be7bf98488","259","9","1","win","go","0"
"pit-trial","308","3764104","0.0-265.0","battery-v0.2","","","-1","q","elianto","#3366ff99","32","-1","0","0","","0","3","","","","","","","5ee95e0e8737a0304baac70a&order=3&STUDY_ID=61caf6d05e4609be7bf98488","260","11","1","win","go","0"
