"trial_type","trial_index","time_elapsed","internal_node_id","task_version","view_history","rt","rune","rune_set","hex","correct","choice","accuracy","outcome","keys","total_keys","block","practice","value","responses","num_errors","sub","trial","stimulus","robot","valence","action","sham"
"pavlovia","0","158","0.0-0.0","battery-v0.2","","","","","","","","","","","","","","","","","","","","","","",""
"pit-instructions","1","59364","0.0-1.0-0.0","battery-v0.2","[{""page_index"":0,""viewing_time"":2635.509999934584},{""page_index"":1,""viewing_time"":1911.3700001034886},{""page_index"":2,""viewing_time"":1976.4950000680983},{""page_index"":1,""viewing_time"":3702.9699999839067},{""page_index"":2,""viewing_time"":5264.584999997169},{""page_index"":3,""viewing_time"":5088.084999937564},{""page_index"":4,""viewing_time"":6351.650000084192},{""page_index"":5,""viewing_time"":4960.569999879226},{""page_index"":6,""viewing_time"":4488.640000112355},{""page_index"":7,""viewing_time"":10598.989999853075},{""page_index"":8,""viewing_time"":8048.004999989644},{""page_index"":9,""viewing_time"":4175.915000028908}]","59203.54499993846","","","","","","","","","","","","","","","","","","","","",""
"pit-trial","2","63368","0.0-1.0-1.0-0.0","battery-v0.2","","-1","1","elianto","#3366ff99","32","-1","0","+1","","0","0","1","","","","","","","","","",""
"pit-trial","3","67372","0.0-1.0-1.1-0.1","battery-v0.2","","-1","1","elianto","#3366ff99","32","-1","0","+1","","0","0","1","","","","","","","","","",""
"pit-trial","4","71377","0.0-1.0-1.2-0.2","battery-v0.2","","-1","1","elianto","#3366ff99","32","-1","0","+1","","0","0","1","","","","","","","","","",""
"pit-trial","5","74340","0.0-1.0-1.3-0.3","battery-v0.2","","259.52499988488853","1","elianto","#3366ff99","32","32","1","+10","1760.4799999389797","1","0","1","","","","","","","","","",""
"pit-trial","6","77223","0.0-1.0-1.4-0.4","battery-v0.2","","175.69499998353422","1","elianto","#3366ff99","32","32","1","+10","1677.8100000228733","1","0","1","","","","","","","","","",""
"pit-trial","7","80427","0.0-1.0-1.5-0.5","battery-v0.2","","499.9250001274049","1","elianto","#3366ff99","32","32","1","+10","2001.054999884218","1","0","1","","","","","","","","","",""
"call-function","8","80428","0.0-1.0-2.0","battery-v0.2","","","","","","","","","","","","","","","","","","","","","","",""
"pit-instructions","9","88932","0.0-1.0-3.0","battery-v0.2","[{""page_index"":0,""viewing_time"":6526.720000198111},{""page_index"":1,""viewing_time"":1976.5749999787658}]","8503.580000018701","","","","","","","","","","","","","","","","","","","","",""
"pit-trial","10","92934","0.0-1.0-4.0-0.0","battery-v0.2","","-1","2","elianto","#3366ff99","-1","-1","1","+10","3302.5350000243634","1","0","2","","","","","","","","","",""
"pit-trial","11","96938","0.0-1.0-4.1-0.1","battery-v0.2","","-1","2","elianto","#3366ff99","-1","-1","1","+10","","0","0","2","","","","","","","","","",""
"pit-trial","12","100943","0.0-1.0-4.2-0.2","battery-v0.2","","-1","2","elianto","#3366ff99","-1","-1","1","+10","","0","0","2","","","","","","","","","",""
"pit-trial","13","104947","0.0-1.0-4.3-0.3","battery-v0.2","","-1","2","elianto","#3366ff99","-1","-1","1","+10","","0","0","2","","","","","","","","","",""
"call-function","14","104948","0.0-1.0-5.0","battery-v0.2","","","","","","","","","","","","","","","","","","","","","","",""
"pit-instructions","15","119205","0.0-1.0-6.0","battery-v0.2","[{""page_index"":0,""viewing_time"":9742.959999945015},{""page_index"":1,""viewing_time"":4512.5349999871105}]","14256.210000021383","","","","","","","","","","","","","","","","","","","","",""
"pit-trial","16","123210","0.0-1.0-7.0-0.0","battery-v0.2","","-1","3","elianto","#f73b6a7A","-1","-1","1","-1","2837.52500009723","1","0","3","","","","","","","","","",""
"pit-trial","17","126862","0.0-1.0-7.1-0.1","battery-v0.2","","949.7950000222772","3","elianto","#f73b6a7A","-1","32","0","-10","2450.169999850914","1","0","3","","","","","","","","","",""
"pit-trial","18","130866","0.0-1.0-7.2-0.2","battery-v0.2","","-1","3","elianto","#f73b6a7A","-1","-1","1","-1","","0","0","3","","","","","","","","","",""
"pit-trial","19","134869","0.0-1.0-7.3-0.3","battery-v0.2","","-1","3","elianto","#f73b6a7A","-1","-1","1","-1","","0","0","3","","","","","","","","","",""
"pit-trial","20","138873","0.0-1.0-7.4-0.4","battery-v0.2","","-1","3","elianto","#f73b6a7A","-1","-1","1","-1","","0","0","3","","","","","","","","","",""
"call-function","21","138874","0.0-1.0-8.0","battery-v0.2","","","","","","","","","","","","","","","","","","","","","","",""
"pit-instructions","22","143956","0.0-1.0-9.0","battery-v0.2","[{""page_index"":0,""viewing_time"":3961.2150001339614},{""page_index"":1,""viewing_time"":1119.874999858439}]","5081.4450001344085","","","","","","","","","","","","","","","","","","","","",""
"pit-trial","23","147165","0.0-1.0-10.0-0.0","battery-v0.2","","505.8899999130517","4","elianto","#f73b6a7A","32","32","1","-1","2006.969999987632","1","0","4","","","","","","","","","",""
"pit-trial","24","150254","0.0-1.0-10.1-0.1","battery-v0.2","","384.18999989517033","4","elianto","#f73b6a7A","32","32","1","-1","1886.2250000238419","1","0","4","","","","","","","","","",""
"pit-trial","25","153117","0.0-1.0-10.2-0.2","battery-v0.2","","160.25499999523163","4","elianto","#f73b6a7A","32","32","1","-1","1660.5950000230223","1","0","4","","","","","","","","","",""
"pit-trial","26","156013","0.0-1.0-10.3-0.3","battery-v0.2","","193.88499995693564","4","elianto","#f73b6a7A","32","32","1","-1","1694.310000166297","1","0","4","","","","","","","","","",""
"call-function","27","156014","0.0-1.0-11.0","battery-v0.2","","","","","","","","","","","","","","","","","","","","","","",""
"pit-instructions","28","185107","0.0-1.0-12.0","battery-v0.2","[{""page_index"":0,""viewing_time"":7781.995000084862},{""page_index"":1,""viewing_time"":6975.014999974519},{""page_index"":2,""viewing_time"":5240.715000079945},{""page_index"":3,""viewing_time"":2951.064999913797},{""page_index"":4,""viewing_time"":4104.874999960884},{""page_index"":5,""viewing_time"":2039.02000002563}]","29093.00999995321","","","","","","","","","","","","","","","","","","","","",""
"pit-comprehension","29","206413","0.0-1.0-13.0","battery-v0.2","","21303.085000021383","","","","","","","","","","","","","Press SPACE,+10,-1,True,True","0","","","","","","",""
"pit-instructions","30","213868","0.0-2.0","battery-v0.2","[{""page_index"":0,""viewing_time"":3060.469999909401},{""page_index"":1,""viewing_time"":4391.865000128746}]","7452.879999997094","","","","","","","","","","","","","","","","","","","","",""
"pit-trial","31","217873","0.0-3.0","battery-v0.2","","-1","W","bacs2","#3366ff99","-1","-1","1","+10","","0","1","","","","","805","1","1","2","win","no-go","0"
"pit-trial","32","221198","0.0-4.0","battery-v0.2","","621.0350000765175","X","bacs2","#3366ff99","32","32","1","+1","2121.955000096932","1","1","","","","","805","2","2","1","win","go","1"
"pit-trial","33","225202","0.0-5.0","battery-v0.2","","-1","Z","bacs2","#f73b6a7A","32","-1","0","-10","","0","1","","","","","805","3","3","3","lose","go","0"
"pit-trial","34","228237","0.0-6.0","battery-v0.2","","331.62000006996095","J","bacs2","#3366ff99","-1","32","0","+1","1832.5800001621246","1","1","","","","","805","4","0","2","win","no-go","0"
"pit-trial","35","231469","0.0-7.0","battery-v0.2","","529.1399999987334","J","bacs2","#3366ff99","-1","32","0","+1","2029.51499982737","1","1","","","","","805","5","0","2","win","no-go","0"
"pit-trial","36","235085","0.0-8.0","battery-v0.2","","912.19999990426","W","bacs2","#3366ff99","-1","32","0","+1","2412.925000069663","1","1","","","","","805","6","1","2","win","no-go","0"
"pit-trial","37","239089","0.0-9.0","battery-v0.2","","-1","X","bacs2","#3366ff99","32","-1","0","+1","","0","1","","","","","805","7","2","1","win","go","0"
"pit-trial","38","242013","0.0-10.0","battery-v0.2","","220.74000001884997","Z","bacs2","#f73b6a7A","32","32","1","-1","1721.5350000187755","1","1","","","","","805","8","3","3","lose","go","0"
"pit-trial","39","245086","0.0-11.0","battery-v0.2","","368.4849999845028","W","bacs2","#3366ff99","-1","32","0","+1","1870.230000000447","1","1","","","","","805","9","1","2","win","no-go","0"
"pit-trial","40","249089","0.0-12.0","battery-v0.2","","-1","J","bacs2","#3366ff99","-1","-1","1","+10","","0","1","","","","","805","10","0","2","win","no-go","0"
"pit-trial","41","252349","0.0-13.0","battery-v0.2","","557.1900000795722","X","bacs2","#3366ff99","32","32","1","+10","2058.2600000780076","1","1","","","","","805","11","2","1","win","go","0"
"pit-trial","42","256354","0.0-14.0","battery-v0.2","","-1","Z","bacs2","#f73b6a7A","32","-1","0","-10","","0","1","","","","","805","12","3","3","lose","go","0"
"pit-trial","43","260356","0.0-15.0","battery-v0.2","","-1","X","bacs2","#3366ff99","32","-1","0","+1","2809.289999771863","1","1","","","","","805","13","2","1","win","go","0"
"pit-trial","44","263744","0.0-16.0","battery-v0.2","","682.5049999170005","W","bacs2","#3366ff99","-1","32","0","+1","2182.794999796897","1","1","","","","","805","14","1","2","win","no-go","0"
"pit-trial","45","267748","0.0-17.0","battery-v0.2","","-1","J","bacs2","#3366ff99","-1","-1","1","+10","","0","1","","","","","805","15","0","2","win","no-go","0"
"pit-trial","46","271104","0.0-18.0","battery-v0.2","","652.18500001356","Z","bacs2","#f73b6a7A","32","32","1","-1","2152.5200000032783","1","1","","","","","805","16","3","3","lose","go","0"
"pit-trial","47","274605","0.0-19.0","battery-v0.2","","798.6050001345575","Z","bacs2","#f73b6a7A","32","32","1","-1","2298.739999998361","1","1","","","","","805","17","3","3","lose","go","0"
"pit-trial","48","278109","0.0-20.0","battery-v0.2","","801.2300000991672","J","bacs2","#3366ff99","-1","32","0","+1","2302.1799998823553","1","1","","","","","805","18","0","2","win","no-go","0"
"pit-trial","49","282112","0.0-21.0","battery-v0.2","","-1","W","bacs2","#3366ff99","-1","-1","1","+10","","0","1","","","","","805","19","1","2","win","no-go","0"
"pit-trial","50","286115","0.0-22.0","battery-v0.2","","-1","X","bacs2","#3366ff99","32","-1","0","+1","","0","1","","","","","805","20","2","1","win","go","0"
"pit-trial","51","289215","0.0-23.0","battery-v0.2","","395.92499984428287","W","bacs2","#3366ff99","-1","32","0","+10","1897.2849999554455","1","1","","","","","805","21","1","2","win","no-go","1"
"pit-trial","52","292526","0.0-24.0","battery-v0.2","","608.269999967888","X","bacs2","#3366ff99","32","32","1","+10","2108.5450001992285","1","1","","","","","805","22","2","1","win","go","0"
"pit-trial","53","296529","0.0-25.0","battery-v0.2","","-1","Z","bacs2","#f73b6a7A","32","-1","0","-10","","0","1","","","","","805","23","3","3","lose","go","0"
"pit-trial","54","299774","0.0-26.0","battery-v0.2","","541.2550000473857","J","bacs2","#3366ff99","-1","32","0","+1","2041.979999979958","1","1","","","","","805","24","0","2","win","no-go","0"
"pit-trial","55","302941","0.0-27.0","battery-v0.2","","464.6399999037385","J","bacs2","#3366ff99","-1","32","0","+1","1964.729999890551","1","1","","","","","805","25","0","2","win","no-go","0"
"pit-trial","56","305661","0.0-28.0","battery-v0.2","","16.22499991208315","Z","bacs2","#f73b6a7A","32","32","1","-1","1517.42499996908","1","1","","","","","805","26","3","3","lose","go","0"
"pit-trial","57","309132","0.0-29.0","battery-v0.2","","769.5049999747425","W","bacs2","#3366ff99","-1","32","0","+1","2269.6849999483675","1","1","","","","","805","27","1","2","win","no-go","0"
"pit-trial","58","312413","0.0-30.0","battery-v0.2","","577.0550000015646","X","bacs2","#3366ff99","32","32","1","+10","2078.935000114143","1","1","","","","","805","28","2","1","win","go","0"
"pit-trial","59","316416","0.0-31.0","battery-v0.2","","-1","J","bacs2","#3366ff99","-1","-1","1","+10","","0","1","","","","","805","29","0","2","win","no-go","0"
"pit-trial","60","319868","0.0-32.0","battery-v0.2","","749.0199999883771","W","bacs2","#3366ff99","-1","32","0","+10","2249.775000149384","1","1","","","","","805","30","1","2","win","no-go","1"
"pit-trial","61","323054","0.0-33.0","battery-v0.2","","482.2899999562651","X","bacs2","#3366ff99","32","32","1","+1","1982.8849998302758","1","1","","","","","805","31","2","1","win","go","1"
"pit-trial","62","327059","0.0-34.0","battery-v0.2","","-1","Z","bacs2","#f73b6a7A","32","-1","0","-10","2828.4399998374283","1","1","","","","","805","32","3","3","lose","go","0"
"pit-trial","63","331062","0.0-35.0","battery-v0.2","","-1","J","bacs2","#3366ff99","-1","-1","1","+10","","0","1","","","","","805","33","0","2","win","no-go","0"
"pit-trial","64","334383","0.0-36.0","battery-v0.2","","617.8850000724196","G","bacs2","#f73b6a7A","-1","32","0","-10","2118.549999780953","1","1","","","","","805","34","4","4","lose","no-go","0"
"pit-trial","65","338110","0.0-37.0","battery-v0.2","","1021.1700000800192","O","bacs2","#f73b6a7A","32","32","1","-10","2521.8500001356006","1","1","","","","","805","35","5","3","lose","go","1"
"pit-trial","66","341374","0.0-38.0","battery-v0.2","","559.5249999314547","X","bacs2","#3366ff99","32","32","1","+10","2060.590000124648","1","1","","","","","805","36","2","1","win","go","0"
"pit-trial","67","344413","0.0-39.0","battery-v0.2","","334.81500018388033","X","bacs2","#3366ff99","32","32","1","+10","1836.274999892339","1","1","","","","","805","37","2","1","win","go","0"
"pit-trial","68","348415","0.0-40.0","battery-v0.2","","-1","G","bacs2","#f73b6a7A","-1","-1","1","-10","","0","1","","","","","805","38","4","4","lose","no-go","1"
"pit-trial","69","351902","0.0-41.0","battery-v0.2","","783.765000058338","O","bacs2","#f73b6a7A","32","32","1","-10","427.4100000038743,812.184999929741,2284.135000081733","3","1","","","","","805","39","5","3","lose","go","1"
"pit-trial","70","355904","0.0-42.0","battery-v0.2","","-1","J","bacs2","#3366ff99","-1","-1","1","+10","","0","1","","","","","805","40","0","2","win","no-go","0"
"pit-trial","71","359905","0.0-43.0","battery-v0.2","","-1","G","bacs2","#f73b6a7A","-1","-1","1","-10","3723.3450000640005,3995.4650001600385","2","1","","","","","805","41","4","4","lose","no-go","1"
"pit-trial","72","363372","0.0-44.0","battery-v0.2","","764.1950000543147","O","bacs2","#f73b6a7A","32","32","1","-1","217.98499999567866,426.12499999813735,665.8799999859184,2265.1649999897927","4","1","","","","","805","42","5","3","lose","go","0"
"pit-trial","73","366526","0.0-45.0","battery-v0.2","","449.43500007502735","C","bacs2","#3366ff99","-1","32","0","+10","1950.0600001774728","1","1","","","","","805","43","6","2","win","no-go","1"
"pit-trial","74","369614","0.0-46.0","battery-v0.2","","385.2800000458956","X","bacs2","#3366ff99","32","32","1","+10","1885.3250001557171","1","1","","","","","805","44","2","1","win","go","0"
"pit-trial","75","373501","0.0-47.0","battery-v0.2","","1183.9949998538941","O","bacs2","#f73b6a7A","32","32","1","-1","2685.6800001114607","1","1","","","","","805","45","5","3","lose","go","0"
"pit-trial","76","376654","0.0-48.0","battery-v0.2","","448.95000010728836","X","bacs2","#3366ff99","32","32","1","+10","1950.029999949038","1","1","","","","","805","46","2","1","win","go","0"
"pit-trial","77","380284","0.0-49.0","battery-v0.2","","928.2050000037998","G","bacs2","#f73b6a7A","-1","32","0","-1","2428.984999889508","1","1","","","","","805","47","4","4","lose","no-go","1"
"pit-trial","78","383645","0.0-50.0","battery-v0.2","","657.4999999720603","C","bacs2","#3366ff99","-1","32","0","+1","2158.2750000525266","1","1","","","","","805","48","6","2","win","no-go","0"
"pit-trial","79","387650","0.0-51.0","battery-v0.2","","-1","G","bacs2","#f73b6a7A","-1","-1","1","-1","3470.1449999120086,3757.569999899715","2","1","","","","","805","49","4","4","lose","no-go","0"
"pit-trial","80","391053","0.0-52.0","battery-v0.2","","700.3200000617653","C","bacs2","#3366ff99","-1","32","0","+1","2201.385000022128,3194.419999839738","2","1","","","","","805","50","6","2","win","no-go","0"
"pit-trial","81","395056","0.0-53.0","battery-v0.2","","-1","O","bacs2","#f73b6a7A","32","-1","0","-10","3423.350000055507","1","1","","","","","805","51","5","3","lose","go","0"
"pit-trial","82","398301","0.0-54.0","battery-v0.2","","543.6300002038479","E","bacs2","#f73b6a7A","-1","32","0","-10","2044.0299999900162","1","1","","","","","805","52","7","4","lose","no-go","0"
"pit-trial","83","401709","0.0-55.0","battery-v0.2","","704.1599999647588","C","bacs2","#3366ff99","-1","32","0","+1","2206.1300000641495","1","1","","","","","805","53","6","2","win","no-go","0"
"pit-trial","84","405714","0.0-56.0","battery-v0.2","","-1","O","bacs2","#f73b6a7A","32","-1","0","-10","","0","1","","","","","805","54","5","3","lose","go","0"
"pit-trial","85","409717","0.0-57.0","battery-v0.2","","-1","E","bacs2","#f73b6a7A","-1","-1","1","-1","","0","1","","","","","805","55","7","4","lose","no-go","0"
"pit-trial","86","413263","0.0-58.0","battery-v0.2","","842.5999998580664","G","bacs2","#f73b6a7A","-1","32","0","-10","2342.875000089407","1","1","","","","","805","56","4","4","lose","no-go","0"
"pit-trial","87","416622","0.0-59.0","battery-v0.2","","654.355000006035","C","bacs2","#3366ff99","-1","32","0","+1","2155.625000130385","1","1","","","","","805","57","6","2","win","no-go","0"
"pit-trial","88","420626","0.0-60.0","battery-v0.2","","-1","O","bacs2","#f73b6a7A","32","-1","0","-10","","0","1","","","","","805","58","5","3","lose","go","0"
"pit-trial","89","424030","0.0-61.0","battery-v0.2","","700.379999820143","E","bacs2","#f73b6a7A","-1","32","0","-1","2200.8850001730025","1","1","","","","","805","59","7","4","lose","no-go","1"
"pit-trial","90","427310","0.0-62.0","battery-v0.2","","576.8350001890212","G","bacs2","#f73b6a7A","-1","32","0","-10","573.7949998583645,2077.2499998565763","2","1","","","","","805","60","4","4","lose","no-go","0"
"pit-trial","91","430654","0.0-63.0","battery-v0.2","","641.1950001493096","C","bacs2","#3366ff99","-1","32","0","+1","2141.4199999999255","1","1","","","","","805","61","6","2","win","no-go","0"
"pit-trial","92","434657","0.0-64.0","battery-v0.2","","-1","E","bacs2","#f73b6a7A","-1","-1","1","-1","2812.734999926761","1","1","","","","","805","62","7","4","lose","no-go","0"
"pit-trial","93","437870","0.0-65.0","battery-v0.2","","508.5899999830872","G","bacs2","#f73b6a7A","-1","32","0","-10","2009.455000050366","1","1","","","","","805","63","4","4","lose","no-go","0"
"pit-trial","94","441838","0.0-66.0","battery-v0.2","","1263.5550000704825","O","bacs2","#f73b6a7A","32","32","1","-1","2764.350000070408","1","1","","","","","805","64","5","3","lose","go","0"
"pit-trial","95","445841","0.0-67.0","battery-v0.2","","-1","G","bacs2","#f73b6a7A","-1","-1","1","-1","","0","1","","","","","805","65","4","4","lose","no-go","0"
"pit-trial","96","448957","0.0-68.0","battery-v0.2","","413.7250001076609","C","bacs2","#3366ff99","-1","32","0","+1","1913.9049998484552","1","1","","","","","805","66","6","2","win","no-go","0"
"pit-trial","97","452397","0.0-69.0","battery-v0.2","","737.3450000304729","O","bacs2","#f73b6a7A","32","32","1","-1","2237.730000168085","1","1","","","","","805","67","5","3","lose","go","0"
"pit-trial","98","456401","0.0-70.0","battery-v0.2","","-1","E","bacs2","#f73b6a7A","-1","-1","1","-1","","0","1","","","","","805","68","7","4","lose","no-go","0"
"pit-trial","99","460406","0.0-71.0","battery-v0.2","","-1","C","bacs2","#3366ff99","-1","-1","1","+10","","0","1","","","","","805","69","6","2","win","no-go","0"
"pit-trial","100","464410","0.0-72.0","battery-v0.2","","-1","G","bacs2","#f73b6a7A","-1","-1","1","-1","","0","1","","","","","805","70","4","4","lose","no-go","0"
"pit-trial","101","468414","0.0-73.0","battery-v0.2","","-1","O","bacs2","#f73b6a7A","32","-1","0","-10","","0","1","","","","","805","71","5","3","lose","go","0"
"pit-trial","102","472417","0.0-74.0","battery-v0.2","","-1","E","bacs2","#f73b6a7A","-1","-1","1","-1","","0","1","","","","","805","72","7","4","lose","no-go","0"
"pit-trial","103","475885","0.0-75.0","battery-v0.2","","765.0399999693036","O","bacs2","#f73b6a7A","32","32","1","-1","2265.7349999062717","1","1","","","","","805","73","5","3","lose","go","0"
"pit-trial","104","479888","0.0-76.0","battery-v0.2","","-1","H","bacs2","#f73b6a7A","-1","-1","1","-1","","0","1","","","","","805","74","8","4","lose","no-go","0"
"pit-trial","105","483890","0.0-77.0","battery-v0.2","","-1","E","bacs2","#f73b6a7A","-1","-1","1","-1","","0","1","","","","","805","75","7","4","lose","no-go","0"
"pit-trial","106","487102","0.0-78.0","battery-v0.2","","509.40999994054437","C","bacs2","#3366ff99","-1","32","0","+10","2009.6950000151992","1","1","","","","","805","76","6","2","win","no-go","1"
"pit-trial","107","490621","0.0-79.0","battery-v0.2","","814.9350001476705","O","bacs2","#f73b6a7A","32","32","1","-1","2317.2850001137704","1","1","","","","","805","77","5","3","lose","go","0"
"pit-trial","108","493821","0.0-80.0","battery-v0.2","","497.4450001027435","C","bacs2","#3366ff99","-1","32","0","+10","1998.054999858141","1","1","","","","","805","78","6","2","win","no-go","1"
"pit-trial","109","497824","0.0-81.0","battery-v0.2","","-1","H","bacs2","#f73b6a7A","-1","-1","1","-1","","0","1","","","","","805","79","8","4","lose","no-go","0"
"pit-trial","110","501827","0.0-82.0","battery-v0.2","","-1","E","bacs2","#f73b6a7A","-1","-1","1","-10","","0","1","","","","","805","80","7","4","lose","no-go","1"
"pit-trial","111","505309","0.0-83.0","battery-v0.2","","778.7399999797344","Q","bacs2","#3366ff99","32","32","1","+10","2279.914999846369","1","1","","","","","805","81","9","1","win","go","0"
"pit-trial","112","508508","0.0-84.0","battery-v0.2","","496.5849998407066","T","bacs2","#f73b6a7A","32","32","1","-1","1997.4549999460578","1","1","","","","","805","82","10","3","lose","go","0"
"pit-trial","113","511742","0.0-85.0","battery-v0.2","","530.9250000864267","C","bacs2","#3366ff99","-1","32","0","+1","2031.2300000805408","1","1","","","","","805","83","6","2","win","no-go","0"
"pit-trial","114","515745","0.0-86.0","battery-v0.2","","-1","H","bacs2","#f73b6a7A","-1","-1","1","-1","","0","1","","","","","805","84","8","4","lose","no-go","0"
"pit-trial","115","519748","0.0-87.0","battery-v0.2","","-1","H","bacs2","#f73b6a7A","-1","-1","1","-1","","0","1","","","","","805","85","8","4","lose","no-go","0"
"pit-trial","116","523582","0.0-88.0","battery-v0.2","","1131.6949999891222","T","bacs2","#f73b6a7A","32","32","1","-1","2631.8399999290705","1","1","","","","","805","86","10","3","lose","go","0"
"pit-trial","117","526846","0.0-89.0","battery-v0.2","","559.4300001394004","C","bacs2","#3366ff99","-1","32","0","+1","2059.954999946058","1","1","","","","","805","87","6","2","win","no-go","0"
"pit-trial","118","530850","0.0-90.0","battery-v0.2","","-1","Q","bacs2","#3366ff99","32","-1","0","+1","3739.71000011079","1","1","","","","","805","88","9","1","win","go","0"
"pit-trial","119","534253","0.0-91.0","battery-v0.2","","701.0350001510233","Y","bacs2","#3366ff99","32","32","1","+10","201.1499998625368,2201.7299998551607","2","1","","","","","805","89","11","1","win","go","0"
"pit-trial","120","537533","0.0-92.0","battery-v0.2","","576.5299999620765","Q","bacs2","#3366ff99","32","32","1","+10","2077.0650000777096","1","1","","","","","805","90","9","1","win","go","0"
"pit-trial","121","541537","0.0-93.0","battery-v0.2","","-1","H","bacs2","#f73b6a7A","-1","-1","1","-1","","0","1","","","","","805","91","8","4","lose","no-go","0"
"pit-trial","122","545036","0.0-94.0","battery-v0.2","","797.1749999560416","T","bacs2","#f73b6a7A","32","32","1","-10","2297.6150000467896","1","1","","","","","805","92","10","3","lose","go","1"
"pit-trial","123","548301","0.0-95.0","battery-v0.2","","561.3599999342114","Y","bacs2","#3366ff99","32","32","1","+10","2062.6550000160933","1","1","","","","","805","93","11","1","win","go","0"
"pit-trial","124","551725","0.0-96.0","battery-v0.2","","722.6399998180568","T","bacs2","#f73b6a7A","32","32","1","-10","2222.8500000201166","1","1","","","","","805","94","10","3","lose","go","1"
"pit-trial","125","554942","0.0-97.0","battery-v0.2","","510.74500009417534","Q","bacs2","#3366ff99","32","32","1","+10","2014.0050000045449","1","1","","","","","805","95","9","1","win","go","0"
"pit-trial","126","558944","0.0-98.0","battery-v0.2","","-1","H","bacs2","#f73b6a7A","-1","-1","1","-10","","0","1","","","","","805","96","8","4","lose","no-go","1"
"pit-trial","127","562141","0.0-99.0","battery-v0.2","","494.7650001849979","Y","bacs2","#3366ff99","32","32","1","+10","1995.1800000853837","1","1","","","","","805","97","11","1","win","go","0"
"pit-trial","128","566144","0.0-100.0","battery-v0.2","","-1","H","bacs2","#f73b6a7A","-1","-1","1","-1","","0","1","","","","","805","98","8","4","lose","no-go","0"
"pit-trial","129","569484","0.0-101.0","battery-v0.2","","636.7450000252575","Q","bacs2","#3366ff99","32","32","1","+1","2137.845000019297","1","1","","","","","805","99","9","1","win","go","1"
"pit-trial","130","572894","0.0-102.0","battery-v0.2","","706.5050001256168","T","bacs2","#f73b6a7A","32","32","1","-1","2206.7950000055134","1","1","","","","","805","100","10","3","lose","go","0"
"pit-trial","131","576092","0.0-103.0","battery-v0.2","","496.9500000588596","T","bacs2","#f73b6a7A","32","32","1","-1","1997.315000044182","1","1","","","","","805","101","10","3","lose","go","0"
"pit-trial","132","580095","0.0-104.0","battery-v0.2","","-1","H","bacs2","#f73b6a7A","-1","-1","1","-1","","0","1","","","","","805","102","8","4","lose","no-go","0"
"pit-trial","133","583373","0.0-105.0","battery-v0.2","","575.7949999533594","Y","bacs2","#3366ff99","32","32","1","+10","2076.104999985546","1","1","","","","","805","103","11","1","win","go","0"
"pit-trial","134","586668","0.0-106.0","battery-v0.2","","591.9800000265241","Q","bacs2","#3366ff99","32","32","1","+1","2093.295000027865","1","1","","","","","805","104","9","1","win","go","1"
"pit-trial","135","590285","0.0-107.0","battery-v0.2","","912.7400000579655","T","bacs2","#f73b6a7A","32","32","1","-10","2414.579999865964","1","1","","","","","805","105","10","3","lose","go","1"
"pit-trial","136","593692","0.0-108.0","battery-v0.2","","705.3199999500066","Y","bacs2","#3366ff99","32","32","1","+10","2205.3849999792874","1","1","","","","","805","106","11","1","win","go","0"
"pit-trial","137","596780","0.0-109.0","battery-v0.2","","385.07500011473894","H","bacs2","#f73b6a7A","-1","32","0","-10","1886.2299998290837","1","1","","","","","805","107","8","4","lose","no-go","0"
"pit-trial","138","600319","0.0-110.0","battery-v0.2","","834.3099998310208","Q","bacs2","#3366ff99","32","32","1","+10","2334.8899998236448","1","1","","","","","805","108","9","1","win","go","0"
"pit-trial","139","604323","0.0-111.0","battery-v0.2","","-1","H","bacs2","#f73b6a7A","-1","-1","1","-10","","0","1","","","","","805","109","8","4","lose","no-go","1"
"pit-trial","140","607997","0.0-112.0","battery-v0.2","","970.1300000306219","Y","bacs2","#3366ff99","32","32","1","+1","2470.3499998431653","1","1","","","","","805","110","11","1","win","go","1"
"pit-trial","141","611117","0.0-113.0","battery-v0.2","","418.0050001014024","Q","bacs2","#3366ff99","32","32","1","+10","1918.284999905154","1","1","","","","","805","111","9","1","win","go","0"
"pit-trial","142","614429","0.0-114.0","battery-v0.2","","608.8049998506904","T","bacs2","#f73b6a7A","32","32","1","-1","2109.175000106916","1","1","","","","","805","112","10","3","lose","go","0"
"pit-trial","143","617661","0.0-115.0","battery-v0.2","","528.6950001027435","H","bacs2","#f73b6a7A","-1","32","0","-10","2030.4299998097122","1","1","","","","","805","113","8","4","lose","no-go","0"
"pit-trial","144","621103","0.0-116.0","battery-v0.2","","738.4049999527633","T","bacs2","#f73b6a7A","32","32","1","-1","2239.470000145957","1","1","","","","","805","114","10","3","lose","go","0"
"pit-trial","145","624605","0.0-117.0","battery-v0.2","","798.8700000569224","Y","bacs2","#3366ff99","32","32","1","+10","2299.7850000392646","1","1","","","","","805","115","11","1","win","go","0"
"pit-trial","146","627756","0.0-118.0","battery-v0.2","","449.5249998290092","Q","bacs2","#3366ff99","32","32","1","+10","1949.9200000427663","1","1","","","","","805","116","9","1","win","go","0"
"pit-trial","147","630861","0.0-119.0","battery-v0.2","","402.1749999374151","Y","bacs2","#3366ff99","32","32","1","+1","1902.8549999929965","1","1","","","","","805","117","11","1","win","go","1"
"pit-trial","148","634317","0.0-120.0","battery-v0.2","","751.3650001492351","Q","bacs2","#3366ff99","32","32","1","+10","2253.6499998532236","1","1","","","","","805","118","9","1","win","go","0"
"pit-trial","149","637548","0.0-121.0","battery-v0.2","","529.0500000119209","T","bacs2","#f73b6a7A","32","32","1","-1","2029.3250000104308","1","1","","","","","805","119","10","3","lose","go","0"
"pit-trial","150","640765","0.0-122.0","battery-v0.2","","514.3799998331815","H","bacs2","#f73b6a7A","-1","32","0","-10","2015.320000005886","1","1","","","","","805","120","8","4","lose","no-go","0"
"pit-instructions","151","646429","0.0-123.0","battery-v0.2","[{""page_index"":0,""viewing_time"":3341.495000058785},{""page_index"":1,""viewing_time"":2319.965000031516}]","5661.890000104904","","","","","","","","","","","","","","","","","","","","",""
"pit-trial","152","650432","0.0-124.0","battery-v0.2","","-1","U","bacs2","#3366ff99","32","-1","0","+1","2829.619999974966","1","2","","","","","805","121","3","1","win","go","0"
"pit-trial","153","654435","0.0-125.0","battery-v0.2","","-1","A","bacs2","#f73b6a7A","-1","-1","1","-10","683.3150000311434","1","2","","","","","805","122","2","4","lose","no-go","1"
"pit-trial","154","657646","0.0-126.0","battery-v0.2","","508.33500013686717","F","bacs2","#f73b6a7A","32","32","1","-1","2008.6999998893589","1","2","","","","","805","123","1","3","lose","go","0"
"pit-trial","155","660973","0.0-127.0","battery-v0.2","","623.060000129044","N","bacs2","#3366ff99","-1","32","0","+1","2124.264999991283","1","2","","","","","805","124","0","2","win","no-go","0"
"pit-trial","156","664044","0.0-128.0","battery-v0.2","","368.6200000811368","N","bacs2","#3366ff99","-1","32","0","+1","1869.925000006333","1","2","","","","","805","125","0","2","win","no-go","0"
"pit-trial","157","667421","0.0-129.0","battery-v0.2","","673.7949999514967","U","bacs2","#3366ff99","32","32","1","+10","2174.115000059828","1","2","","","","","805","126","3","1","win","go","0"
"pit-trial","158","670525","0.0-130.0","battery-v0.2","","400.8199998643249","A","bacs2","#f73b6a7A","-1","32","0","-10","1902.324999915436","1","2","","","","","805","127","2","4","lose","no-go","0"
"pit-trial","159","674528","0.0-131.0","battery-v0.2","","-1","F","bacs2","#f73b6a7A","32","-1","0","-10","","0","2","","","","","805","128","1","3","lose","go","0"
"pit-trial","160","677724","0.0-132.0","battery-v0.2","","493.43999987468123","N","bacs2","#3366ff99","-1","32","0","+1","1993.8149999361485","1","2","","","","","805","129","0","2","win","no-go","0"
"pit-trial","161","681309","0.0-133.0","battery-v0.2","","882.0750000886619","F","bacs2","#f73b6a7A","32","32","1","-1","2382.2500000242144","1","2","","","","","805","130","1","3","lose","go","0"
"pit-trial","162","684463","0.0-134.0","battery-v0.2","","449.5900000911206","U","bacs2","#3366ff99","32","32","1","+10","1950.734999962151","1","2","","","","","805","131","3","1","win","go","0"
"pit-trial","163","688467","0.0-135.0","battery-v0.2","","-1","A","bacs2","#f73b6a7A","-1","-1","1","-1","","0","2","","","","","805","132","2","4","lose","no-go","0"
"pit-trial","164","691904","0.0-136.0","battery-v0.2","","733.439999865368","N","bacs2","#3366ff99","-1","32","0","+1","2233.460000017658","1","2","","","","","805","133","0","2","win","no-go","0"
"pit-trial","165","695908","0.0-137.0","battery-v0.2","","-1","F","bacs2","#f73b6a7A","32","-1","0","-10","","0","2","","","","","805","134","1","3","lose","go","0"
"pit-trial","166","699308","0.0-138.0","battery-v0.2","","697.1499999053776","A","bacs2","#f73b6a7A","-1","32","0","-1","2198.009999934584","1","2","","","","","805","135","2","4","lose","no-go","1"
"pit-trial","167","702782","0.0-139.0","battery-v0.2","","769.4399999454618","U","bacs2","#3366ff99","32","32","1","+10","2271.070000017062","1","2","","","","","805","136","3","1","win","go","0"
"pit-trial","168","705980","0.0-140.0","battery-v0.2","","495.6049998290837","N","bacs2","#3366ff99","-1","32","0","+1","1996.284999884665","1","2","","","","","805","137","0","2","win","no-go","0"
"pit-trial","169","708941","0.0-141.0","battery-v0.2","","257.29999993927777","F","bacs2","#f73b6a7A","32","32","1","-1","1757.9950001090765","1","2","","","","","805","138","1","3","lose","go","0"
"pit-trial","170","711981","0.0-142.0","battery-v0.2","","337.39999984391034","U","bacs2","#3366ff99","32","32","1","+1","1837.7849999815226","1","2","","","","","805","139","3","1","win","go","1"
"pit-trial","171","715984","0.0-143.0","battery-v0.2","","-1","A","bacs2","#f73b6a7A","-1","-1","1","-1","","0","2","","","","","805","140","2","4","lose","no-go","0"
"pit-trial","172","719566","0.0-144.0","battery-v0.2","","878.1349998898804","F","bacs2","#f73b6a7A","32","32","1","-1","2378.610000014305","1","2","","","","","805","141","1","3","lose","go","0"
"pit-trial","173","722844","0.0-145.0","battery-v0.2","","576.0699999518692","U","bacs2","#3366ff99","32","32","1","+1","2076.5500001143664","1","2","","","","","805","142","3","1","win","go","1"
"pit-trial","174","725933","0.0-146.0","battery-v0.2","","385.31000004149973","A","bacs2","#f73b6a7A","-1","32","0","-10","1885.729999979958","1","2","","","","","805","143","2","4","lose","no-go","0"
"pit-trial","175","729937","0.0-147.0","battery-v0.2","","-1","N","bacs2","#3366ff99","-1","-1","1","+1","3006.760000018403","1","2","","","","","805","144","0","2","win","no-go","1"
"pit-trial","176","733939","0.0-148.0","battery-v0.2","","-1","F","bacs2","#f73b6a7A","32","-1","0","-1","","0","2","","","","","805","145","1","3","lose","go","1"
"pit-trial","177","736956","0.0-149.0","battery-v0.2","","314.6750000305474","N","bacs2","#3366ff99","-1","32","0","+1","1815.4100000392646","1","2","","","","","805","146","0","2","win","no-go","0"
"pit-trial","178","740237","0.0-150.0","battery-v0.2","","574.544999981299","A","bacs2","#f73b6a7A","-1","32","0","-10","1434.6000000368804,2074.7899999842048","2","2","","","","","805","147","2","4","lose","no-go","0"
"pit-trial","179","743453","0.0-151.0","battery-v0.2","","512.2799999080598","U","bacs2","#3366ff99","32","32","1","+10","2012.4800000339746","1","2","","","","","805","148","3","1","win","go","0"
"pit-trial","180","747455","0.0-152.0","battery-v0.2","","-1","A","bacs2","#f73b6a7A","-1","-1","1","-1","","0","2","","","","","805","149","2","4","lose","no-go","0"
"pit-trial","181","751020","0.0-153.0","battery-v0.2","","861.1500000115484","F","bacs2","#f73b6a7A","32","32","1","-1","2362.639999948442","1","2","","","","","805","150","1","3","lose","go","0"
"pit-trial","182","754044","0.0-154.0","battery-v0.2","","320.0350000988692","U","bacs2","#3366ff99","32","32","1","+10","1822.0000001601875","1","2","","","","","805","151","3","1","win","go","0"
"pit-trial","183","757133","0.0-155.0","battery-v0.2","","386.6300000809133","N","bacs2","#3366ff99","-1","32","0","+10","1886.7249998729676","1","2","","","","","805","152","0","2","win","no-go","1"
"pit-trial","184","760125","0.0-156.0","battery-v0.2","","288.4349999949336","A","bacs2","#f73b6a7A","-1","32","0","-1","1789.2899999860674","1","2","","","","","805","153","2","4","lose","no-go","1"
"pit-trial","185","763101","0.0-157.0","battery-v0.2","","271.37500001117587","S","bacs2","#f73b6a7A","32","32","1","-1","1197.8149998467416,1773.3949997927994","2","2","","","","","805","154","4","3","lose","go","0"
"pit-trial","186","767107","0.0-158.0","battery-v0.2","","-1","F","bacs2","#f73b6a7A","32","-1","0","-10","","0","2","","","","","805","155","1","3","lose","go","0"
"pit-trial","187","770189","0.0-159.0","battery-v0.2","","379.1500001680106","L","bacs2","#f73b6a7A","-1","32","0","-1","1879.8199999146163","1","2","","","","","805","156","5","4","lose","no-go","1"
"pit-trial","188","773229","0.0-160.0","battery-v0.2","","336.28499996848404","A","bacs2","#f73b6a7A","-1","32","0","-1","1836.7399999406189","1","2","","","","","805","157","2","4","lose","no-go","1"
"pit-trial","189","777231","0.0-161.0","battery-v0.2","","-1","F","bacs2","#f73b6a7A","32","-1","0","-10","","0","2","","","","","805","158","1","3","lose","go","0"
"pit-trial","190","780973","0.0-162.0","battery-v0.2","","1039.5449998322874","S","bacs2","#f73b6a7A","32","32","1","-10","2539.989999961108","1","2","","","","","805","159","4","3","lose","go","1"
"pit-trial","191","784477","0.0-163.0","battery-v0.2","","799.5699997991323","L","bacs2","#f73b6a7A","-1","32","0","-10","2300.8300000801682","1","2","","","","","805","160","5","4","lose","no-go","0"
"pit-trial","192","787741","0.0-164.0","battery-v0.2","","562.0050001889467","S","bacs2","#f73b6a7A","32","32","1","-1","2062.544999876991","1","2","","","","","805","161","4","3","lose","go","0"
"pit-trial","193","791212","0.0-165.0","battery-v0.2","","767.1050000935793","P","bacs2","#3366ff99","-1","32","0","+1","2268.5150001198053","1","2","","","","","805","162","6","2","win","no-go","0"
"pit-trial","194","794493","0.0-166.0","battery-v0.2","","577.5249998550862","A","bacs2","#f73b6a7A","-1","32","0","-1","2078.639999963343","1","2","","","","","805","163","2","4","lose","no-go","1"
"pit-trial","195","798497","0.0-167.0","battery-v0.2","","-1","L","bacs2","#f73b6a7A","-1","-1","1","-1","","0","2","","","","","805","164","5","4","lose","no-go","0"
"pit-trial","196","801901","0.0-168.0","battery-v0.2","","701.2249999679625","P","bacs2","#3366ff99","-1","32","0","+1","2202.440000139177","1","2","","","","","805","165","6","2","win","no-go","0"
"pit-trial","197","805406","0.0-169.0","battery-v0.2","","800.6550001446158","A","bacs2","#f73b6a7A","-1","32","0","-10","2301.1549999937415","1","2","","","","","805","166","2","4","lose","no-go","0"
"pit-trial","198","809005","0.0-170.0","battery-v0.2","","895.8999998867512","S","bacs2","#f73b6a7A","32","32","1","-1","2397.1599999349564","1","2","","","","","805","167","4","3","lose","go","0"
"pit-trial","199","812157","0.0-171.0","battery-v0.2","","447.3849998321384","L","bacs2","#f73b6a7A","-1","32","0","-10","1949.25000006333","1","2","","","","","805","168","5","4","lose","no-go","0"
"pit-trial","200","815422","0.0-172.0","battery-v0.2","","561.9650001171976","P","bacs2","#3366ff99","-1","32","0","+1","2062.6000000629574","1","2","","","","","805","169","6","2","win","no-go","0"
"pit-trial","201","819426","0.0-173.0","battery-v0.2","","-1","R","bacs2","#3366ff99","32","-1","0","+1","","0","2","","","","","805","170","7","1","win","go","0"
"pit-trial","202","823005","0.0-174.0","battery-v0.2","","877.0850000437349","S","bacs2","#f73b6a7A","32","32","1","-1","2377.959999954328","1","2","","","","","805","171","4","3","lose","go","0"
"pit-trial","203","827009","0.0-175.0","battery-v0.2","","-1","L","bacs2","#f73b6a7A","-1","-1","1","-1","","0","2","","","","","805","172","5","4","lose","no-go","0"
"pit-trial","204","830252","0.0-176.0","battery-v0.2","","541.1200001835823","L","bacs2","#f73b6a7A","-1","32","0","-10","2041.4499999023974","1","2","","","","","805","173","5","4","lose","no-go","0"
"pit-trial","205","833581","0.0-177.0","battery-v0.2","","627.1900001447648","P","bacs2","#3366ff99","-1","32","0","+1","2127.295000012964","1","2","","","","","805","174","6","2","win","no-go","0"
"pit-trial","206","837148","0.0-178.0","battery-v0.2","","864.7749999072403","R","bacs2","#3366ff99","32","32","1","+10","2365.4799999203533","1","2","","","","","805","175","7","1","win","go","0"
"pit-trial","207","841151","0.0-179.0","battery-v0.2","","-1","S","bacs2","#f73b6a7A","32","-1","0","-10","","0","2","","","","","805","176","4","3","lose","go","0"
"pit-trial","208","844765","0.0-180.0","battery-v0.2","","910.9149998985231","L","bacs2","#f73b6a7A","-1","32","0","-10","2410.9500001650304","1","2","","","","","805","177","5","4","lose","no-go","0"
"pit-trial","209","848190","0.0-181.0","battery-v0.2","","720.2950001228601","P","bacs2","#3366ff99","-1","32","0","+1","2222.18000004068","1","2","","","","","805","178","6","2","win","no-go","0"
"pit-trial","210","851820","0.0-182.0","battery-v0.2","","927.0250000990927","R","bacs2","#3366ff99","32","32","1","+10","2428.5950001794845","1","2","","","","","805","179","7","1","win","go","0"
"pit-trial","211","855823","0.0-183.0","battery-v0.2","","-1","S","bacs2","#f73b6a7A","32","-1","0","-10","3918.470000149682","1","2","","","","","805","180","4","3","lose","go","0"
"pit-trial","212","859069","0.0-184.0","battery-v0.2","","541.715000057593","P","bacs2","#3366ff99","-1","32","0","+1","2043.0899998173118","1","2","","","","","805","181","6","2","win","no-go","0"
"pit-trial","213","862382","0.0-185.0","battery-v0.2","","608.9900000952184","R","bacs2","#3366ff99","32","32","1","+10","2109.7299999091774","1","2","","","","","805","182","7","1","win","go","0"
"pit-trial","214","866387","0.0-186.0","battery-v0.2","","-1","S","bacs2","#f73b6a7A","32","-1","0","-1","","0","2","","","","","805","183","4","3","lose","go","1"
"pit-trial","215","870015","0.0-187.0","battery-v0.2","","924.9950000084937","L","bacs2","#f73b6a7A","-1","32","0","-10","2425.610000034794","1","2","","","","","805","184","5","4","lose","no-go","0"
"pit-trial","216","873342","0.0-188.0","battery-v0.2","","624.294999986887","R","bacs2","#3366ff99","32","32","1","+10","2124.6799998916686","1","2","","","","","805","185","7","1","win","go","0"
"pit-trial","217","876799","0.0-189.0","battery-v0.2","","752.1100000012666","L","bacs2","#f73b6a7A","-1","32","0","-1","2252.8299998957664","1","2","","","","","805","186","5","4","lose","no-go","1"
"pit-trial","218","880143","0.0-190.0","battery-v0.2","","640.5650000087917","P","bacs2","#3366ff99","-1","32","0","+1","2141.444999957457","1","2","","","","","805","187","6","2","win","no-go","0"
"pit-trial","219","883564","0.0-191.0","battery-v0.2","","718.8450000248849","S","bacs2","#f73b6a7A","32","32","1","-1","2219.3450001068413","1","2","","","","","805","188","4","3","lose","go","0"
"pit-trial","220","886335","0.0-192.0","battery-v0.2","","66.64499989710748","S","bacs2","#f73b6a7A","32","32","1","-1","1568.0949999950826","1","2","","","","","805","189","4","3","lose","go","0"
"pit-trial","221","889598","0.0-193.0","battery-v0.2","","558.5250000003725","P","bacs2","#3366ff99","-1","32","0","+1","2060.550000052899","1","2","","","","","805","190","6","2","win","no-go","0"
"pit-trial","222","892366","0.0-194.0","battery-v0.2","","63.46999993547797","L","bacs2","#f73b6a7A","-1","32","0","-10","1565.059999935329","1","2","","","","","805","191","5","4","lose","no-go","0"
"pit-trial","223","895661","0.0-195.0","battery-v0.2","","591.6049999650568","R","bacs2","#3366ff99","32","32","1","+10","2093.0050001479685","1","2","","","","","805","192","7","1","win","go","0"
"pit-trial","224","898813","0.0-196.0","battery-v0.2","","449.9599998816848","R","bacs2","#3366ff99","32","32","1","+10","1950.9800001978874","1","2","","","","","805","193","7","1","win","go","0"
"pit-trial","225","902817","0.0-197.0","battery-v0.2","","-1","S","bacs2","#f73b6a7A","32","-1","0","-10","","0","2","","","","","805","194","4","3","lose","go","0"
"pit-trial","226","905791","0.0-198.0","battery-v0.2","","269.9899999424815","P","bacs2","#3366ff99","-1","32","0","+10","1770.8949998486787","1","2","","","","","805","195","6","2","win","no-go","1"
"pit-trial","227","908829","0.0-199.0","battery-v0.2","","335.3699999861419","V","bacs2","#3366ff99","32","32","1","+10","1835.715000052005","1","2","","","","","805","196","8","1","win","go","0"
"pit-trial","228","912125","0.0-200.0","battery-v0.2","","593.129999935627","R","bacs2","#3366ff99","32","32","1","+10","2093.600000021979","1","2","","","","","805","197","7","1","win","go","0"
"pit-trial","229","915453","0.0-201.0","battery-v0.2","","623.3000000938773","V","bacs2","#3366ff99","32","32","1","+1","2124.5649999473244","1","2","","","","","805","198","8","1","win","go","1"
"pit-trial","230","918639","0.0-202.0","battery-v0.2","","482.615000102669","P","bacs2","#3366ff99","-1","32","0","+1","1982.8449999913573","1","2","","","","","805","199","6","2","win","no-go","0"
"pit-trial","231","921421","0.0-203.0","battery-v0.2","","80.17500001005828","S","bacs2","#f73b6a7A","32","32","1","-1","1580.9100000187755","1","2","","","","","805","200","4","3","lose","go","0"
"pit-trial","232","924685","0.0-204.0","battery-v0.2","","560.6800001114607","P","bacs2","#3366ff99","-1","32","0","+10","2060.964999953285","1","2","","","","","805","201","6","2","win","no-go","1"
"pit-trial","233","927902","0.0-205.0","battery-v0.2","","513.5049999225885","R","bacs2","#3366ff99","32","32","1","+10","2014.7349999751896","1","2","","","","","805","202","7","1","win","go","0"
"pit-trial","234","931422","0.0-206.0","battery-v0.2","","817.574999993667","V","bacs2","#3366ff99","32","32","1","+1","2318.0200001224875","1","2","","","","","805","203","8","1","win","go","1"
"pit-trial","235","934830","0.0-207.0","battery-v0.2","","705.6950000114739","K","bacs2","#3366ff99","-1","32","0","+1","2205.714999930933","1","2","","","","","805","204","9","2","win","no-go","0"
"pit-trial","236","938833","0.0-208.0","battery-v0.2","","-1","K","bacs2","#3366ff99","-1","-1","1","+10","","0","2","","","","","805","205","9","2","win","no-go","0"
"pit-trial","237","942125","0.0-209.0","battery-v0.2","","589.1500001307577","P","bacs2","#3366ff99","-1","32","0","+10","2089.464999968186","1","2","","","","","805","206","6","2","win","no-go","1"
"pit-trial","238","946128","0.0-210.0","battery-v0.2","","-1","R","bacs2","#3366ff99","32","-1","0","+1","","0","2","","","","","805","207","7","1","win","go","0"
"pit-trial","239","950131","0.0-211.0","battery-v0.2","","-1","V","bacs2","#3366ff99","32","-1","0","+1","","0","2","","","","","805","208","8","1","win","go","0"
"pit-trial","240","954133","0.0-212.0","battery-v0.2","","-1","B","bacs2","#f73b6a7A","32","-1","0","-1","","0","2","","","","","805","209","10","3","lose","go","1"
"pit-trial","241","958137","0.0-213.0","battery-v0.2","","-1","K","bacs2","#3366ff99","-1","-1","1","+1","","0","2","","","","","805","210","9","2","win","no-go","1"
"pit-trial","242","961564","0.0-214.0","battery-v0.2","","724.2850000038743","M","bacs2","#f73b6a7A","-1","32","0","-10","2224.9900000169873","1","2","","","","","805","211","11","4","lose","no-go","0"
"pit-trial","243","964973","0.0-215.0","battery-v0.2","","705.9299999382347","V","bacs2","#3366ff99","32","32","1","+10","2206.9849998224527","1","2","","","","","805","212","8","1","win","go","0"
"pit-trial","244","968189","0.0-216.0","battery-v0.2","","513.4199999738485","M","bacs2","#f73b6a7A","-1","32","0","-10","2014.0399998053908","1","2","","","","","805","213","11","4","lose","no-go","0"
"pit-trial","245","971917","0.0-217.0","battery-v0.2","","1025.3699999302626","B","bacs2","#f73b6a7A","32","32","1","-1","2525.6550000049174","1","2","","","","","805","214","10","3","lose","go","0"
"pit-trial","246","975151","0.0-218.0","battery-v0.2","","530.3099998272955","V","bacs2","#3366ff99","32","32","1","+10","2030.6049999780953","1","2","","","","","805","215","8","1","win","go","0"
"pit-trial","247","978349","0.0-219.0","battery-v0.2","","495.1500000897795","K","bacs2","#3366ff99","-1","32","0","+10","1995.494999922812","1","2","","","","","805","216","9","2","win","no-go","1"
"pit-trial","248","981534","0.0-220.0","battery-v0.2","","481.0999999754131","V","bacs2","#3366ff99","32","32","1","+10","1982.1500000543892","1","2","","","","","805","217","8","1","win","go","0"
"pit-trial","249","984685","0.0-221.0","battery-v0.2","","448.55999993160367","K","bacs2","#3366ff99","-1","32","0","+1","1948.6000000033528","1","2","","","","","805","218","9","2","win","no-go","0"
"pit-trial","250","987772","0.0-222.0","battery-v0.2","","385.1050001103431","B","bacs2","#f73b6a7A","32","32","1","-10","1885.275000007823","1","2","","","","","805","219","10","3","lose","go","1"
"pit-trial","251","991775","0.0-223.0","battery-v0.2","","-1","M","bacs2","#f73b6a7A","-1","-1","1","-1","","0","2","","","","","805","220","11","4","lose","no-go","0"
"pit-trial","252","995779","0.0-224.0","battery-v0.2","","-1","K","bacs2","#3366ff99","-1","-1","1","+10","","0","2","","","","","805","221","9","2","win","no-go","0"
"pit-trial","253","998748","0.0-225.0","battery-v0.2","","267.2099999617785","B","bacs2","#f73b6a7A","32","32","1","-1","1767.42499996908","1","2","","","","","805","222","10","3","lose","go","0"
"pit-trial","254","1001932","0.0-226.0","battery-v0.2","","481.2750001437962","V","bacs2","#3366ff99","32","32","1","+10","1982.3149999137968","1","2","","","","","805","223","8","1","win","go","0"
"pit-trial","255","1005262","0.0-227.0","battery-v0.2","","626.8299999646842","M","bacs2","#f73b6a7A","-1","32","0","-10","2127.325000008568","1","2","","","","","805","224","11","4","lose","no-go","0"
"pit-trial","256","1008733","0.0-228.0","battery-v0.2","","767.6549998577684","B","bacs2","#f73b6a7A","32","32","1","-10","2268.05999991484","1","2","","","","","805","225","10","3","lose","go","1"
"pit-trial","257","1011884","0.0-229.0","battery-v0.2","","447.8499998804182","M","bacs2","#f73b6a7A","-1","32","0","-1","1949.900000123307","1","2","","","","","805","226","11","4","lose","no-go","1"
"pit-trial","258","1015181","0.0-230.0","battery-v0.2","","594.5150000043213","K","bacs2","#3366ff99","-1","32","0","+1","2094.7350000496954","1","2","","","","","805","227","9","2","win","no-go","0"
"pit-trial","259","1018348","0.0-231.0","battery-v0.2","","463.85499997995794","V","bacs2","#3366ff99","32","32","1","+10","1964.7049999330193","1","2","","","","","805","228","8","1","win","go","0"
"pit-trial","260","1022349","0.0-232.0","battery-v0.2","","1298.4100000467151","B","bacs2","#f73b6a7A","32","32","1","-1","2798.8400000613183","1","2","","","","","805","229","10","3","lose","go","0"
"pit-trial","261","1025517","0.0-233.0","battery-v0.2","","463.91499997116625","K","bacs2","#3366ff99","-1","32","0","+1","1964.9650000501424","1","2","","","","","805","230","9","2","win","no-go","0"
"pit-trial","262","1029117","0.0-234.0","battery-v0.2","","896.6300000902265","V","bacs2","#3366ff99","32","32","1","+10","2398.009999888018","1","2","","","","","805","231","8","1","win","go","0"
"pit-trial","263","1032191","0.0-235.0","battery-v0.2","","370.20500004291534","M","bacs2","#f73b6a7A","-1","32","0","-1","1871.165000135079","1","2","","","","","805","232","11","4","lose","no-go","1"
"pit-trial","264","1036194","0.0-236.0","battery-v0.2","","-1","M","bacs2","#f73b6a7A","-1","-1","1","-1","","0","2","","","","","805","233","11","4","lose","no-go","0"
"pit-trial","265","1039692","0.0-237.0","battery-v0.2","","795.1899999752641","B","bacs2","#f73b6a7A","32","32","1","-1","2296.420000027865","1","2","","","","","805","234","10","3","lose","go","0"
"pit-trial","266","1042908","0.0-238.0","battery-v0.2","","513.1999999284744","V","bacs2","#3366ff99","32","32","1","+10","2014.7550001274794","1","2","","","","","805","235","8","1","win","go","0"
"pit-trial","267","1046334","0.0-239.0","battery-v0.2","","722.9599999263883","K","bacs2","#3366ff99","-1","32","0","+1","2223.2649999205023","1","2","","","","","805","236","9","2","win","no-go","0"
"pit-trial","268","1049534","0.0-240.0","battery-v0.2","","496.454999782145","B","bacs2","#f73b6a7A","32","32","1","-10","1997.1900000236928","1","2","","","","","805","237","10","3","lose","go","1"
"pit-trial","269","1052575","0.0-241.0","battery-v0.2","","336.8999999947846","V","bacs2","#3366ff99","32","32","1","+10","1837.4600000679493","1","2","","","","","805","238","8","1","win","go","0"
"pit-trial","270","1056578","0.0-242.0","battery-v0.2","","-1","M","bacs2","#f73b6a7A","-1","-1","1","-1","","0","2","","","","","805","239","11","4","lose","no-go","0"
"pit-trial","271","1059694","0.0-243.0","battery-v0.2","","412.9849998280406","K","bacs2","#3366ff99","-1","32","0","+10","1913.094999967143","1","2","","","","","805","240","9","2","win","no-go","1"
