"trial_type","trial_index","time_elapsed","internal_node_id","task_version","subject_id","interactions","blur_events","focus_events","fullscreenenter_events","fullscreenexit_events","success","view_history","rt","responses","num_errors","age","subject","participantId","rune","rune_set","hex","correct","choice","accuracy","outcome","keys","total_keys","block","practice","value","sub","trial","stimulus","robot","valence","action","sham","browser_interactions"
"pavlovia","0","31","0.0-0.0","battery-v0.2","","""event"",""trial"",""time""
""fullscreenenter"",""1"",""3435""
","
","
","""event"",""trial"",""time""
""fullscreenenter"",""1"",""3435""
","
","","","","","","","","","","","","","","","","","","","","","","","","","","","",""
"fullscreen","1","4370","0.0-1.0","battery-v0.2","","""event"",""trial"",""time""
""fullscreenenter"",""1"",""3435""
","
","
","""event"",""trial"",""time""
""fullscreenenter"",""1"",""3435""
","
","true","","","","","","","","","","","","","","","","","","","","","","","","","","",""
"pit-instructions","2","8614","0.0-2.0-0.0","battery-v0.2","","""event"",""trial"",""time""
""fullscreenenter"",""1"",""3435""
","
","
","""event"",""trial"",""time""
""fullscreenenter"",""1"",""3435""
","
","","[{""page_index"":0,""viewing_time"":4237.299999998882}]","4238.5999999996275","","","","","","","","","","","","","","","","","","","","","","","","",""
"pit-comprehension","3","12191","0.0-2.0-1.0-0.0","battery-v0.2","","""event"",""trial"",""time""
""fullscreenenter"",""1"",""3435""
","
","
","""event"",""trial"",""time""
""fullscreenenter"",""1"",""3435""
","
","","","3570.300000000745","[""shark""]","0","21","1213","953","","","","","","","","","","","","","","","","","","","",""
"pit-instructions","4","13506","0.0-2.0-1.0-1.0","battery-v0.2","","""event"",""trial"",""time""
""fullscreenenter"",""1"",""3435""
","
","
","""event"",""trial"",""time""
""fullscreenenter"",""1"",""3435""
","
","","[{""page_index"":0,""viewing_time"":1287.9000000003725}]","1288.5","","","","","","","","","","","","","","","","","","","","","","","","",""
"pit-comprehension","5","15864","0.0-2.0-2.0-0.0","battery-v0.2","","""event"",""trial"",""time""
""fullscreenenter"",""1"",""3435""
","
","
","""event"",""trial"",""time""
""fullscreenenter"",""1"",""3435""
","
","","","2351.60000000149","[""tiger""]","0","21","1213","953","","","","","","","","","","","","","","","","","","","",""
"pit-instructions","6","17106","0.0-2.0-2.0-1.0","battery-v0.2","","""event"",""trial"",""time""
""fullscreenenter"",""1"",""3435""
","
","
","""event"",""trial"",""time""
""fullscreenenter"",""1"",""3435""
","
","","[{""page_index"":0,""viewing_time"":1234.7999999988824}]","1235.2999999988824","","","","","","","","","","","","","","","","","","","","","","","","",""
"pit-instructions","7","205201","0.0-2.0-3.0","battery-v0.2","","""event"",""trial"",""time""
""fullscreenenter"",""1"",""3435""
","
","
","""event"",""trial"",""time""
""fullscreenenter"",""1"",""3435""
","
","","[{""page_index"":0,""viewing_time"":9741.799999998882},{""page_index"":1,""viewing_time"":12473.900000000373},{""page_index"":2,""viewing_time"":46803.90000000037},{""page_index"":3,""viewing_time"":5921.9000000003725},{""page_index"":4,""viewing_time"":6305.89999999851},{""page_index"":5,""viewing_time"":7943.5},{""page_index"":6,""viewing_time"":10011.900000000373},{""page_index"":7,""viewing_time"":30531.5},{""page_index"":8,""viewing_time"":7165.4000000003725},{""page_index"":9,""viewing_time"":20222.099999999627},{""page_index"":10,""viewing_time"":7680.5},{""page_index"":11,""viewing_time"":11532},{""page_index"":12,""viewing_time"":6127.800000000745},{""page_index"":13,""viewing_time"":5622.5}]","188085.29999999888","","","","","","","","","","","","","","","","","","","","","","","","",""
"pit-trial","8","208746","0.0-2.0-4.0-0.0","battery-v0.2","","""event"",""trial"",""time""
""fullscreenenter"",""1"",""3435""
","
","
","""event"",""trial"",""time""
""fullscreenenter"",""1"",""3435""
","
","","","685.8000000007451","","","21","1213","953","&#9784;","elianto","#FFFFF080"," "," ","1","&#10004","[1535.5999999996275]","1","0","0","","","","","","","","",""
"pit-trial","9","212944","0.0-2.0-4.1-0.1","battery-v0.2","","""event"",""trial"",""time""
""fullscreenenter"",""1"",""3435""
","
","
","""event"",""trial"",""time""
""fullscreenenter"",""1"",""3435""
","
","","","1341.800000000745","","","21","1213","953","&#9784;","elianto","#FFFFF080"," "," ","1","&#10004","[2191.7999999988824]","1","0","0","","","","","","","","",""
"pit-trial","10","216790","0.0-2.0-4.2-0.2","battery-v0.2","","""event"",""trial"",""time""
""fullscreenenter"",""1"",""3435""
","
","
","""event"",""trial"",""time""
""fullscreenenter"",""1"",""3435""
","
","","","987.4000000003725","","","21","1213","953","&#9784;","elianto","#FFFFF080"," "," ","1","&#10004","[1837.9000000003725]","1","0","0","","","","","","","","",""
"pit-trial","11","220459","0.0-2.0-4.3-0.3","battery-v0.2","","""event"",""trial"",""time""
""fullscreenenter"",""1"",""3435""
","
","
","""event"",""trial"",""time""
""fullscreenenter"",""1"",""3435""
","
","","","811.5","","","21","1213","953","&#9784;","elianto","#FFFFF080"," "," ","1","&#10004","[1661.7000000011176]","1","0","0","","","","","","","","",""
"pit-trial","12","224125","0.0-2.0-4.4-0.4","battery-v0.2","","""event"",""trial"",""time""
""fullscreenenter"",""1"",""3435""
","
","
","""event"",""trial"",""time""
""fullscreenenter"",""1"",""3435""
","
","","","806.9000000003725","","","21","1213","953","&#9784;","elianto","#FFFFF080"," "," ","1","&#10004","[1657.5999999996275]","1","0","0","","","","","","","","",""
"pit-instructions","13","249066","0.0-2.0-5.0","battery-v0.2","","""event"",""trial"",""time""
""fullscreenenter"",""1"",""3435""
","
","
","""event"",""trial"",""time""
""fullscreenenter"",""1"",""3435""
","
","","[{""page_index"":0,""viewing_time"":5336.699999999255},{""page_index"":1,""viewing_time"":5826.699999999255},{""page_index"":2,""viewing_time"":6946.5},{""page_index"":3,""viewing_time"":6825.10000000149}]","24935.39999999851","","","","","","","","","","","","","","","","","","","","","","","","",""
"pit-trial","14","253921","0.0-2.0-6.0-0.0","battery-v0.2","","""event"",""trial"",""time""
""fullscreenenter"",""1"",""3435""
","
","
","""event"",""trial"",""time""
""fullscreenenter"",""1"",""3435""
","
","","","-1","","","21","1213","953","&#9854;","elianto","#FFFFF080","-1","-1","1","&#10004","[]","0","0","1","","","","","","","","",""
"pit-trial","15","258781","0.0-2.0-6.1-0.1","battery-v0.2","","""event"",""trial"",""time""
""fullscreenenter"",""1"",""3435""
","
","
","""event"",""trial"",""time""
""fullscreenenter"",""1"",""3435""
","
","","","-1","","","21","1213","953","&#9854;","elianto","#FFFFF080","-1","-1","1","&#10004","[]","0","0","1","","","","","","","","",""
"pit-trial","16","263644","0.0-2.0-6.2-0.2","battery-v0.2","","""event"",""trial"",""time""
""fullscreenenter"",""1"",""3435""
","
","
","""event"",""trial"",""time""
""fullscreenenter"",""1"",""3435""
","
","","","-1","","","21","1213","953","&#9854;","elianto","#FFFFF080","-1","-1","1","&#10004","[]","0","0","1","","","","","","","","",""
"pit-trial","17","268503","0.0-2.0-6.3-0.3","battery-v0.2","","""event"",""trial"",""time""
""fullscreenenter"",""1"",""3435""
","
","
","""event"",""trial"",""time""
""fullscreenenter"",""1"",""3435""
","
","","","-1","","","21","1213","953","&#9854;","elianto","#FFFFF080","-1","-1","1","&#10004","[]","0","0","1","","","","","","","","",""
"pit-trial","18","273362","0.0-2.0-6.4-0.4","battery-v0.2","","""event"",""trial"",""time""
""fullscreenenter"",""1"",""3435""
","
","
","""event"",""trial"",""time""
""fullscreenenter"",""1"",""3435""
","
","","","-1","","","21","1213","953","&#9854;","elianto","#FFFFF080","-1","-1","1","&#10004","[]","0","0","1","","","","","","","","",""
"pit-instructions","19","414740","0.0-2.0-7.0","battery-v0.2","","""event"",""trial"",""time""
""fullscreenenter"",""1"",""3435""
","
","
","""event"",""trial"",""time""
""fullscreenenter"",""1"",""3435""
","
","","[{""page_index"":0,""viewing_time"":7536.0999999996275},{""page_index"":1,""viewing_time"":9028.599999999627},{""page_index"":2,""viewing_time"":7834},{""page_index"":3,""viewing_time"":7729.300000000745},{""page_index"":4,""viewing_time"":6008.4000000003725},{""page_index"":5,""viewing_time"":7053.799999998882},{""page_index"":6,""viewing_time"":7870.0999999996275},{""page_index"":7,""viewing_time"":9819.700000001118},{""page_index"":8,""viewing_time"":9286.199999999255},{""page_index"":9,""viewing_time"":7451.800000000745},{""page_index"":10,""viewing_time"":8909.699999999255},{""page_index"":11,""viewing_time"":6917.700000001118},{""page_index"":12,""viewing_time"":6892.199999999255},{""page_index"":13,""viewing_time"":8779},{""page_index"":14,""viewing_time"":8267.400000000373},{""page_index"":15,""viewing_time"":7054.0999999996275},{""page_index"":16,""viewing_time"":7050.0999999996275},{""page_index"":17,""viewing_time"":7881.800000000745}]","141370.40000000037","","","","","","","","","","","","","","","","","","","","","","","","",""
"pit-trial","20","418565","0.0-2.0-8.0-0.0","battery-v0.2","","""event"",""trial"",""time""
""fullscreenenter"",""1"",""3435""
","
","
","""event"",""trial"",""time""
""fullscreenenter"",""1"",""3435""
","
","","","967.5999999996275","","","21","1213","953","&#9776;","elianto","#3366ff99"," "," ","1","+10","[1818.4000000003725]","1","0","1","","","","","","","","",""
"pit-trial","21","422171","0.0-2.0-8.0-1.0","battery-v0.2","","""event"",""trial"",""time""
""fullscreenenter"",""1"",""3435""
","
","
","""event"",""trial"",""time""
""fullscreenenter"",""1"",""3435""
","
","","","749.5999999996275","","","21","1213","953","&#9776;","elianto","#3366ff99"," "," ","1","+10","[1599.5999999996275]","1","0","1","","","","","","","","",""
"pit-trial","22","425744","0.0-2.0-8.0-2.0","battery-v0.2","","""event"",""trial"",""time""
""fullscreenenter"",""1"",""3435""
","
","
","""event"",""trial"",""time""
""fullscreenenter"",""1"",""3435""
","
","","","717.5","","","21","1213","953","&#9776;","elianto","#3366ff99"," "," ","1","+10","[1568.5999999996275]","1","0","1","","","","","","","","",""
"pit-trial","23","429443","0.0-2.0-8.0-3.0","battery-v0.2","","""event"",""trial"",""time""
""fullscreenenter"",""1"",""3435""
","
","
","""event"",""trial"",""time""
""fullscreenenter"",""1"",""3435""
","
","","","842.9000000003725","","","21","1213","953","&#9776;","elianto","#3366ff99"," "," ","1","0","[1693]","1","0","1","","","","","","","","",""
"pit-trial","24","432864","0.0-2.0-8.0-4.0","battery-v0.2","","""event"",""trial"",""time""
""fullscreenenter"",""1"",""3435""
","
","
","""event"",""trial"",""time""
""fullscreenenter"",""1"",""3435""
","
","","","566.1999999992549","","","21","1213","953","&#9776;","elianto","#3366ff99"," "," ","1","+10","[1417.3999999985099]","1","0","1","","","","","","","","",""
"call-function","25","432867","0.0-2.0-9.0","battery-v0.2","","""event"",""trial"",""time""
""fullscreenenter"",""1"",""3435""
","
","
","""event"",""trial"",""time""
""fullscreenenter"",""1"",""3435""
","
","","","","","","","","","","","","","","","","","","","","","","","","","","","",""
"pit-instructions","26","476834","0.0-2.0-10.0","battery-v0.2","","""event"",""trial"",""time""
""fullscreenenter"",""1"",""3435""
","
","
","""event"",""trial"",""time""
""fullscreenenter"",""1"",""3435""
","
","","[{""page_index"":0,""viewing_time"":6903},{""page_index"":1,""viewing_time"":7998.9000000003725},{""page_index"":2,""viewing_time"":10131.199999999255},{""page_index"":3,""viewing_time"":10124.5},{""page_index"":4,""viewing_time"":8806.099999999627}]","43964.40000000037","","","","","","","","","","","","","","","","","","","","","","","","",""
"pit-trial","27","481692","0.0-2.0-11.0-0.0","battery-v0.2","","""event"",""trial"",""time""
""fullscreenenter"",""1"",""3435""
","
","
","""event"",""trial"",""time""
""fullscreenenter"",""1"",""3435""
","
","","","-1","","","21","1213","953","&#9761;","elianto","#3366ff99","-1","-1","1","+10","[]","0","0","2","","","","","","","","",""
"pit-trial","28","486555","0.0-2.0-11.0-1.0","battery-v0.2","","""event"",""trial"",""time""
""fullscreenenter"",""1"",""3435""
","
","
","""event"",""trial"",""time""
""fullscreenenter"",""1"",""3435""
","
","","","-1","","","21","1213","953","&#9761;","elianto","#3366ff99","-1","-1","1","+10","[]","0","0","2","","","","","","","","",""
"pit-trial","29","491415","0.0-2.0-11.0-2.0","battery-v0.2","","""event"",""trial"",""time""
""fullscreenenter"",""1"",""3435""
","
","
","""event"",""trial"",""time""
""fullscreenenter"",""1"",""3435""
","
","","","-1","","","21","1213","953","&#9761;","elianto","#3366ff99","-1","-1","1","+10","[]","0","0","2","","","","","","","","",""
"pit-trial","30","496274","0.0-2.0-11.0-3.0","battery-v0.2","","""event"",""trial"",""time""
""fullscreenenter"",""1"",""3435""
","
","
","""event"",""trial"",""time""
""fullscreenenter"",""1"",""3435""
","
","","","-1","","","21","1213","953","&#9761;","elianto","#3366ff99","-1","-1","1","0","[]","0","0","2","","","","","","","","",""
"pit-trial","31","501133","0.0-2.0-11.0-4.0","battery-v0.2","","""event"",""trial"",""time""
""fullscreenenter"",""1"",""3435""
","
","
","""event"",""trial"",""time""
""fullscreenenter"",""1"",""3435""
","
","","","-1","","","21","1213","953","&#9761;","elianto","#3366ff99","-1","-1","1","+10","[]","0","0","2","","","","","","","","",""
"call-function","32","501135","0.0-2.0-12.0","battery-v0.2","","""event"",""trial"",""time""
""fullscreenenter"",""1"",""3435""
","
","
","""event"",""trial"",""time""
""fullscreenenter"",""1"",""3435""
","
","","","","","","","","","","","","","","","","","","","","","","","","","","","",""
"pit-instructions","33","539851","0.0-2.0-13.0","battery-v0.2","","""event"",""trial"",""time""
""fullscreenenter"",""1"",""3435""
","
","
","""event"",""trial"",""time""
""fullscreenenter"",""1"",""3435""
","
","","[{""page_index"":0,""viewing_time"":5522.800000000745},{""page_index"":1,""viewing_time"":10274.89999999851},{""page_index"":2,""viewing_time"":6192.200000001118},{""page_index"":3,""viewing_time"":11530.699999999255},{""page_index"":4,""viewing_time"":5193.4000000003725}]","38714.5","","","","","","","","","","","","","","","","","","","","","","","","",""
"pit-trial","34","543475","0.0-2.0-14.0-0.0","battery-v0.2","","""event"",""trial"",""time""
""fullscreenenter"",""1"",""3435""
","
","
","""event"",""trial"",""time""
""fullscreenenter"",""1"",""3435""
","
","","","768.7999999988824","","","21","1213","953","&#9826;","elianto","#f73b6a7A","-1"," ","0","-10","[1619.0999999996275]","1","0","3","","","","","","","","",""
"pit-trial","35","548334","0.0-2.0-14.0-1.0","battery-v0.2","","""event"",""trial"",""time""
""fullscreenenter"",""1"",""3435""
","
","
","""event"",""trial"",""time""
""fullscreenenter"",""1"",""3435""
","
","","","-1","","","21","1213","953","&#9826;","elianto","#f73b6a7A","-1","-1","1","0","[]","0","0","3","","","","","","","","",""
"pit-trial","36","553189","0.0-2.0-14.0-2.0","battery-v0.2","","""event"",""trial"",""time""
""fullscreenenter"",""1"",""3435""
","
","
","""event"",""trial"",""time""
""fullscreenenter"",""1"",""3435""
","
","","","-1","","","21","1213","953","&#9826;","elianto","#f73b6a7A","-1","-1","1","0","[]","0","0","3","","","","","","","","",""
"pit-trial","37","558052","0.0-2.0-14.0-3.0","battery-v0.2","","""event"",""trial"",""time""
""fullscreenenter"",""1"",""3435""
","
","
","""event"",""trial"",""time""
""fullscreenenter"",""1"",""3435""
","
","","","-1","","","21","1213","953","&#9826;","elianto","#f73b6a7A","-1","-1","1","-10","[]","0","0","3","","","","","","","","",""
"pit-trial","38","562911","0.0-2.0-14.0-4.0","battery-v0.2","","""event"",""trial"",""time""
""fullscreenenter"",""1"",""3435""
","
","
","""event"",""trial"",""time""
""fullscreenenter"",""1"",""3435""
","
","","","-1","","","21","1213","953","&#9826;","elianto","#f73b6a7A","-1","-1","1","0","[]","0","0","3","","","","","","","","",""
"call-function","39","562913","0.0-2.0-15.0","battery-v0.2","","""event"",""trial"",""time""
""fullscreenenter"",""1"",""3435""
","
","
","""event"",""trial"",""time""
""fullscreenenter"",""1"",""3435""
","
","","","","","","","","","","","","","","","","","","","","","","","","","","","",""
"pit-instructions","40","594899","0.0-2.0-16.0","battery-v0.2","","""event"",""trial"",""time""
""fullscreenenter"",""1"",""3435""
","
","
","""event"",""trial"",""time""
""fullscreenenter"",""1"",""3435""
","
","","[{""page_index"":0,""viewing_time"":9774.200000001118},{""page_index"":1,""viewing_time"":10590.299999998882},{""page_index"":2,""viewing_time"":6183.10000000149},{""page_index"":3,""viewing_time"":5436.5999999996275}]","31984.700000001118","","","","","","","","","","","","","","","","","","","","","","","","",""
"pit-trial","41","599760","0.0-2.0-17.0-0.0","battery-v0.2","","""event"",""trial"",""time""
""fullscreenenter"",""1"",""3435""
","
","
","""event"",""trial"",""time""
""fullscreenenter"",""1"",""3435""
","
","","","-1","","","21","1213","953","&#9789;","elianto","#f73b6a7A"," ","-1","0","-10","[]","0","0","4","","","","","","","","",""
"pit-trial","42","603045","0.0-2.0-17.0-1.0","battery-v0.2","","""event"",""trial"",""time""
""fullscreenenter"",""1"",""3435""
","
","
","""event"",""trial"",""time""
""fullscreenenter"",""1"",""3435""
","
","","","427.30000000074506","","","21","1213","953","&#9789;","elianto","#f73b6a7A"," "," ","1","0","[1277.6000000014901,1391.300000000745,2850.9000000003725]","3","0","4","","","","","","","","",""
"pit-trial","43","605981","0.0-2.0-17.0-2.0","battery-v0.2","","""event"",""trial"",""time""
""fullscreenenter"",""1"",""3435""
","
","
","""event"",""trial"",""time""
""fullscreenenter"",""1"",""3435""
","
","","","81","","","21","1213","953","&#9789;","elianto","#f73b6a7A"," "," ","1","0","[355.30000000074506,750.6999999992549,931.9000000003725,1109.9000000003725]","4","0","4","","","","","","","","",""
"pit-trial","44","609041","0.0-2.0-17.0-3.0","battery-v0.2","","""event"",""trial"",""time""
""fullscreenenter"",""1"",""3435""
","
","
","""event"",""trial"",""time""
""fullscreenenter"",""1"",""3435""
","
","","","203.30000000074506","","","21","1213","953","&#9789;","elianto","#f73b6a7A"," "," ","1","-10","[1054.800000000745]","1","0","4","","","","","","","","",""
"pit-trial","45","612128","0.0-2.0-17.0-4.0","battery-v0.2","","""event"",""trial"",""time""
""fullscreenenter"",""1"",""3435""
","
","
","""event"",""trial"",""time""
""fullscreenenter"",""1"",""3435""
","
","","","229.60000000149012","","","21","1213","953","&#9789;","elianto","#f73b6a7A"," "," ","1","0","[1080.2000000011176]","1","0","4","","","","","","","","",""
"call-function","46","612130","0.0-2.0-18.0","battery-v0.2","","""event"",""trial"",""time""
""fullscreenenter"",""1"",""3435""
","
","
","""event"",""trial"",""time""
""fullscreenenter"",""1"",""3435""
","
","","","","","","","","","","","","","","","","","","","","","","","","","","","",""
"pit-instructions","47","690953","0.0-2.0-19.0","battery-v0.2","","""event"",""trial"",""time""
""fullscreenenter"",""1"",""3435""
","
","
","""event"",""trial"",""time""
""fullscreenenter"",""1"",""3435""
","
","","[{""page_index"":0,""viewing_time"":9853.199999999255},{""page_index"":1,""viewing_time"":6130.5999999996275},{""page_index"":2,""viewing_time"":13803.300000000745},{""page_index"":3,""viewing_time"":8156},{""page_index"":4,""viewing_time"":9261.699999999255},{""page_index"":5,""viewing_time"":9014.5},{""page_index"":6,""viewing_time"":9354.099999999627},{""page_index"":7,""viewing_time"":9229.400000000373},{""page_index"":8,""viewing_time"":4016.300000000745}]","78819.69999999925","","","","","","","","","","","","","","","","","","","","","","","","",""
"pit-comprehension","48","695439","0.0-2.0-20.0-0.0","battery-v0.2","","""event"",""trial"",""time""
""fullscreenenter"",""1"",""3435""
","
","
","""event"",""trial"",""time""
""fullscreenenter"",""1"",""3435""
","
","","","4480.300000000745","[""SPACE""]","0","21","1213","953","","","","","","","","","","","","","","","","","","","",""
"pit-instructions","49","698553","0.0-2.0-20.0-1.0","battery-v0.2","","""event"",""trial"",""time""
""fullscreenenter"",""1"",""3435""
","
","
","""event"",""trial"",""time""
""fullscreenenter"",""1"",""3435""
","
","","[{""page_index"":0,""viewing_time"":3089.9000000003725}]","3090.4000000003725","","","","","","","","","","","","","","","","","","","","","","","","",""
"pit-comprehension","50","703670","0.0-2.0-21.0-0.0","battery-v0.2","","""event"",""trial"",""time""
""fullscreenenter"",""1"",""3435""
","
","
","""event"",""trial"",""time""
""fullscreenenter"",""1"",""3435""
","
","","","5110.39999999851","[""10""]","0","21","1213","953","","","","","","","","","","","","","","","","","","","",""
"pit-instructions","51","708245","0.0-2.0-21.0-1.0","battery-v0.2","","""event"",""trial"",""time""
""fullscreenenter"",""1"",""3435""
","
","
","""event"",""trial"",""time""
""fullscreenenter"",""1"",""3435""
","
","","[{""page_index"":0,""viewing_time"":4550}]","4550.5","","","","","","","","","","","","","","","","","","","","","","","","",""
"pit-comprehension","52","714970","0.0-2.0-22.0-0.0","battery-v0.2","","""event"",""trial"",""time""
""fullscreenenter"",""1"",""3435""
","
","
","""event"",""trial"",""time""
""fullscreenenter"",""1"",""3435""
","
","","","6719","[""0""]","0","21","1213","953","","","","","","","","","","","","","","","","","","","",""
"pit-instructions","53","718529","0.0-2.0-22.0-1.0","battery-v0.2","","""event"",""trial"",""time""
""fullscreenenter"",""1"",""3435""
","
","
","""event"",""trial"",""time""
""fullscreenenter"",""1"",""3435""
","
","","[{""page_index"":0,""viewing_time"":3533.699999999255}]","3534.199999999255","","","","","","","","","","","","","","","","","","","","","","","","",""
"pit-comprehension","54","727484","0.0-2.0-23.0-0.0","battery-v0.2","","""event"",""trial"",""time""
""fullscreenenter"",""1"",""3435""
","
","
","""event"",""trial"",""time""
""fullscreenenter"",""1"",""3435""
","
","","","8948","[""True""]","0","21","1213","953","","","","","","","","","","","","","","","","","","","",""
"pit-instructions","55","729452","0.0-2.0-23.0-1.0","battery-v0.2","","""event"",""trial"",""time""
""fullscreenenter"",""1"",""3435""
","
","
","""event"",""trial"",""time""
""fullscreenenter"",""1"",""3435""
","
","","[{""page_index"":0,""viewing_time"":1943.5999999996275}]","1944.199999999255","","","","","","","","","","","","","","","","","","","","","","","","",""
"pit-comprehension","56","737328","0.0-2.0-24.0-0.0","battery-v0.2","","""event"",""trial"",""time""
""fullscreenenter"",""1"",""3435""
","
","
","""event"",""trial"",""time""
""fullscreenenter"",""1"",""3435""
","
","","","7869.39999999851","[""True""]","0","21","1213","953","","","","","","","","","","","","","","","","","","","",""
"pit-instructions","57","739039","0.0-2.0-24.0-1.0","battery-v0.2","","""event"",""trial"",""time""
""fullscreenenter"",""1"",""3435""
","
","
","""event"",""trial"",""time""
""fullscreenenter"",""1"",""3435""
","
","","[{""page_index"":0,""viewing_time"":1686.5}]","1686.9000000003725","","","","","","","","","","","","","","","","","","","","","","","","",""
"pit-comprehension","58","746150","0.0-2.0-25.0-0.0","battery-v0.2","","""event"",""trial"",""time""
""fullscreenenter"",""1"",""3435""
","
","
","""event"",""trial"",""time""
""fullscreenenter"",""1"",""3435""
","
","","","7104.0999999996275","[""True""]","0","21","1213","953","","","","","","","","","","","","","","","","","","","",""
"pit-instructions","59","747555","0.0-2.0-25.0-1.0","battery-v0.2","","""event"",""trial"",""time""
""fullscreenenter"",""1"",""3435""
","
","
","""event"",""trial"",""time""
""fullscreenenter"",""1"",""3435""
","
","","[{""page_index"":0,""viewing_time"":1380.3999999985099}]","1380.7999999988824","","","","","","","","","","","","","","","","","","","","","","","","",""
"pit-comprehension","60","752681","0.0-2.0-26.0-0.0","battery-v0.2","","""event"",""trial"",""time""
""fullscreenenter"",""1"",""3435""
","
","
","""event"",""trial"",""time""
""fullscreenenter"",""1"",""3435""
","
","","","5119.800000000745","[""False""]","0","21","1213","953","","","","","","","","","","","","","","","","","","","",""
"pit-instructions","61","753826","0.0-2.0-26.0-1.0","battery-v0.2","","""event"",""trial"",""time""
""fullscreenenter"",""1"",""3435""
","
","
","""event"",""trial"",""time""
""fullscreenenter"",""1"",""3435""
","
","","[{""page_index"":0,""viewing_time"":1119.199999999255}]","1119.5","","","","","","","","","","","","","","","","","","","","","","","","",""
"pit-instructions","62","769574","0.0-3.0","battery-v0.2","","""event"",""trial"",""time""
""fullscreenenter"",""1"",""3435""
","
","
","""event"",""trial"",""time""
""fullscreenenter"",""1"",""3435""
","
","","[{""page_index"":0,""viewing_time"":3871.0999999996275},{""page_index"":1,""viewing_time"":5487.9000000003725},{""page_index"":2,""viewing_time"":6384.799999998882}]","15744.599999999627","","","","","","","","","","","","","","","","","","","","","","","","",""
"pit-trial","63","773519","0.0-4.0","battery-v0.2","","""event"",""trial"",""time""
""fullscreenenter"",""1"",""3435""
","
","
","""event"",""trial"",""time""
""fullscreenenter"",""1"",""3435""
","
","","","1084.6000000014901","","","21","1213","953","&#9752;","elianto","#f73b6a7A"," "," ","1","0","[1935.9000000003725]","1","1","","","1213","1","3","3","lose","go","0","[]"
"pit-trial","64","777396","0.0-5.0","battery-v0.2","","""event"",""trial"",""time""
""fullscreenenter"",""1"",""3435""
","
","
","""event"",""trial"",""time""
""fullscreenenter"",""1"",""3435""
","
","","","1020.5","","","21","1213","953","&#9730;","elianto","#3366ff99"," "," ","1","+10","[1871.800000000745]","1","1","","","1213","2","1","1","win","go","0","0"
"pit-trial","65","781348","0.0-6.0","battery-v0.2","","""event"",""trial"",""time""
""fullscreenenter"",""1"",""3435""
","
","
","""event"",""trial"",""time""
""fullscreenenter"",""1"",""3435""
","
","","","1094.199999999255","","","21","1213","953","&#9728;","elianto","#f73b6a7A","-1"," ","0","-10","[1944.4000000003725]","1","1","","","1213","3","0","4","lose","no-go","0","0"
"pit-trial","66","784964","0.0-7.0","battery-v0.2","","""event"",""trial"",""time""
""fullscreenenter"",""1"",""3435""
","
","
","""event"",""trial"",""time""
""fullscreenenter"",""1"",""3435""
","
","","","758.4000000003725","","","21","1213","953","&#9733;","elianto","#3366ff99","-1"," ","0","0","[1609.300000000745]","1","1","","","1213","4","2","2","win","no-go","0","0"
"pit-trial","67","789210","0.0-8.0","battery-v0.2","","""event"",""trial"",""time""
""fullscreenenter"",""1"",""3435""
","
","
","""event"",""trial"",""time""
""fullscreenenter"",""1"",""3435""
","
","","","1390.199999999255","","","21","1213","953","&#9752;","elianto","#f73b6a7A"," "," ","1","0","[2241.7000000011176]","1","1","","","1213","5","3","3","lose","go","0","0"
"pit-trial","68","794069","0.0-9.0","battery-v0.2","","""event"",""trial"",""time""
""fullscreenenter"",""1"",""3435""
","
","
","""event"",""trial"",""time""
""fullscreenenter"",""1"",""3435""
","
","","","-1","","","21","1213","953","&#9730;","elianto","#3366ff99"," ","-1","0","0","[]","0","1","","","1213","6","1","1","win","go","0","0"
"pit-trial","69","797717","0.0-10.0","battery-v0.2","","""event"",""trial"",""time""
""fullscreenenter"",""1"",""3435""
","
","
","""event"",""trial"",""time""
""fullscreenenter"",""1"",""3435""
","
","","","788.4000000003725","","","21","1213","953","&#9733;","elianto","#3366ff99","-1"," ","0","0","[1639.9000000003725]","1","1","","","1213","7","2","2","win","no-go","0","0"
"pit-trial","70","802571","0.0-11.0","battery-v0.2","","""event"",""trial"",""time""
""fullscreenenter"",""1"",""3435""
","
","
","""event"",""trial"",""time""
""fullscreenenter"",""1"",""3435""
","
","","","-1","","","21","1213","953","&#9728;","elianto","#f73b6a7A","-1","-1","1","-10","[]","0","1","","","1213","8","0","4","lose","no-go","1","0"
"pit-trial","71","806155","0.0-12.0","battery-v0.2","","""event"",""trial"",""time""
""fullscreenenter"",""1"",""3435""
","
","
","""event"",""trial"",""time""
""fullscreenenter"",""1"",""3435""
","
","","","723.4000000003725","","","21","1213","953","&#9728;","elianto","#f73b6a7A","-1"," ","0","-10","[1576.300000000745]","1","1","","","1213","9","0","4","lose","no-go","0","0"
"pit-trial","72","809777","0.0-13.0","battery-v0.2","","""event"",""trial"",""time""
""fullscreenenter"",""1"",""3435""
","
","
","""event"",""trial"",""time""
""fullscreenenter"",""1"",""3435""
","
","","","762.9000000003725","","","21","1213","953","&#9733;","elianto","#3366ff99","-1"," ","0","0","[1614.800000000745]","1","1","","","1213","10","2","2","win","no-go","0","0"
"pit-trial","73","813782","0.0-14.0","battery-v0.2","","""event"",""trial"",""time""
""fullscreenenter"",""1"",""3435""
","
","
","""event"",""trial"",""time""
""fullscreenenter"",""1"",""3435""
","
","","","1149.2999999988824","","","21","1213","953","&#9752;","elianto","#f73b6a7A"," "," ","1","0","[1999.5]","1","1","","","1213","11","3","3","lose","go","0","0"
"pit-trial","74","817478","0.0-15.0","battery-v0.2","","""event"",""trial"",""time""
""fullscreenenter"",""1"",""3435""
","
","
","""event"",""trial"",""time""
""fullscreenenter"",""1"",""3435""
","
","","","839.8000000007451","","","21","1213","953","&#9730;","elianto","#3366ff99"," "," ","1","+10","[1690.199999999255]","1","1","","","1213","12","1","1","win","go","0","0"
"pit-trial","75","822337","0.0-16.0","battery-v0.2","","""event"",""trial"",""time""
""fullscreenenter"",""1"",""3435""
","
","
","""event"",""trial"",""time""
""fullscreenenter"",""1"",""3435""
","
","","","-1","","","21","1213","953","&#9728;","elianto","#f73b6a7A","-1","-1","1","0","[]","0","1","","","1213","13","0","4","lose","no-go","0","0"
"pit-trial","76","826587","0.0-17.0","battery-v0.2","","""event"",""trial"",""time""
""fullscreenenter"",""1"",""3435""
","
","
","""event"",""trial"",""time""
""fullscreenenter"",""1"",""3435""
","
","","","1395","","","21","1213","953","&#9752;","elianto","#f73b6a7A"," "," ","1","0","[2245.699999999255]","1","1","","","1213","14","3","3","lose","go","0","0"
"pit-trial","77","830904","0.0-18.0","battery-v0.2","","""event"",""trial"",""time""
""fullscreenenter"",""1"",""3435""
","
","
","""event"",""trial"",""time""
""fullscreenenter"",""1"",""3435""
","
","","","1459.2999999988824","","","21","1213","953","&#9730;","elianto","#3366ff99"," "," ","1","+10","[2310.0999999996275]","1","1","","","1213","15","1","1","win","go","0","0"
"pit-trial","78","835500","0.0-19.0","battery-v0.2","","""event"",""trial"",""time""
""fullscreenenter"",""1"",""3435""
","
","
","""event"",""trial"",""time""
""fullscreenenter"",""1"",""3435""
","
","","","1739.199999999255","","","21","1213","953","&#9733;","elianto","#3366ff99","-1"," ","0","0","[2589.9000000003725]","1","1","","","1213","16","2","2","win","no-go","0","0"
"pit-trial","79","838999","0.0-20.0","battery-v0.2","","""event"",""trial"",""time""
""fullscreenenter"",""1"",""3435""
","
","
","""event"",""trial"",""time""
""fullscreenenter"",""1"",""3435""
","
","","","643.6999999992549","","","21","1213","953","&#9730;","elianto","#3366ff99"," "," ","1","+10","[1493.9000000003725]","1","1","","","1213","17","1","1","win","go","0","0"
"pit-trial","80","843047","0.0-21.0","battery-v0.2","","""event"",""trial"",""time""
""fullscreenenter"",""1"",""3435""
","
","
","""event"",""trial"",""time""
""fullscreenenter"",""1"",""3435""
","
","","","1190","","","21","1213","953","&#9733;","elianto","#3366ff99","-1"," ","0","0","[2041.0999999996275]","1","1","","","1213","18","2","2","win","no-go","0","0"
"pit-trial","81","847906","0.0-22.0","battery-v0.2","","""event"",""trial"",""time""
""fullscreenenter"",""1"",""3435""
","
","
","""event"",""trial"",""time""
""fullscreenenter"",""1"",""3435""
","
","","","-1","","","21","1213","953","&#9728;","elianto","#f73b6a7A","-1","-1","1","0","[]","0","1","","","1213","19","0","4","lose","no-go","0","0"
"pit-trial","82","851730","0.0-23.0","battery-v0.2","","""event"",""trial"",""time""
""fullscreenenter"",""1"",""3435""
","
","
","""event"",""trial"",""time""
""fullscreenenter"",""1"",""3435""
","
","","","968.8000000007451","","","21","1213","953","&#9752;","elianto","#f73b6a7A"," "," ","1","0","[1819.2000000011176]","1","1","","","1213","20","3","3","lose","go","0","0"
"pit-instructions","83","864375","0.0-24.0","battery-v0.2","","""event"",""trial"",""time""
""fullscreenenter"",""1"",""3435""
","
","
","""event"",""trial"",""time""
""fullscreenenter"",""1"",""3435""
","
","","[{""page_index"":0,""viewing_time"":5864.39999999851},{""page_index"":1,""viewing_time"":6777.5}]","12642.299999998882","","","","","","","","","","","","","","","","","","","","","","","","",""
"pit-trial","84","868052","0.0-25.0","battery-v0.2","","""event"",""trial"",""time""
""fullscreenenter"",""1"",""3435""
","
","
","""event"",""trial"",""time""
""fullscreenenter"",""1"",""3435""
","
","","","818.1999999992549","","","21","1213","953","n","elianto","#f73b6a7A"," "," ","1","0","[1668.5999999996275]","1","2","","","1213","21","1","3","lose","go","0","0"
"pit-trial","85","871631","0.0-26.0","battery-v0.2","","""event"",""trial"",""time""
""fullscreenenter"",""1"",""3435""
","
","
","""event"",""trial"",""time""
""fullscreenenter"",""1"",""3435""
","
","","","721.8000000007451","","","21","1213","953","q","elianto","#3366ff99","-1"," ","0","0","[1573.7000000011176]","1","2","","","1213","22","0","2","win","no-go","0","0"
"pit-trial","86","876490","0.0-27.0","battery-v0.2","","""event"",""trial"",""time""
""fullscreenenter"",""1"",""3435""
","
","
","""event"",""trial"",""time""
""fullscreenenter"",""1"",""3435""
","
","","","-1","","","21","1213","953","f","elianto","#f73b6a7A","-1","-1","1","0","[]","0","2","","","1213","23","2","4","lose","no-go","0","0"
"pit-trial","87","880435","0.0-28.0","battery-v0.2","","""event"",""trial"",""time""
""fullscreenenter"",""1"",""3435""
","
","
","""event"",""trial"",""time""
""fullscreenenter"",""1"",""3435""
","
","","","1088.7999999988824","","","21","1213","953","x","elianto","#3366ff99"," "," ","1","+10","[1939.7999999988824]","1","2","","","1213","24","3","1","win","go","0","0"
"pit-trial","88","885295","0.0-29.0","battery-v0.2","","""event"",""trial"",""time""
""fullscreenenter"",""1"",""3435""
","
","
","""event"",""trial"",""time""
""fullscreenenter"",""1"",""3435""
","
","","","-1","","","21","1213","953","f","elianto","#f73b6a7A","-1","-1","1","-10","[]","0","2","","","1213","25","2","4","lose","no-go","1","0"
"pit-trial","89","889151","0.0-30.0","battery-v0.2","","""event"",""trial"",""time""
""fullscreenenter"",""1"",""3435""
","
","
","""event"",""trial"",""time""
""fullscreenenter"",""1"",""3435""
","
","","","1001.7999999988824","","","21","1213","953","x","elianto","#3366ff99"," "," ","1","+10","[1852.2999999988824]","1","2","","","1213","26","3","1","win","go","0","0"
"pit-trial","90","894010","0.0-31.0","battery-v0.2","","""event"",""trial"",""time""
""fullscreenenter"",""1"",""3435""
","
","
","""event"",""trial"",""time""
""fullscreenenter"",""1"",""3435""
","
","","","-1","","","21","1213","953","n","elianto","#f73b6a7A"," ","-1","0","-10","[]","0","2","","","1213","27","1","3","lose","go","0","0"
"pit-trial","91","897376","0.0-32.0","battery-v0.2","","""event"",""trial"",""time""
""fullscreenenter"",""1"",""3435""
","
","
","""event"",""trial"",""time""
""fullscreenenter"",""1"",""3435""
","
","","","507.59999999962747","","","21","1213","953","q","elianto","#3366ff99","-1"," ","0","0","[1359]","1","2","","","1213","28","0","2","win","no-go","0","0"
"pit-trial","92","900806","0.0-33.0","battery-v0.2","","""event"",""trial"",""time""
""fullscreenenter"",""1"",""3435""
","
","
","""event"",""trial"",""time""
""fullscreenenter"",""1"",""3435""
","
","","","572.0999999996275","","","21","1213","953","x","elianto","#3366ff99"," "," ","1","+10","[1424.3999999985099]","1","2","","","1213","29","3","1","win","go","0","0"
"pit-trial","93","904177","0.0-34.0","battery-v0.2","","""event"",""trial"",""time""
""fullscreenenter"",""1"",""3435""
","
","
","""event"",""trial"",""time""
""fullscreenenter"",""1"",""3435""
","
","","","513.7999999988824","","","21","1213","953","q","elianto","#3366ff99","-1"," ","0","0","[1364.5]","1","2","","","1213","30","0","2","win","no-go","0","0"
"pit-trial","94","908022","0.0-35.0","battery-v0.2","","""event"",""trial"",""time""
""fullscreenenter"",""1"",""3435""
","
","
","""event"",""trial"",""time""
""fullscreenenter"",""1"",""3435""
","
","","","986.0999999996275","","","21","1213","953","n","elianto","#f73b6a7A"," "," ","1","0","[1836.9000000003725]","1","2","","","1213","31","1","3","lose","go","0","0"
"pit-trial","95","912753","0.0-36.0","battery-v0.2","","""event"",""trial"",""time""
""fullscreenenter"",""1"",""3435""
","
","
","""event"",""trial"",""time""
""fullscreenenter"",""1"",""3435""
","
","","","1873.4000000003725","","","21","1213","953","f","elianto","#f73b6a7A","-1"," ","0","0","[2724.10000000149]","1","2","","","1213","32","2","4","lose","no-go","1","0"
"pit-trial","96","917607","0.0-37.0","battery-v0.2","","""event"",""trial"",""time""
""fullscreenenter"",""1"",""3435""
","
","
","""event"",""trial"",""time""
""fullscreenenter"",""1"",""3435""
","
","","","-1","","","21","1213","953","x","elianto","#3366ff99"," ","-1","0","0","[]","0","2","","","1213","33","3","1","win","go","0","0"
"pit-trial","97","921350","0.0-38.0","battery-v0.2","","""event"",""trial"",""time""
""fullscreenenter"",""1"",""3435""
","
","
","""event"",""trial"",""time""
""fullscreenenter"",""1"",""3435""
","
","","","890.4000000003725","","","21","1213","953","f","elianto","#f73b6a7A","-1"," ","0","0","[1740.5999999996275]","1","2","","","1213","34","2","4","lose","no-go","1","0"
"pit-trial","98","925010","0.0-39.0","battery-v0.2","","""event"",""trial"",""time""
""fullscreenenter"",""1"",""3435""
","
","
","""event"",""trial"",""time""
""fullscreenenter"",""1"",""3435""
","
","","","805.5999999996275","","","21","1213","953","q","elianto","#3366ff99","-1"," ","0","0","[1656.0999999996275]","1","2","","","1213","35","0","2","win","no-go","0","0"
"pit-trial","99","928758","0.0-40.0","battery-v0.2","","""event"",""trial"",""time""
""fullscreenenter"",""1"",""3435""
","
","
","""event"",""trial"",""time""
""fullscreenenter"",""1"",""3435""
","
","","","893","","","21","1213","953","n","elianto","#f73b6a7A"," "," ","1","0","[1743.4000000003725]","1","2","","","1213","36","1","3","lose","go","0","0"
"pit-trial","100","932625","0.0-41.0","battery-v0.2","","""event"",""trial"",""time""
""fullscreenenter"",""1"",""3435""
","
","
","""event"",""trial"",""time""
""fullscreenenter"",""1"",""3435""
","
","","","1011.0999999996275","","","21","1213","953","x","elianto","#3366ff99"," "," ","1","+10","[1862.0999999996275]","1","2","","","1213","37","3","1","win","go","0","0"
"pit-trial","101","936588","0.0-42.0","battery-v0.2","","""event"",""trial"",""time""
""fullscreenenter"",""1"",""3435""
","
","
","""event"",""trial"",""time""
""fullscreenenter"",""1"",""3435""
","
","","","1109","","","21","1213","953","q","elianto","#3366ff99","-1"," ","0","+10","[1960]","1","2","","","1213","38","0","2","win","no-go","1","0"
"pit-trial","102","940263","0.0-43.0","battery-v0.2","","""event"",""trial"",""time""
""fullscreenenter"",""1"",""3435""
","
","
","""event"",""trial"",""time""
""fullscreenenter"",""1"",""3435""
","
","","","816.2000000011176","","","21","1213","953","n","elianto","#f73b6a7A"," "," ","1","0","[1667.1000000014901]","1","2","","","1213","39","1","3","lose","go","0","0"
"pit-trial","103","945122","0.0-44.0","battery-v0.2","","""event"",""trial"",""time""
""fullscreenenter"",""1"",""3435""
","
","
","""event"",""trial"",""time""
""fullscreenenter"",""1"",""3435""
","
","","","-1","","","21","1213","953","f","elianto","#f73b6a7A","-1","-1","1","-10","[]","0","2","","","1213","40","2","4","lose","no-go","1","0"
"pit-trial","104","948567","0.0-45.0","battery-v0.2","","""event"",""trial"",""time""
""fullscreenenter"",""1"",""3435""
","
","
","""event"",""trial"",""time""
""fullscreenenter"",""1"",""3435""
","
","","","589.9000000003725","","","21","1213","953","q","elianto","#3366ff99","-1"," ","0","0","[1441.2000000011176,1717]","2","2","","","1213","41","0","2","win","no-go","0","0"
"pit-trial","105","951959","0.0-46.0","battery-v0.2","","""event"",""trial"",""time""
""fullscreenenter"",""1"",""3435""
","
","
","""event"",""trial"",""time""
""fullscreenenter"",""1"",""3435""
","
","","","535.3000000007451","","","21","1213","953","x","elianto","#3366ff99"," "," ","1","+10","[1386.699999999255]","1","2","","","1213","42","3","1","win","go","0","0"
"pit-trial","106","955575","0.0-47.0","battery-v0.2","","""event"",""trial"",""time""
""fullscreenenter"",""1"",""3435""
","
","
","""event"",""trial"",""time""
""fullscreenenter"",""1"",""3435""
","
","","","762.5999999996275","","","21","1213","953","n","elianto","#f73b6a7A"," "," ","1","0","[1612.7999999988824]","1","2","","","1213","43","1","3","lose","go","0","0"
"pit-trial","107","959063","0.0-48.0","battery-v0.2","","""event"",""trial"",""time""
""fullscreenenter"",""1"",""3435""
","
","
","""event"",""trial"",""time""
""fullscreenenter"",""1"",""3435""
","
","","","632.4000000003725","","","21","1213","953","f","elianto","#f73b6a7A","-1"," ","0","0","[1483.0999999996275]","1","2","","","1213","44","2","4","lose","no-go","1","0"
"pit-trial","108","962852","0.0-49.0","battery-v0.2","","""event"",""trial"",""time""
""fullscreenenter"",""1"",""3435""
","
","
","""event"",""trial"",""time""
""fullscreenenter"",""1"",""3435""
","
","","","932.8000000007451","","","21","1213","953","n","elianto","#f73b6a7A"," "," ","1","0","[1783.300000000745]","1","2","","","1213","45","1","3","lose","go","0","0"
"pit-trial","109","966562","0.0-50.0","battery-v0.2","","""event"",""trial"",""time""
""fullscreenenter"",""1"",""3435""
","
","
","""event"",""trial"",""time""
""fullscreenenter"",""1"",""3435""
","
","","","855.3999999985099","","","21","1213","953","q","elianto","#3366ff99","-1"," ","0","0","[1706.2999999988824]","1","2","","","1213","46","0","2","win","no-go","0","0"
"pit-trial","110","970178","0.0-51.0","battery-v0.2","","""event"",""trial"",""time""
""fullscreenenter"",""1"",""3435""
","
","
","""event"",""trial"",""time""
""fullscreenenter"",""1"",""3435""
","
","","","761.0999999996275","","","21","1213","953","f","elianto","#f73b6a7A","-1"," ","0","0","[1611.5]","1","2","","","1213","47","2","4","lose","no-go","1","0"
"pit-trial","111","973741","0.0-52.0","battery-v0.2","","""event"",""trial"",""time""
""fullscreenenter"",""1"",""3435""
","
","
","""event"",""trial"",""time""
""fullscreenenter"",""1"",""3435""
","
","","","706.5","","","21","1213","953","x","elianto","#3366ff99"," "," ","1","0","[1557]","1","2","","","1213","48","3","1","win","go","1","0"
"pit-trial","112","977243","0.0-53.0","battery-v0.2","","""event"",""trial"",""time""
""fullscreenenter"",""1"",""3435""
","
","
","""event"",""trial"",""time""
""fullscreenenter"",""1"",""3435""
","
","","","646.0999999996275","","","21","1213","953","f","elianto","#f73b6a7A","-1"," ","0","0","[1497.699999999255]","1","2","","","1213","49","2","4","lose","no-go","1","0"
"pit-trial","113","980776","0.0-54.0","battery-v0.2","","""event"",""trial"",""time""
""fullscreenenter"",""1"",""3435""
","
","
","""event"",""trial"",""time""
""fullscreenenter"",""1"",""3435""
","
","","","676.9000000003725","","","21","1213","953","n","elianto","#f73b6a7A"," "," ","1","-10","[1527.300000000745]","1","2","","","1213","50","1","3","lose","go","1","0"
"pit-trial","114","984125","0.0-55.0","battery-v0.2","","""event"",""trial"",""time""
""fullscreenenter"",""1"",""3435""
","
","
","""event"",""trial"",""time""
""fullscreenenter"",""1"",""3435""
","
","","","492.80000000074506","","","21","1213","953","x","elianto","#3366ff99"," "," ","1","+10","[37.19999999925494,1342.9000000003725]","2","2","","","1213","51","3","1","win","go","0","0"
"pit-trial","115","988067","0.0-56.0","battery-v0.2","","""event"",""trial"",""time""
""fullscreenenter"",""1"",""3435""
","
","
","""event"",""trial"",""time""
""fullscreenenter"",""1"",""3435""
","
","","","1082.5","","","21","1213","953","q","elianto","#3366ff99","-1"," ","0","+10","[1933.5]","1","2","","","1213","52","0","2","win","no-go","1","0"
"pit-trial","116","991939","0.0-57.0","battery-v0.2","","""event"",""trial"",""time""
""fullscreenenter"",""1"",""3435""
","
","
","""event"",""trial"",""time""
""fullscreenenter"",""1"",""3435""
","
","","","1016.3000000007451","","","21","1213","953","n","elianto","#f73b6a7A"," "," ","1","0","[1866.6000000014901]","1","2","","","1213","53","1","3","lose","go","0","0"
"pit-trial","117","995630","0.0-58.0","battery-v0.2","","""event"",""trial"",""time""
""fullscreenenter"",""1"",""3435""
","
","
","""event"",""trial"",""time""
""fullscreenenter"",""1"",""3435""
","
","","","835.0999999996275","","","21","1213","953","f","elianto","#f73b6a7A","-1"," ","0","-10","[1685.699999999255]","1","2","","","1213","54","2","4","lose","no-go","0","0"
"pit-trial","118","999993","0.0-59.0","battery-v0.2","","""event"",""trial"",""time""
""fullscreenenter"",""1"",""3435""
","
","
","""event"",""trial"",""time""
""fullscreenenter"",""1"",""3435""
","
","","","1506.6000000014901","","","21","1213","953","b","elianto","#f73b6a7A","-1"," ","0","-10","[2356.9000000003725]","1","2","","","1213","55","5","4","lose","no-go","0","0"
"pit-trial","119","1004601","0.0-60.0","battery-v0.2","","""event"",""trial"",""time""
""fullscreenenter"",""1"",""3435""
","
","
","""event"",""trial"",""time""
""fullscreenenter"",""1"",""3435""
","
","","","1750.699999999255","","","21","1213","953","t","elianto","#f73b6a7A"," "," ","1","0","[2601.9000000003725]","1","2","","","1213","56","4","3","lose","go","0","0"
"pit-trial","120","1009460","0.0-61.0","battery-v0.2","","""event"",""trial"",""time""
""fullscreenenter"",""1"",""3435""
","
","
","""event"",""trial"",""time""
""fullscreenenter"",""1"",""3435""
","
","","","-1","","","21","1213","953","f","elianto","#f73b6a7A","-1","-1","1","0","[]","0","2","","","1213","57","2","4","lose","no-go","0","0"
"pit-trial","121","1013934","0.0-62.0","battery-v0.2","","""event"",""trial"",""time""
""fullscreenenter"",""1"",""3435""
","
","
","""event"",""trial"",""time""
""fullscreenenter"",""1"",""3435""
","
","","","1616.2999999988824","","","21","1213","953","t","elianto","#f73b6a7A"," "," ","1","0","[2466.5]","1","2","","","1213","58","4","3","lose","go","0","0"
"pit-trial","122","1018793","0.0-63.0","battery-v0.2","","""event"",""trial"",""time""
""fullscreenenter"",""1"",""3435""
","
","
","""event"",""trial"",""time""
""fullscreenenter"",""1"",""3435""
","
","","","-1","","","21","1213","953","b","elianto","#f73b6a7A","-1","-1","1","0","[]","0","2","","","1213","59","5","4","lose","no-go","0","0"
"pit-trial","123","1022836","0.0-64.0","battery-v0.2","","""event"",""trial"",""time""
""fullscreenenter"",""1"",""3435""
","
","
","""event"",""trial"",""time""
""fullscreenenter"",""1"",""3435""
","
","","","1186.300000000745","","","21","1213","953","n","elianto","#f73b6a7A"," "," ","1","0","[2037]","1","2","","","1213","60","1","3","lose","go","0","0"
"pit-trial","124","1026606","0.0-65.0","battery-v0.2","","""event"",""trial"",""time""
""fullscreenenter"",""1"",""3435""
","
","
","""event"",""trial"",""time""
""fullscreenenter"",""1"",""3435""
","
","","","915.0999999996275","","","21","1213","953","c","elianto","#3366ff99","-1"," ","0","0","[1765.9000000003725]","1","2","","","1213","61","6","2","win","no-go","0","0"
"pit-trial","125","1030564","0.0-66.0","battery-v0.2","","""event"",""trial"",""time""
""fullscreenenter"",""1"",""3435""
","
","
","""event"",""trial"",""time""
""fullscreenenter"",""1"",""3435""
","
","","","1096","","","21","1213","953","t","elianto","#f73b6a7A"," "," ","1","0","[1950.2000000011176]","1","2","","","1213","62","4","3","lose","go","0","0"
"pit-trial","126","1035423","0.0-67.0","battery-v0.2","","""event"",""trial"",""time""
""fullscreenenter"",""1"",""3435""
","
","
","""event"",""trial"",""time""
""fullscreenenter"",""1"",""3435""
","
","","","-1","","","21","1213","953","f","elianto","#f73b6a7A","-1","-1","1","0","[]","0","2","","","1213","63","2","4","lose","no-go","0","0"
"pit-trial","127","1038937","0.0-68.0","battery-v0.2","","""event"",""trial"",""time""
""fullscreenenter"",""1"",""3435""
","
","
","""event"",""trial"",""time""
""fullscreenenter"",""1"",""3435""
","
","","","661.3000000007451","","","21","1213","953","b","elianto","#f73b6a7A","-1"," ","0","-10","[1512.2000000011176]","1","2","","","1213","64","5","4","lose","no-go","0","0"
"pit-trial","128","1042441","0.0-69.0","battery-v0.2","","""event"",""trial"",""time""
""fullscreenenter"",""1"",""3435""
","
","
","""event"",""trial"",""time""
""fullscreenenter"",""1"",""3435""
","
","","","645.9000000003725","","","21","1213","953","b","elianto","#f73b6a7A","-1"," ","0","0","[1497]","1","2","","","1213","65","5","4","lose","no-go","1","0"
"pit-trial","129","1047300","0.0-70.0","battery-v0.2","","""event"",""trial"",""time""
""fullscreenenter"",""1"",""3435""
","
","
","""event"",""trial"",""time""
""fullscreenenter"",""1"",""3435""
","
","","","-1","","","21","1213","953","f","elianto","#f73b6a7A","-1","-1","1","-10","[]","0","2","","","1213","66","2","4","lose","no-go","1","0"
"pit-trial","130","1050965","0.0-71.0","battery-v0.2","","""event"",""trial"",""time""
""fullscreenenter"",""1"",""3435""
","
","
","""event"",""trial"",""time""
""fullscreenenter"",""1"",""3435""
","
","","","810.5","","","21","1213","953","c","elianto","#3366ff99","-1"," ","0","0","[1661.5999999996275]","1","2","","","1213","67","6","2","win","no-go","0","0"
"pit-trial","131","1055823","0.0-72.0","battery-v0.2","","""event"",""trial"",""time""
""fullscreenenter"",""1"",""3435""
","
","
","""event"",""trial"",""time""
""fullscreenenter"",""1"",""3435""
","
","","","-1","","","21","1213","953","t","elianto","#f73b6a7A"," ","-1","0","-10","[]","0","2","","","1213","68","4","3","lose","go","0","0"
"pit-trial","132","1059941","0.0-73.0","battery-v0.2","","""event"",""trial"",""time""
""fullscreenenter"",""1"",""3435""
","
","
","""event"",""trial"",""time""
""fullscreenenter"",""1"",""3435""
","
","","","1260.9000000003725","","","21","1213","953","b","elianto","#f73b6a7A","-1"," ","0","-10","[2112.4000000003725]","1","2","","","1213","69","5","4","lose","no-go","0","0"
"pit-trial","133","1063599","0.0-74.0","battery-v0.2","","""event"",""trial"",""time""
""fullscreenenter"",""1"",""3435""
","
","
","""event"",""trial"",""time""
""fullscreenenter"",""1"",""3435""
","
","","","803.2000000011176","","","21","1213","953","c","elianto","#3366ff99","-1"," ","0","0","[1653.4000000003725]","1","2","","","1213","70","6","2","win","no-go","0","0"
"pit-trial","134","1067018","0.0-75.0","battery-v0.2","","""event"",""trial"",""time""
""fullscreenenter"",""1"",""3435""
","
","
","""event"",""trial"",""time""
""fullscreenenter"",""1"",""3435""
","
","","","562.0999999996275","","","21","1213","953","z","elianto","#3366ff99"," "," ","1","+10","[1413]","1","2","","","1213","71","7","1","win","go","0","0"
"pit-trial","135","1070720","0.0-76.0","battery-v0.2","","""event"",""trial"",""time""
""fullscreenenter"",""1"",""3435""
","
","
","""event"",""trial"",""time""
""fullscreenenter"",""1"",""3435""
","
","","","845.5","","","21","1213","953","t","elianto","#f73b6a7A"," "," ","1","0","[1695.800000000745]","1","2","","","1213","72","4","3","lose","go","0","0"
"pit-trial","136","1075579","0.0-77.0","battery-v0.2","","""event"",""trial"",""time""
""fullscreenenter"",""1"",""3435""
","
","
","""event"",""trial"",""time""
""fullscreenenter"",""1"",""3435""
","
","","","-1","","","21","1213","953","c","elianto","#3366ff99","-1","-1","1","+10","[]","0","2","","","1213","73","6","2","win","no-go","0","0"
"pit-trial","137","1079182","0.0-78.0","battery-v0.2","","""event"",""trial"",""time""
""fullscreenenter"",""1"",""3435""
","
","
","""event"",""trial"",""time""
""fullscreenenter"",""1"",""3435""
","
","","","745.5999999996275","","","21","1213","953","t","elianto","#f73b6a7A"," "," ","1","0","[1596.9000000003725]","1","2","","","1213","74","4","3","lose","go","0","0"
"pit-trial","138","1084043","0.0-79.0","battery-v0.2","","""event"",""trial"",""time""
""fullscreenenter"",""1"",""3435""
","
","
","""event"",""trial"",""time""
""fullscreenenter"",""1"",""3435""
","
","","","-1","","","21","1213","953","b","elianto","#f73b6a7A","-1","-1","1","0","[3535.0999999996275]","1","2","","","1213","75","5","4","lose","no-go","0","0"
"pit-trial","139","1088443","0.0-80.0","battery-v0.2","","""event"",""trial"",""time""
""fullscreenenter"",""1"",""3435""
","
","
","""event"",""trial"",""time""
""fullscreenenter"",""1"",""3435""
","
","","","1545.0999999996275","","","21","1213","953","z","elianto","#3366ff99"," "," ","1","+10","[2395.2000000011176]","1","2","","","1213","76","7","1","win","go","0","0"
"pit-trial","140","1092038","0.0-81.0","battery-v0.2","","""event"",""trial"",""time""
""fullscreenenter"",""1"",""3435""
","
","
","""event"",""trial"",""time""
""fullscreenenter"",""1"",""3435""
","
","","","734.5999999996275","","","21","1213","953","t","elianto","#f73b6a7A"," "," ","1","-10","[1588.699999999255]","1","2","","","1213","77","4","3","lose","go","1","0"
"pit-trial","141","1095542","0.0-82.0","battery-v0.2","","""event"",""trial"",""time""
""fullscreenenter"",""1"",""3435""
","
","
","""event"",""trial"",""time""
""fullscreenenter"",""1"",""3435""
","
","","","645.8000000007451","","","21","1213","953","z","elianto","#3366ff99"," "," ","1","+10","[1496.2000000011176]","1","2","","","1213","78","7","1","win","go","0","0"
"pit-trial","142","1100384","0.0-83.0","battery-v0.2","","""event"",""trial"",""time""
""fullscreenenter"",""1"",""3435""
","
","
","""event"",""trial"",""time""
""fullscreenenter"",""1"",""3435""
","
","","","1988.199999999255","","","21","1213","953","b","elianto","#f73b6a7A","-1"," ","0","-10","[2838.800000000745]","1","2","","","1213","79","5","4","lose","no-go","0","0"
"pit-trial","143","1103771","0.0-84.0","battery-v0.2","","""event"",""trial"",""time""
""fullscreenenter"",""1"",""3435""
","
","
","""event"",""trial"",""time""
""fullscreenenter"",""1"",""3435""
","
","","","529.6999999992549","","","21","1213","953","c","elianto","#3366ff99","-1"," ","0","0","[1380.199999999255]","1","2","","","1213","80","6","2","win","no-go","0","0"
"pit-trial","144","1108630","0.0-85.0","battery-v0.2","","""event"",""trial"",""time""
""fullscreenenter"",""1"",""3435""
","
","
","""event"",""trial"",""time""
""fullscreenenter"",""1"",""3435""
","
","","","-1","","","21","1213","953","t","elianto","#f73b6a7A"," ","-1","0","-10","[4507.5999999996275,4571.800000000745,4683.800000000745,4774]","4","2","","","1213","81","4","3","lose","go","0","0"
"pit-trial","145","1112006","0.0-86.0","battery-v0.2","","""event"",""trial"",""time""
""fullscreenenter"",""1"",""3435""
","
","
","""event"",""trial"",""time""
""fullscreenenter"",""1"",""3435""
","
","","","521.6000000014901","","","21","1213","953","z","elianto","#3366ff99"," "," ","1","+10","[1372.5]","1","2","","","1213","82","7","1","win","go","0","0"
"pit-trial","146","1116866","0.0-87.0","battery-v0.2","","""event"",""trial"",""time""
""fullscreenenter"",""1"",""3435""
","
","
","""event"",""trial"",""time""
""fullscreenenter"",""1"",""3435""
","
","","","-1","","","21","1213","953","b","elianto","#f73b6a7A","-1","-1","1","0","[]","0","2","","","1213","83","5","4","lose","no-go","0","0"
"pit-trial","147","1120433","0.0-88.0","battery-v0.2","","""event"",""trial"",""time""
""fullscreenenter"",""1"",""3435""
","
","
","""event"",""trial"",""time""
""fullscreenenter"",""1"",""3435""
","
","","","710.6999999992549","","","21","1213","953","c","elianto","#3366ff99","-1"," ","0","0","[1560.699999999255]","1","2","","","1213","84","6","2","win","no-go","0","0"
"pit-trial","148","1125292","0.0-89.0","battery-v0.2","","""event"",""trial"",""time""
""fullscreenenter"",""1"",""3435""
","
","
","""event"",""trial"",""time""
""fullscreenenter"",""1"",""3435""
","
","","","-1","","","21","1213","953","c","elianto","#3366ff99","-1","-1","1","+10","[]","0","2","","","1213","85","6","2","win","no-go","0","0"
"pit-trial","149","1129041","0.0-90.0","battery-v0.2","","""event"",""trial"",""time""
""fullscreenenter"",""1"",""3435""
","
","
","""event"",""trial"",""time""
""fullscreenenter"",""1"",""3435""
","
","","","890.2000000011176","","","21","1213","953","t","elianto","#f73b6a7A"," "," ","1","0","[1742.0999999996275,1984.800000000745]","2","2","","","1213","86","4","3","lose","go","0","0"
"pit-trial","150","1132983","0.0-91.0","battery-v0.2","","""event"",""trial"",""time""
""fullscreenenter"",""1"",""3435""
","
","
","""event"",""trial"",""time""
""fullscreenenter"",""1"",""3435""
","
","","","1084.2999999988824","","","21","1213","953","z","elianto","#3366ff99"," "," ","1","0","[1935.9000000003725]","1","2","","","1213","87","7","1","win","go","1","0"
"pit-trial","151","1137841","0.0-92.0","battery-v0.2","","""event"",""trial"",""time""
""fullscreenenter"",""1"",""3435""
","
","
","""event"",""trial"",""time""
""fullscreenenter"",""1"",""3435""
","
","","","-1","","","21","1213","953","b","elianto","#f73b6a7A","-1","-1","1","0","[]","0","2","","","1213","88","5","4","lose","no-go","0","0"
"pit-trial","152","1141654","0.0-93.0","battery-v0.2","","""event"",""trial"",""time""
""fullscreenenter"",""1"",""3435""
","
","
","""event"",""trial"",""time""
""fullscreenenter"",""1"",""3435""
","
","","","956.6000000014901","","","21","1213","953","t","elianto","#f73b6a7A"," "," ","1","0","[1807.0999999996275]","1","2","","","1213","89","4","3","lose","go","0","0"
"pit-trial","153","1146514","0.0-94.0","battery-v0.2","","""event"",""trial"",""time""
""fullscreenenter"",""1"",""3435""
","
","
","""event"",""trial"",""time""
""fullscreenenter"",""1"",""3435""
","
","","","-1","","","21","1213","953","b","elianto","#f73b6a7A","-1","-1","1","-10","[]","0","2","","","1213","90","5","4","lose","no-go","1","0"
"pit-trial","154","1151372","0.0-95.0","battery-v0.2","","""event"",""trial"",""time""
""fullscreenenter"",""1"",""3435""
","
","
","""event"",""trial"",""time""
""fullscreenenter"",""1"",""3435""
","
","","","-1","","","21","1213","953","z","elianto","#3366ff99"," ","-1","0","0","[]","0","2","","","1213","91","7","1","win","go","0","0"
"pit-trial","155","1156231","0.0-96.0","battery-v0.2","","""event"",""trial"",""time""
""fullscreenenter"",""1"",""3435""
","
","
","""event"",""trial"",""time""
""fullscreenenter"",""1"",""3435""
","
","","","-1","","","21","1213","953","c","elianto","#3366ff99","-1","-1","1","0","[]","0","2","","","1213","92","6","2","win","no-go","1","0"
"pit-trial","156","1161085","0.0-97.0","battery-v0.2","","""event"",""trial"",""time""
""fullscreenenter"",""1"",""3435""
","
","
","""event"",""trial"",""time""
""fullscreenenter"",""1"",""3435""
","
","","","-1","","","21","1213","953","c","elianto","#3366ff99","-1","-1","1","+10","[]","0","2","","","1213","93","6","2","win","no-go","0","0"
"pit-trial","157","1165943","0.0-98.0","battery-v0.2","","""event"",""trial"",""time""
""fullscreenenter"",""1"",""3435""
","
","
","""event"",""trial"",""time""
""fullscreenenter"",""1"",""3435""
","
","","","-1","","","21","1213","953","h","elianto","#3366ff99"," ","-1","0","0","[]","0","2","","","1213","94","8","1","win","go","0","0"
"pit-trial","158","1169762","0.0-99.0","battery-v0.2","","""event"",""trial"",""time""
""fullscreenenter"",""1"",""3435""
","
","
","""event"",""trial"",""time""
""fullscreenenter"",""1"",""3435""
","
","","","962.5999999996275","","","21","1213","953","t","elianto","#f73b6a7A"," "," ","1","0","[1814.7000000011176]","1","2","","","1213","95","4","3","lose","go","0","0"
"pit-trial","159","1174621","0.0-100.0","battery-v0.2","","""event"",""trial"",""time""
""fullscreenenter"",""1"",""3435""
","
","
","""event"",""trial"",""time""
""fullscreenenter"",""1"",""3435""
","
","","","-1","","","21","1213","953","z","elianto","#3366ff99"," ","-1","0","0","[]","0","2","","","1213","96","7","1","win","go","0","0"
"pit-trial","160","1179480","0.0-101.0","battery-v0.2","","""event"",""trial"",""time""
""fullscreenenter"",""1"",""3435""
","
","
","""event"",""trial"",""time""
""fullscreenenter"",""1"",""3435""
","
","","","-1","","","21","1213","953","z","elianto","#3366ff99"," ","-1","0","0","[]","0","2","","","1213","97","7","1","win","go","0","0"
"pit-trial","161","1183245","0.0-102.0","battery-v0.2","","""event"",""trial"",""time""
""fullscreenenter"",""1"",""3435""
","
","
","""event"",""trial"",""time""
""fullscreenenter"",""1"",""3435""
","
","","","910.4000000003725","","","21","1213","953","h","elianto","#3366ff99"," "," ","1","+10","[1761.300000000745]","1","2","","","1213","98","8","1","win","go","0","0"
"pit-trial","162","1188104","0.0-103.0","battery-v0.2","","""event"",""trial"",""time""
""fullscreenenter"",""1"",""3435""
","
","
","""event"",""trial"",""time""
""fullscreenenter"",""1"",""3435""
","
","","","-1","","","21","1213","953","c","elianto","#3366ff99","-1","-1","1","+10","[]","0","2","","","1213","99","6","2","win","no-go","0","0"
"pit-trial","163","1191805","0.0-104.0","battery-v0.2","","""event"",""trial"",""time""
""fullscreenenter"",""1"",""3435""
","
","
","""event"",""trial"",""time""
""fullscreenenter"",""1"",""3435""
","
","","","844.5999999996275","","","21","1213","953","t","elianto","#f73b6a7A"," "," ","1","0","[1695.5999999996275]","1","2","","","1213","100","4","3","lose","go","0","0"
"pit-trial","164","1196664","0.0-105.0","battery-v0.2","","""event"",""trial"",""time""
""fullscreenenter"",""1"",""3435""
","
","
","""event"",""trial"",""time""
""fullscreenenter"",""1"",""3435""
","
","","","-1","","","21","1213","953","z","elianto","#3366ff99"," ","-1","0","0","[]","0","2","","","1213","101","7","1","win","go","0","0"
"pit-trial","165","1200451","0.0-106.0","battery-v0.2","","""event"",""trial"",""time""
""fullscreenenter"",""1"",""3435""
","
","
","""event"",""trial"",""time""
""fullscreenenter"",""1"",""3435""
","
","","","933.6999999992549","","","21","1213","953","h","elianto","#3366ff99"," "," ","1","+10","[1784.0999999996275]","1","2","","","1213","102","8","1","win","go","0","0"
"pit-trial","166","1205310","0.0-107.0","battery-v0.2","","""event"",""trial"",""time""
""fullscreenenter"",""1"",""3435""
","
","
","""event"",""trial"",""time""
""fullscreenenter"",""1"",""3435""
","
","","","-1","","","21","1213","953","c","elianto","#3366ff99","-1","-1","1","0","[]","0","2","","","1213","103","6","2","win","no-go","1","0"
"pit-trial","167","1209198","0.0-108.0","battery-v0.2","","""event"",""trial"",""time""
""fullscreenenter"",""1"",""3435""
","
","
","""event"",""trial"",""time""
""fullscreenenter"",""1"",""3435""
","
","","","1033.7999999988824","","","21","1213","953","y","elianto","#3366ff99","-1"," ","0","+10","[1884.4000000003725]","1","2","","","1213","104","9","2","win","no-go","1","0"
"pit-trial","168","1212868","0.0-109.0","battery-v0.2","","""event"",""trial"",""time""
""fullscreenenter"",""1"",""3435""
","
","
","""event"",""trial"",""time""
""fullscreenenter"",""1"",""3435""
","
","","","815.0999999996275","","","21","1213","953","y","elianto","#3366ff99","-1"," ","0","0","[1666.7999999988824]","1","2","","","1213","105","9","2","win","no-go","0","0"
"pit-trial","169","1216622","0.0-110.0","battery-v0.2","","""event"",""trial"",""time""
""fullscreenenter"",""1"",""3435""
","
","
","""event"",""trial"",""time""
""fullscreenenter"",""1"",""3435""
","
","","","898.8000000007451","","","21","1213","953","z","elianto","#3366ff99"," "," ","1","0","[1750.2000000011176]","1","2","","","1213","106","7","1","win","go","1","0"
"pit-trial","170","1220980","0.0-111.0","battery-v0.2","","""event"",""trial"",""time""
""fullscreenenter"",""1"",""3435""
","
","
","""event"",""trial"",""time""
""fullscreenenter"",""1"",""3435""
","
","","","1501.300000000745","","","21","1213","953","h","elianto","#3366ff99"," "," ","1","+10","[2351.2999999988824]","1","2","","","1213","107","8","1","win","go","0","0"
"pit-trial","171","1224932","0.0-112.0","battery-v0.2","","""event"",""trial"",""time""
""fullscreenenter"",""1"",""3435""
","
","
","""event"",""trial"",""time""
""fullscreenenter"",""1"",""3435""
","
","","","1095","","","21","1213","953","c","elianto","#3366ff99","-1"," ","0","0","[1945.5]","1","2","","","1213","108","6","2","win","no-go","0","0"
"pit-trial","172","1228649","0.0-113.0","battery-v0.2","","""event"",""trial"",""time""
""fullscreenenter"",""1"",""3435""
","
","
","""event"",""trial"",""time""
""fullscreenenter"",""1"",""3435""
","
","","","862.5","","","21","1213","953","h","elianto","#3366ff99"," "," ","1","+10","[1713.800000000745]","1","2","","","1213","109","8","1","win","go","0","0"
"pit-trial","173","1233508","0.0-114.0","battery-v0.2","","""event"",""trial"",""time""
""fullscreenenter"",""1"",""3435""
","
","
","""event"",""trial"",""time""
""fullscreenenter"",""1"",""3435""
","
","","","-1","","","21","1213","953","m","elianto","#f73b6a7A","-1","-1","1","0","[]","0","2","","","1213","110","11","4","lose","no-go","0","0"
"pit-trial","174","1237583","0.0-115.0","battery-v0.2","","""event"",""trial"",""time""
""fullscreenenter"",""1"",""3435""
","
","
","""event"",""trial"",""time""
""fullscreenenter"",""1"",""3435""
","
","","","1218.1000000014901","","","21","1213","953","r","elianto","#f73b6a7A"," "," ","1","0","[2068.4000000003725]","1","2","","","1213","111","10","3","lose","go","0","0"
"pit-trial","175","1241508","0.0-116.0","battery-v0.2","","""event"",""trial"",""time""
""fullscreenenter"",""1"",""3435""
","
","
","""event"",""trial"",""time""
""fullscreenenter"",""1"",""3435""
","
","","","1070","","","21","1213","953","y","elianto","#3366ff99","-1"," ","0","0","[1921]","1","2","","","1213","112","9","2","win","no-go","0","0"
"pit-trial","176","1246367","0.0-117.0","battery-v0.2","","""event"",""trial"",""time""
""fullscreenenter"",""1"",""3435""
","
","
","""event"",""trial"",""time""
""fullscreenenter"",""1"",""3435""
","
","","","-1","","","21","1213","953","m","elianto","#f73b6a7A","-1","-1","1","0","[]","0","2","","","1213","113","11","4","lose","no-go","0","0"
"pit-trial","177","1249823","0.0-118.0","battery-v0.2","","""event"",""trial"",""time""
""fullscreenenter"",""1"",""3435""
","
","
","""event"",""trial"",""time""
""fullscreenenter"",""1"",""3435""
","
","","","600.8000000007451","","","21","1213","953","y","elianto","#3366ff99","-1"," ","0","0","[1451.9000000003725]","1","2","","","1213","114","9","2","win","no-go","0","0"
"pit-trial","178","1253636","0.0-119.0","battery-v0.2","","""event"",""trial"",""time""
""fullscreenenter"",""1"",""3435""
","
","
","""event"",""trial"",""time""
""fullscreenenter"",""1"",""3435""
","
","","","957.5","","","21","1213","953","h","elianto","#3366ff99"," "," ","1","+10","[1807.2999999988824]","1","2","","","1213","115","8","1","win","go","0","0"
"pit-trial","179","1257820","0.0-120.0","battery-v0.2","","""event"",""trial"",""time""
""fullscreenenter"",""1"",""3435""
","
","
","""event"",""trial"",""time""
""fullscreenenter"",""1"",""3435""
","
","","","1326.5","","","21","1213","953","r","elianto","#f73b6a7A"," "," ","1","-10","[2178.7000000011176]","1","2","","","1213","116","10","3","lose","go","1","0"
"pit-trial","180","1261978","0.0-121.0","battery-v0.2","","""event"",""trial"",""time""
""fullscreenenter"",""1"",""3435""
","
","
","""event"",""trial"",""time""
""fullscreenenter"",""1"",""3435""
","
","","","1305.199999999255","","","21","1213","953","y","elianto","#3366ff99","-1"," ","0","0","[2155.4000000003725]","1","2","","","1213","117","9","2","win","no-go","0","0"
"pit-trial","181","1265562","0.0-122.0","battery-v0.2","","""event"",""trial"",""time""
""fullscreenenter"",""1"",""3435""
","
","
","""event"",""trial"",""time""
""fullscreenenter"",""1"",""3435""
","
","","","725.6999999992549","","","21","1213","953","h","elianto","#3366ff99"," "," ","1","+10","[1576.800000000745]","1","2","","","1213","118","8","1","win","go","0","0"
"pit-trial","182","1269935","0.0-123.0","battery-v0.2","","""event"",""trial"",""time""
""fullscreenenter"",""1"",""3435""
","
","
","""event"",""trial"",""time""
""fullscreenenter"",""1"",""3435""
","
","","","1518.4000000003725","","","21","1213","953","r","elianto","#f73b6a7A"," "," ","1","0","[2369.5]","1","2","","","1213","119","10","3","lose","go","0","0"
"pit-trial","183","1274794","0.0-124.0","battery-v0.2","","""event"",""trial"",""time""
""fullscreenenter"",""1"",""3435""
","
","
","""event"",""trial"",""time""
""fullscreenenter"",""1"",""3435""
","
","","","-1","","","21","1213","953","m","elianto","#f73b6a7A","-1","-1","1","0","[]","0","2","","","1213","120","11","4","lose","no-go","0","0"
"pit-trial","184","1279471","0.0-125.0","battery-v0.2","","""event"",""trial"",""time""
""fullscreenenter"",""1"",""3435""
","
","
","""event"",""trial"",""time""
""fullscreenenter"",""1"",""3435""
","
","","","1823.199999999255","","","21","1213","953","m","elianto","#f73b6a7A","-1"," ","0","-10","[2674.199999999255]","1","2","","","1213","121","11","4","lose","no-go","0","0"
"pit-trial","185","1283413","0.0-126.0","battery-v0.2","","""event"",""trial"",""time""
""fullscreenenter"",""1"",""3435""
","
","
","""event"",""trial"",""time""
""fullscreenenter"",""1"",""3435""
","
","","","1082.9000000003725","","","21","1213","953","y","elianto","#3366ff99","-1"," ","0","0","[1934.800000000745]","1","2","","","1213","122","9","2","win","no-go","0","0"
"pit-trial","186","1287269","0.0-127.0","battery-v0.2","","""event"",""trial"",""time""
""fullscreenenter"",""1"",""3435""
","
","
","""event"",""trial"",""time""
""fullscreenenter"",""1"",""3435""
","
","","","998.0999999996275","","","21","1213","953","r","elianto","#f73b6a7A"," "," ","1","0","[1849.2000000011176]","1","2","","","1213","123","10","3","lose","go","0","0"
"pit-trial","187","1291259","0.0-128.0","battery-v0.2","","""event"",""trial"",""time""
""fullscreenenter"",""1"",""3435""
","
","
","""event"",""trial"",""time""
""fullscreenenter"",""1"",""3435""
","
","","","1131.5","","","21","1213","953","h","elianto","#3366ff99"," "," ","1","+10","[1983.5999999996275]","1","2","","","1213","124","8","1","win","go","0","0"
"pit-trial","188","1296117","0.0-129.0","battery-v0.2","","""event"",""trial"",""time""
""fullscreenenter"",""1"",""3435""
","
","
","""event"",""trial"",""time""
""fullscreenenter"",""1"",""3435""
","
","","","-1","","","21","1213","953","m","elianto","#f73b6a7A","-1","-1","1","0","[]","0","2","","","1213","125","11","4","lose","no-go","0","0"
"pit-trial","189","1299802","0.0-130.0","battery-v0.2","","""event"",""trial"",""time""
""fullscreenenter"",""1"",""3435""
","
","
","""event"",""trial"",""time""
""fullscreenenter"",""1"",""3435""
","
","","","826.6999999992549","","","21","1213","953","r","elianto","#f73b6a7A"," "," ","1","0","[1678.5]","1","2","","","1213","126","10","3","lose","go","0","0"
"pit-trial","190","1304661","0.0-131.0","battery-v0.2","","""event"",""trial"",""time""
""fullscreenenter"",""1"",""3435""
","
","
","""event"",""trial"",""time""
""fullscreenenter"",""1"",""3435""
","
","","","-1","","","21","1213","953","y","elianto","#3366ff99","-1","-1","1","+10","[]","0","2","","","1213","127","9","2","win","no-go","0","0"
"pit-trial","191","1308811","0.0-132.0","battery-v0.2","","""event"",""trial"",""time""
""fullscreenenter"",""1"",""3435""
","
","
","""event"",""trial"",""time""
""fullscreenenter"",""1"",""3435""
","
","","","1291.5999999996275","","","21","1213","953","h","elianto","#3366ff99"," "," ","1","+10","[2144.699999999255]","1","2","","","1213","128","8","1","win","go","0","0"
"pit-trial","192","1312657","0.0-133.0","battery-v0.2","","""event"",""trial"",""time""
""fullscreenenter"",""1"",""3435""
","
","
","""event"",""trial"",""time""
""fullscreenenter"",""1"",""3435""
","
","","","989.4000000003725","","","21","1213","953","h","elianto","#3366ff99"," "," ","1","+10","[1841]","1","2","","","1213","129","8","1","win","go","0","0"
"pit-trial","193","1317515","0.0-134.0","battery-v0.2","","""event"",""trial"",""time""
""fullscreenenter"",""1"",""3435""
","
","
","""event"",""trial"",""time""
""fullscreenenter"",""1"",""3435""
","
","","","-1","","","21","1213","953","y","elianto","#3366ff99","-1","-1","1","+10","[]","0","2","","","1213","130","9","2","win","no-go","0","0"
"pit-trial","194","1321878","0.0-135.0","battery-v0.2","","""event"",""trial"",""time""
""fullscreenenter"",""1"",""3435""
","
","
","""event"",""trial"",""time""
""fullscreenenter"",""1"",""3435""
","
","","","1506","","","21","1213","953","r","elianto","#f73b6a7A"," "," ","1","0","[2356.2999999988824]","1","2","","","1213","131","10","3","lose","go","0","0"
"pit-trial","195","1326737","0.0-136.0","battery-v0.2","","""event"",""trial"",""time""
""fullscreenenter"",""1"",""3435""
","
","
","""event"",""trial"",""time""
""fullscreenenter"",""1"",""3435""
","
","","","-1","","","21","1213","953","m","elianto","#f73b6a7A","-1","-1","1","0","[]","0","2","","","1213","132","11","4","lose","no-go","0","0"
"pit-trial","196","1331596","0.0-137.0","battery-v0.2","","""event"",""trial"",""time""
""fullscreenenter"",""1"",""3435""
","
","
","""event"",""trial"",""time""
""fullscreenenter"",""1"",""3435""
","
","","","-1","","","21","1213","953","h","elianto","#3366ff99"," ","-1","0","+10","[]","0","2","","","1213","133","8","1","win","go","1","0"
"pit-trial","197","1335644","0.0-138.0","battery-v0.2","","""event"",""trial"",""time""
""fullscreenenter"",""1"",""3435""
","
","
","""event"",""trial"",""time""
""fullscreenenter"",""1"",""3435""
","
","","","1190.0999999996275","","","21","1213","953","r","elianto","#f73b6a7A"," "," ","1","-10","[2040.699999999255]","1","2","","","1213","134","10","3","lose","go","1","0"
"pit-trial","198","1340508","0.0-139.0","battery-v0.2","","""event"",""trial"",""time""
""fullscreenenter"",""1"",""3435""
","
","
","""event"",""trial"",""time""
""fullscreenenter"",""1"",""3435""
","
","","","-1","","","21","1213","953","m","elianto","#f73b6a7A","-1","-1","1","-10","[]","0","2","","","1213","135","11","4","lose","no-go","1","0"
"pit-trial","199","1345367","0.0-140.0","battery-v0.2","","""event"",""trial"",""time""
""fullscreenenter"",""1"",""3435""
","
","
","""event"",""trial"",""time""
""fullscreenenter"",""1"",""3435""
","
","","","-1","","","21","1213","953","y","elianto","#3366ff99","-1","-1","1","0","[]","0","2","","","1213","136","9","2","win","no-go","1","0"
"pit-trial","200","1350225","0.0-141.0","battery-v0.2","","""event"",""trial"",""time""
""fullscreenenter"",""1"",""3435""
","
","
","""event"",""trial"",""time""
""fullscreenenter"",""1"",""3435""
","
","","","-1","","","21","1213","953","y","elianto","#3366ff99","-1","-1","1","+10","[]","0","2","","","1213","137","9","2","win","no-go","0","0"
"pit-trial","201","1355085","0.0-142.0","battery-v0.2","","""event"",""trial"",""time""
""fullscreenenter"",""1"",""3435""
","
","
","""event"",""trial"",""time""
""fullscreenenter"",""1"",""3435""
","
","","","-1","","","21","1213","953","m","elianto","#f73b6a7A","-1","-1","1","0","[]","0","2","","","1213","138","11","4","lose","no-go","0","0"
"pit-trial","202","1359079","0.0-143.0","battery-v0.2","","""event"",""trial"",""time""
""fullscreenenter"",""1"",""3435""
","
","
","""event"",""trial"",""time""
""fullscreenenter"",""1"",""3435""
","
","","","1139.5999999996275","","","21","1213","953","r","elianto","#f73b6a7A"," "," ","1","0","[1990.2999999988824]","1","2","","","1213","139","10","3","lose","go","0","0"
"pit-trial","203","1363938","0.0-144.0","battery-v0.2","","""event"",""trial"",""time""
""fullscreenenter"",""1"",""3435""
","
","
","""event"",""trial"",""time""
""fullscreenenter"",""1"",""3435""
","
","","","-1","","","21","1213","953","h","elianto","#3366ff99"," ","-1","0","0","[]","0","2","","","1213","140","8","1","win","go","0","0"
"pit-instructions","204","1381259","0.0-145.0","battery-v0.2","","""event"",""trial"",""time""
""fullscreenenter"",""1"",""3435""
","
","
","""event"",""trial"",""time""
""fullscreenenter"",""1"",""3435""
","
","","[{""page_index"":0,""viewing_time"":8394},{""page_index"":1,""viewing_time"":8924.699999999255}]","17318.89999999851","","","","","","","","","","","","","","","","","","","","","","","","",""
"pit-trial","205","1385318","0.0-146.0","battery-v0.2","","""event"",""trial"",""time""
""fullscreenenter"",""1"",""3435""
","
","
","""event"",""trial"",""time""
""fullscreenenter"",""1"",""3435""
","
","","","1201.2000000011176","","","21","1213","953","j","elianto","#3366ff99","-1"," ","0","+10","[2051.9000000003725]","1","3","","","1213","141","1","2","win","no-go","1","0"
"pit-trial","206","1389170","0.0-147.0","battery-v0.2","","""event"",""trial"",""time""
""fullscreenenter"",""1"",""3435""
","
","
","""event"",""trial"",""time""
""fullscreenenter"",""1"",""3435""
","
","","","993.9000000003725","","","21","1213","953","v","elianto","#3366ff99","-1"," ","0","0","[1845.2000000011176]","1","3","","","1213","142","0","2","win","no-go","0","0"
"pit-trial","207","1392842","0.0-148.0","battery-v0.2","","""event"",""trial"",""time""
""fullscreenenter"",""1"",""3435""
","
","
","""event"",""trial"",""time""
""fullscreenenter"",""1"",""3435""
","
","","","816","","","21","1213","953","d","elianto","#3366ff99"," "," ","1","+10","[1666.5]","1","3","","","1213","143","2","1","win","go","0","0"
"pit-trial","208","1397700","0.0-149.0","battery-v0.2","","""event"",""trial"",""time""
""fullscreenenter"",""1"",""3435""
","
","
","""event"",""trial"",""time""
""fullscreenenter"",""1"",""3435""
","
","","","-1","","","21","1213","953","k","elianto","#f73b6a7A"," ","-1","0","-10","[]","0","3","","","1213","144","3","3","lose","go","0","0"
"pit-trial","209","1401194","0.0-150.0","battery-v0.2","","""event"",""trial"",""time""
""fullscreenenter"",""1"",""3435""
","
","
","""event"",""trial"",""time""
""fullscreenenter"",""1"",""3435""
","
","","","633.5","","","21","1213","953","k","elianto","#f73b6a7A"," "," ","1","0","[1486.300000000745]","1","3","","","1213","145","3","3","lose","go","0","0"
"pit-trial","210","1404858","0.0-151.0","battery-v0.2","","""event"",""trial"",""time""
""fullscreenenter"",""1"",""3435""
","
","
","""event"",""trial"",""time""
""fullscreenenter"",""1"",""3435""
","
","","","809.3999999985099","","","21","1213","953","d","elianto","#3366ff99"," "," ","1","+10","[1659.7999999988824]","1","3","","","1213","146","2","1","win","go","0","0"
"pit-trial","211","1408419","0.0-152.0","battery-v0.2","","""event"",""trial"",""time""
""fullscreenenter"",""1"",""3435""
","
","
","""event"",""trial"",""time""
""fullscreenenter"",""1"",""3435""
","
","","","704.1999999992549","","","21","1213","953","j","elianto","#3366ff99","-1"," ","0","+10","[1554.5]","1","3","","","1213","147","1","2","win","no-go","1","0"
"pit-trial","212","1412085","0.0-153.0","battery-v0.2","","""event"",""trial"",""time""
""fullscreenenter"",""1"",""3435""
","
","
","""event"",""trial"",""time""
""fullscreenenter"",""1"",""3435""
","
","","","809.7999999988824","","","21","1213","953","v","elianto","#3366ff99","-1"," ","0","0","[1660.7999999988824]","1","3","","","1213","148","0","2","win","no-go","0","0"
"pit-trial","213","1416944","0.0-154.0","battery-v0.2","","""event"",""trial"",""time""
""fullscreenenter"",""1"",""3435""
","
","
","""event"",""trial"",""time""
""fullscreenenter"",""1"",""3435""
","
","","","-1","","","21","1213","953","v","elianto","#3366ff99","-1","-1","1","0","[]","0","3","","","1213","149","0","2","win","no-go","1","0"
"pit-trial","214","1420960","0.0-155.0","battery-v0.2","","""event"",""trial"",""time""
""fullscreenenter"",""1"",""3435""
","
","
","""event"",""trial"",""time""
""fullscreenenter"",""1"",""3435""
","
","","","1158.199999999255","","","21","1213","953","d","elianto","#3366ff99"," "," ","1","+10","[2010]","1","3","","","1213","150","2","1","win","go","0","0"
"pit-trial","215","1424608","0.0-156.0","battery-v0.2","","""event"",""trial"",""time""
""fullscreenenter"",""1"",""3435""
","
","
","""event"",""trial"",""time""
""fullscreenenter"",""1"",""3435""
","
","","","792.1999999992549","","","21","1213","953","k","elianto","#f73b6a7A"," "," ","1","0","[1642.199999999255]","1","3","","","1213","151","3","3","lose","go","0","0"
"pit-trial","216","1428810","0.0-157.0","battery-v0.2","","""event"",""trial"",""time""
""fullscreenenter"",""1"",""3435""
","
","
","""event"",""trial"",""time""
""fullscreenenter"",""1"",""3435""
","
","","","1343.699999999255","","","21","1213","953","j","elianto","#3366ff99","-1"," ","0","+10","[2194.5999999996275]","1","3","","","1213","152","1","2","win","no-go","1","0"
"pit-trial","217","1433232","0.0-158.0","battery-v0.2","","""event"",""trial"",""time""
""fullscreenenter"",""1"",""3435""
","
","
","""event"",""trial"",""time""
""fullscreenenter"",""1"",""3435""
","
","","","1567.2999999988824","","","21","1213","953","v","elianto","#3366ff99","-1"," ","0","+10","[2418.199999999255]","1","3","","","1213","153","0","2","win","no-go","1","0"
"pit-trial","218","1437465","0.0-159.0","battery-v0.2","","""event"",""trial"",""time""
""fullscreenenter"",""1"",""3435""
","
","
","""event"",""trial"",""time""
""fullscreenenter"",""1"",""3435""
","
","","","1377.699999999255","","","21","1213","953","k","elianto","#f73b6a7A"," "," ","1","0","[2228.5999999996275]","1","3","","","1213","154","3","3","lose","go","0","0"
"pit-trial","219","1441444","0.0-160.0","battery-v0.2","","""event"",""trial"",""time""
""fullscreenenter"",""1"",""3435""
","
","
","""event"",""trial"",""time""
""fullscreenenter"",""1"",""3435""
","
","","","1122.5999999996275","","","21","1213","953","j","elianto","#3366ff99","-1"," ","0","0","[1973.300000000745]","1","3","","","1213","155","1","2","win","no-go","0","0"
"pit-trial","220","1445093","0.0-161.0","battery-v0.2","","""event"",""trial"",""time""
""fullscreenenter"",""1"",""3435""
","
","
","""event"",""trial"",""time""
""fullscreenenter"",""1"",""3435""
","
","","","790.5","","","21","1213","953","d","elianto","#3366ff99"," "," ","1","+10","[1642.0999999996275]","1","3","","","1213","156","2","1","win","go","0","0"
"pit-trial","221","1448794","0.0-162.0","battery-v0.2","","""event"",""trial"",""time""
""fullscreenenter"",""1"",""3435""
","
","
","""event"",""trial"",""time""
""fullscreenenter"",""1"",""3435""
","
","","","847","","","21","1213","953","d","elianto","#3366ff99"," "," ","1","0","[1697.9000000003725]","1","3","","","1213","157","2","1","win","go","1","0"
"pit-trial","222","1452522","0.0-163.0","battery-v0.2","","""event"",""trial"",""time""
""fullscreenenter"",""1"",""3435""
","
","
","""event"",""trial"",""time""
""fullscreenenter"",""1"",""3435""
","
","","","873.2000000011176","","","21","1213","953","v","elianto","#3366ff99","-1"," ","0","0","[1723.800000000745]","1","3","","","1213","158","0","2","win","no-go","0","0"
"pit-trial","223","1456256","0.0-164.0","battery-v0.2","","""event"",""trial"",""time""
""fullscreenenter"",""1"",""3435""
","
","
","""event"",""trial"",""time""
""fullscreenenter"",""1"",""3435""
","
","","","875.1999999992549","","","21","1213","953","j","elianto","#3366ff99","-1"," ","0","0","[1726]","1","3","","","1213","159","1","2","win","no-go","0","0"
"pit-trial","224","1459925","0.0-165.0","battery-v0.2","","""event"",""trial"",""time""
""fullscreenenter"",""1"",""3435""
","
","
","""event"",""trial"",""time""
""fullscreenenter"",""1"",""3435""
","
","","","812.6999999992549","","","21","1213","953","k","elianto","#f73b6a7A"," "," ","1","-10","[1665.8999999985099]","1","3","","","1213","160","3","3","lose","go","1","0"
"pit-trial","225","1463584","0.0-166.0","battery-v0.2","","""event"",""trial"",""time""
""fullscreenenter"",""1"",""3435""
","
","
","""event"",""trial"",""time""
""fullscreenenter"",""1"",""3435""
","
","","","803.8000000007451","","","21","1213","953","j","elianto","#3366ff99","-1"," ","0","0","[1653.9000000003725]","1","3","","","1213","161","1","2","win","no-go","0","0"
"pit-trial","226","1468000","0.0-167.0","battery-v0.2","","""event"",""trial"",""time""
""fullscreenenter"",""1"",""3435""
","
","
","""event"",""trial"",""time""
""fullscreenenter"",""1"",""3435""
","
","","","1561","","","21","1213","953","v","elianto","#3366ff99","-1"," ","0","0","[2411.9000000003725]","1","3","","","1213","162","0","2","win","no-go","0","0"
"pit-trial","227","1471755","0.0-168.0","battery-v0.2","","""event"",""trial"",""time""
""fullscreenenter"",""1"",""3435""
","
","
","""event"",""trial"",""time""
""fullscreenenter"",""1"",""3435""
","
","","","899.7000000011176","","","21","1213","953","k","elianto","#f73b6a7A"," "," ","1","0","[1749.9000000003725]","1","3","","","1213","163","3","3","lose","go","0","0"
"pit-trial","228","1475954","0.0-169.0","battery-v0.2","","""event"",""trial"",""time""
""fullscreenenter"",""1"",""3435""
","
","
","""event"",""trial"",""time""
""fullscreenenter"",""1"",""3435""
","
","","","1341.5999999996275","","","21","1213","953","d","elianto","#3366ff99"," "," ","1","+10","[2191.800000000745]","1","3","","","1213","164","2","1","win","go","0","0"
"pit-trial","229","1480454","0.0-170.0","battery-v0.2","","""event"",""trial"",""time""
""fullscreenenter"",""1"",""3435""
","
","
","""event"",""trial"",""time""
""fullscreenenter"",""1"",""3435""
","
","","","1642.4000000003725","","","21","1213","953","k","elianto","#f73b6a7A"," "," ","1","0","[2493.0999999996275]","1","3","","","1213","165","3","3","lose","go","0","0"
"pit-trial","230","1485316","0.0-171.0","battery-v0.2","","""event"",""trial"",""time""
""fullscreenenter"",""1"",""3435""
","
","
","""event"",""trial"",""time""
""fullscreenenter"",""1"",""3435""
","
","","","-1","","","21","1213","953","v","elianto","#3366ff99","-1","-1","1","+10","[]","0","3","","","1213","166","0","2","win","no-go","0","0"
"pit-trial","231","1488900","0.0-172.0","battery-v0.2","","""event"",""trial"",""time""
""fullscreenenter"",""1"",""3435""
","
","
","""event"",""trial"",""time""
""fullscreenenter"",""1"",""3435""
","
","","","726.3999999985099","","","21","1213","953","d","elianto","#3366ff99"," "," ","1","+10","[1576.699999999255]","1","3","","","1213","167","2","1","win","go","0","0"
"pit-trial","232","1492603","0.0-173.0","battery-v0.2","","""event"",""trial"",""time""
""fullscreenenter"",""1"",""3435""
","
","
","""event"",""trial"",""time""
""fullscreenenter"",""1"",""3435""
","
","","","844.4000000003725","","","21","1213","953","j","elianto","#3366ff99","-1"," ","0","0","[1696.7000000011176]","1","3","","","1213","168","1","2","win","no-go","0","0"
"pit-trial","233","1496390","0.0-174.0","battery-v0.2","","""event"",""trial"",""time""
""fullscreenenter"",""1"",""3435""
","
","
","""event"",""trial"",""time""
""fullscreenenter"",""1"",""3435""
","
","","","928.5999999996275","","","21","1213","953","j","elianto","#3366ff99","-1"," ","0","0","[1779.7000000011176]","1","3","","","1213","169","1","2","win","no-go","0","0"
"pit-trial","234","1500001","0.0-175.0","battery-v0.2","","""event"",""trial"",""time""
""fullscreenenter"",""1"",""3435""
","
","
","""event"",""trial"",""time""
""fullscreenenter"",""1"",""3435""
","
","","","755.8000000007451","","","21","1213","953","d","elianto","#3366ff99"," "," ","1","0","[1606.5]","1","3","","","1213","170","2","1","win","go","1","0"
"pit-trial","235","1504863","0.0-176.0","battery-v0.2","","""event"",""trial"",""time""
""fullscreenenter"",""1"",""3435""
","
","
","""event"",""trial"",""time""
""fullscreenenter"",""1"",""3435""
","
","","","-1","","","21","1213","953","v","elianto","#3366ff99","-1","-1","1","+10","[]","0","3","","","1213","171","0","2","win","no-go","0","0"
"pit-trial","236","1508954","0.0-177.0","battery-v0.2","","""event"",""trial"",""time""
""fullscreenenter"",""1"",""3435""
","
","
","""event"",""trial"",""time""
""fullscreenenter"",""1"",""3435""
","
","","","1231.6000000014901","","","21","1213","953","k","elianto","#f73b6a7A"," "," ","1","0","[2083.9000000003725]","1","3","","","1213","172","3","3","lose","go","0","0"
"pit-trial","237","1513814","0.0-178.0","battery-v0.2","","""event"",""trial"",""time""
""fullscreenenter"",""1"",""3435""
","
","
","""event"",""trial"",""time""
""fullscreenenter"",""1"",""3435""
","
","","","-1","","","21","1213","953","v","elianto","#3366ff99","-1","-1","1","+10","[]","0","3","","","1213","173","0","2","win","no-go","0","0"
"pit-trial","238","1518486","0.0-179.0","battery-v0.2","","""event"",""trial"",""time""
""fullscreenenter"",""1"",""3435""
","
","
","""event"",""trial"",""time""
""fullscreenenter"",""1"",""3435""
","
","","","1816.5999999996275","","","21","1213","953","w","elianto","#f73b6a7A"," "," ","1","0","[2666.9000000003725]","1","3","","","1213","174","5","3","lose","go","0","0"
"pit-trial","239","1522673","0.0-180.0","battery-v0.2","","""event"",""trial"",""time""
""fullscreenenter"",""1"",""3435""
","
","
","""event"",""trial"",""time""
""fullscreenenter"",""1"",""3435""
","
","","","1327.9000000003725","","","21","1213","953","e","elianto","#f73b6a7A","-1"," ","0","-10","[2179.4000000003725]","1","3","","","1213","175","4","4","lose","no-go","0","0"
"pit-trial","240","1526396","0.0-181.0","battery-v0.2","","""event"",""trial"",""time""
""fullscreenenter"",""1"",""3435""
","
","
","""event"",""trial"",""time""
""fullscreenenter"",""1"",""3435""
","
","","","864.6999999992549","","","21","1213","953","d","elianto","#3366ff99"," "," ","1","+10","[1715]","1","3","","","1213","176","2","1","win","go","0","0"
"pit-trial","241","1530092","0.0-182.0","battery-v0.2","","""event"",""trial"",""time""
""fullscreenenter"",""1"",""3435""
","
","
","""event"",""trial"",""time""
""fullscreenenter"",""1"",""3435""
","
","","","841","","","21","1213","953","w","elianto","#f73b6a7A"," "," ","1","-10","[1692]","1","3","","","1213","177","5","3","lose","go","1","0"
"pit-trial","242","1534955","0.0-183.0","battery-v0.2","","""event"",""trial"",""time""
""fullscreenenter"",""1"",""3435""
","
","
","""event"",""trial"",""time""
""fullscreenenter"",""1"",""3435""
","
","","","-1","","","21","1213","953","v","elianto","#3366ff99","-1","-1","1","+10","[]","0","3","","","1213","178","0","2","win","no-go","0","0"
"pit-trial","243","1538519","0.0-184.0","battery-v0.2","","""event"",""trial"",""time""
""fullscreenenter"",""1"",""3435""
","
","
","""event"",""trial"",""time""
""fullscreenenter"",""1"",""3435""
","
","","","708.1999999992549","","","21","1213","953","d","elianto","#3366ff99"," "," ","1","+10","[1559.199999999255]","1","3","","","1213","179","2","1","win","go","0","0"
"pit-trial","244","1543382","0.0-185.0","battery-v0.2","","""event"",""trial"",""time""
""fullscreenenter"",""1"",""3435""
","
","
","""event"",""trial"",""time""
""fullscreenenter"",""1"",""3435""
","
","","","-1","","","21","1213","953","e","elianto","#f73b6a7A","-1","-1","1","0","[]","0","3","","","1213","180","4","4","lose","no-go","0","0"
"pit-trial","245","1548242","0.0-186.0","battery-v0.2","","""event"",""trial"",""time""
""fullscreenenter"",""1"",""3435""
","
","
","""event"",""trial"",""time""
""fullscreenenter"",""1"",""3435""
","
","","","-1","","","21","1213","953","e","elianto","#f73b6a7A","-1","-1","1","0","[]","0","3","","","1213","181","4","4","lose","no-go","0","0"
"pit-trial","246","1552188","0.0-187.0","battery-v0.2","","""event"",""trial"",""time""
""fullscreenenter"",""1"",""3435""
","
","
","""event"",""trial"",""time""
""fullscreenenter"",""1"",""3435""
","
","","","1088.800000000745","","","21","1213","953","w","elianto","#f73b6a7A"," "," ","1","-10","[1941.300000000745]","1","3","","","1213","182","5","3","lose","go","1","0"
"pit-trial","247","1555730","0.0-188.0","battery-v0.2","","""event"",""trial"",""time""
""fullscreenenter"",""1"",""3435""
","
","
","""event"",""trial"",""time""
""fullscreenenter"",""1"",""3435""
","
","","","684.6000000014901","","","21","1213","953","d","elianto","#3366ff99"," "," ","1","0","[1535]","1","3","","","1213","183","2","1","win","go","1","0"
"pit-trial","248","1559496","0.0-189.0","battery-v0.2","","""event"",""trial"",""time""
""fullscreenenter"",""1"",""3435""
","
","
","""event"",""trial"",""time""
""fullscreenenter"",""1"",""3435""
","
","","","907.2000000011176","","","21","1213","953","s","elianto","#3366ff99","-1"," ","0","0","[1757.7000000011176]","1","3","","","1213","184","6","2","win","no-go","0","0"
"pit-trial","249","1563245","0.0-190.0","battery-v0.2","","""event"",""trial"",""time""
""fullscreenenter"",""1"",""3435""
","
","
","""event"",""trial"",""time""
""fullscreenenter"",""1"",""3435""
","
","","","892","","","21","1213","953","w","elianto","#f73b6a7A"," "," ","1","-10","[1742.300000000745]","1","3","","","1213","185","5","3","lose","go","1","0"
"pit-trial","250","1566813","0.0-191.0","battery-v0.2","","""event"",""trial"",""time""
""fullscreenenter"",""1"",""3435""
","
","
","""event"",""trial"",""time""
""fullscreenenter"",""1"",""3435""
","
","","","711.7999999988824","","","21","1213","953","d","elianto","#3366ff99"," "," ","1","+10","[1562.5]","1","3","","","1213","186","2","1","win","go","0","0"
"pit-trial","251","1571676","0.0-192.0","battery-v0.2","","""event"",""trial"",""time""
""fullscreenenter"",""1"",""3435""
","
","
","""event"",""trial"",""time""
""fullscreenenter"",""1"",""3435""
","
","","","-1","","","21","1213","953","e","elianto","#f73b6a7A","-1","-1","1","0","[]","0","3","","","1213","187","4","4","lose","no-go","0","0"
"pit-trial","252","1575629","0.0-193.0","battery-v0.2","","""event"",""trial"",""time""
""fullscreenenter"",""1"",""3435""
","
","
","""event"",""trial"",""time""
""fullscreenenter"",""1"",""3435""
","
","","","1096.9000000003725","","","21","1213","953","s","elianto","#3366ff99","-1"," ","0","0","[1948.1000000014901]","1","3","","","1213","188","6","2","win","no-go","0","0"
"pit-trial","253","1580492","0.0-194.0","battery-v0.2","","""event"",""trial"",""time""
""fullscreenenter"",""1"",""3435""
","
","
","""event"",""trial"",""time""
""fullscreenenter"",""1"",""3435""
","
","","","-1","","","21","1213","953","s","elianto","#3366ff99","-1","-1","1","+10","[]","0","3","","","1213","189","6","2","win","no-go","0","0"
"pit-trial","254","1585351","0.0-195.0","battery-v0.2","","""event"",""trial"",""time""
""fullscreenenter"",""1"",""3435""
","
","
","""event"",""trial"",""time""
""fullscreenenter"",""1"",""3435""
","
","","","-1","","","21","1213","953","w","elianto","#f73b6a7A"," ","-1","0","0","[]","0","3","","","1213","190","5","3","lose","go","1","0"
"pit-trial","255","1589885","0.0-196.0","battery-v0.2","","""event"",""trial"",""time""
""fullscreenenter"",""1"",""3435""
","
","
","""event"",""trial"",""time""
""fullscreenenter"",""1"",""3435""
","
","","","1678.6000000014901","","","21","1213","953","p","elianto","#f73b6a7A","-1"," ","0","-10","[2529.2999999988824]","1","3","","","1213","191","7","4","lose","no-go","0","0"
"pit-trial","256","1594749","0.0-197.0","battery-v0.2","","""event"",""trial"",""time""
""fullscreenenter"",""1"",""3435""
","
","
","""event"",""trial"",""time""
""fullscreenenter"",""1"",""3435""
","
","","","-1","","","21","1213","953","e","elianto","#f73b6a7A","-1","-1","1","-10","[]","0","3","","","1213","192","4","4","lose","no-go","1","0"
"pit-trial","257","1599609","0.0-198.0","battery-v0.2","","""event"",""trial"",""time""
""fullscreenenter"",""1"",""3435""
","
","
","""event"",""trial"",""time""
""fullscreenenter"",""1"",""3435""
","
","","","-1","","","21","1213","953","s","elianto","#3366ff99","-1","-1","1","+10","[]","0","3","","","1213","193","6","2","win","no-go","0","0"
"pit-trial","258","1604467","0.0-199.0","battery-v0.2","","""event"",""trial"",""time""
""fullscreenenter"",""1"",""3435""
","
","
","""event"",""trial"",""time""
""fullscreenenter"",""1"",""3435""
","
","","","-1","","","21","1213","953","p","elianto","#f73b6a7A","-1","-1","1","0","[3034.5]","1","3","","","1213","194","7","4","lose","no-go","0","0"
"pit-trial","259","1608649","0.0-200.0","battery-v0.2","","""event"",""trial"",""time""
""fullscreenenter"",""1"",""3435""
","
","
","""event"",""trial"",""time""
""fullscreenenter"",""1"",""3435""
","
","","","1325.5","","","21","1213","953","e","elianto","#f73b6a7A","-1"," ","0","-10","[2176.4000000003725]","1","3","","","1213","195","4","4","lose","no-go","0","0"
"pit-trial","260","1612856","0.0-201.0","battery-v0.2","","""event"",""trial"",""time""
""fullscreenenter"",""1"",""3435""
","
","
","""event"",""trial"",""time""
""fullscreenenter"",""1"",""3435""
","
","","","1349.2999999988824","","","21","1213","953","w","elianto","#f73b6a7A"," "," ","1","0","[2199.7999999988824]","1","3","","","1213","196","5","3","lose","go","0","0"
"pit-trial","261","1616836","0.0-202.0","battery-v0.2","","""event"",""trial"",""time""
""fullscreenenter"",""1"",""3435""
","
","
","""event"",""trial"",""time""
""fullscreenenter"",""1"",""3435""
","
","","","1125.5","","","21","1213","953","w","elianto","#f73b6a7A"," "," ","1","0","[1975.9000000003725]","1","3","","","1213","197","5","3","lose","go","0","0"
"pit-trial","262","1621698","0.0-203.0","battery-v0.2","","""event"",""trial"",""time""
""fullscreenenter"",""1"",""3435""
","
","
