"trial_type","trial_index","time_elapsed","internal_node_id","task_version","subject_id","interactions","blur_events","focus_events","fullscreenenter_events","fullscreenexit_events","success","view_history","rt","responses","num_errors","age","subject","participantId","rune","rune_set","hex","correct","choice","accuracy","outcome","keys","total_keys","block","practice","value","sub","trial","stimulus","robot","valence","action","sham","browser_interactions"
"pavlovia","0","15","0.0-0.0","battery-v0.2","","""event"",""trial"",""time""
""blur"",""1"",""3705""
""focus"",""1"",""5584""
""fullscreenenter"",""1"",""5685""
","""event"",""trial"",""time""
""blur"",""1"",""3705""
","""event"",""trial"",""time""
""focus"",""1"",""5584""
","""event"",""trial"",""time""
""fullscreenenter"",""1"",""5685""
","
","","","","","","","","","","","","","","","","","","","","","","","","","","","",""
"fullscreen","1","6649","0.0-1.0","battery-v0.2","","""event"",""trial"",""time""
""blur"",""1"",""3705""
""focus"",""1"",""5584""
""fullscreenenter"",""1"",""5685""
","""event"",""trial"",""time""
""blur"",""1"",""3705""
","""event"",""trial"",""time""
""focus"",""1"",""5584""
","""event"",""trial"",""time""
""fullscreenenter"",""1"",""5685""
","
","true","","","","","","","","","","","","","","","","","","","","","","","","","","",""
"pit-instructions","2","10454","0.0-2.0-0.0","battery-v0.2","","""event"",""trial"",""time""
""blur"",""1"",""3705""
""focus"",""1"",""5584""
""fullscreenenter"",""1"",""5685""
","""event"",""trial"",""time""
""blur"",""1"",""3705""
","""event"",""trial"",""time""
""focus"",""1"",""5584""
","""event"",""trial"",""time""
""fullscreenenter"",""1"",""5685""
","
","","[{""page_index"":0,""viewing_time"":3801.399999976158}]","3802.100000023842","","","","","","","","","","","","","","","","","","","","","","","","",""
"pit-comprehension","3","12927","0.0-2.0-1.0-0.0","battery-v0.2","","""event"",""trial"",""time""
""blur"",""1"",""3705""
""focus"",""1"",""5584""
""fullscreenenter"",""1"",""5685""
","""event"",""trial"",""time""
""blur"",""1"",""3705""
","""event"",""trial"",""time""
""focus"",""1"",""5584""
","""event"",""trial"",""time""
""fullscreenenter"",""1"",""5685""
","
","","","2462.2999999523163","[""shark""]","0","19","1072","691","","","","","","","","","","","","","","","","","","","",""
"pit-instructions","4","14158","0.0-2.0-1.0-1.0","battery-v0.2","","""event"",""trial"",""time""
""blur"",""1"",""3705""
""focus"",""1"",""5584""
""fullscreenenter"",""1"",""5685""
","""event"",""trial"",""time""
""blur"",""1"",""3705""
","""event"",""trial"",""time""
""focus"",""1"",""5584""
","""event"",""trial"",""time""
""fullscreenenter"",""1"",""5685""
","
","","[{""page_index"":0,""viewing_time"":1198.5999999046326}]","1199","","","","","","","","","","","","","","","","","","","","","","","","",""
"pit-comprehension","5","16678","0.0-2.0-2.0-0.0","battery-v0.2","","""event"",""trial"",""time""
""blur"",""1"",""3705""
""focus"",""1"",""5584""
""fullscreenenter"",""1"",""5685""
","""event"",""trial"",""time""
""blur"",""1"",""3705""
","""event"",""trial"",""time""
""focus"",""1"",""5584""
","""event"",""trial"",""time""
""fullscreenenter"",""1"",""5685""
","
","","","2509.100000023842","[""tiger""]","0","19","1072","691","","","","","","","","","","","","","","","","","","","",""
"pit-instructions","6","17670","0.0-2.0-2.0-1.0","battery-v0.2","","""event"",""trial"",""time""
""blur"",""1"",""3705""
""focus"",""1"",""5584""
""fullscreenenter"",""1"",""5685""
","""event"",""trial"",""time""
""blur"",""1"",""3705""
","""event"",""trial"",""time""
""focus"",""1"",""5584""
","""event"",""trial"",""time""
""fullscreenenter"",""1"",""5685""
","
","","[{""page_index"":0,""viewing_time"":983.6999999284744}]","984.1000000238419","","","","","","","","","","","","","","","","","","","","","","","","",""
"pit-instructions","7","202141","0.0-2.0-3.0","battery-v0.2","","""event"",""trial"",""time""
""blur"",""1"",""3705""
""focus"",""1"",""5584""
""fullscreenenter"",""1"",""5685""
","""event"",""trial"",""time""
""blur"",""1"",""3705""
","""event"",""trial"",""time""
""focus"",""1"",""5584""
","""event"",""trial"",""time""
""fullscreenenter"",""1"",""5685""
","
","","[{""page_index"":0,""viewing_time"":12342.300000071526},{""page_index"":1,""viewing_time"":15510.699999928474},{""page_index"":2,""viewing_time"":14384.200000047684},{""page_index"":3,""viewing_time"":12752},{""page_index"":4,""viewing_time"":9495.799999952316},{""page_index"":5,""viewing_time"":9183.700000047684},{""page_index"":6,""viewing_time"":28048.600000023842},{""page_index"":7,""viewing_time"":9232.299999952316},{""page_index"":8,""viewing_time"":14201},{""page_index"":9,""viewing_time"":19480.299999952316},{""page_index"":10,""viewing_time"":9404.800000071526},{""page_index"":11,""viewing_time"":19633.299999952316},{""page_index"":12,""viewing_time"":6167.899999976158},{""page_index"":13,""viewing_time"":4623.900000095367}]","184461.10000002384","","","","","","","","","","","","","","","","","","","","","","","","",""
"pit-trial","8","205948","0.0-2.0-4.0-0.0","battery-v0.2","","""event"",""trial"",""time""
""blur"",""1"",""3705""
""focus"",""1"",""5584""
""fullscreenenter"",""1"",""5685""
","""event"",""trial"",""time""
""blur"",""1"",""3705""
","""event"",""trial"",""time""
""focus"",""1"",""5584""
","""event"",""trial"",""time""
""fullscreenenter"",""1"",""5685""
","
","","","948.6999999284744","","","19","1072","691","&#9784;","elianto","#FFFFF080"," "," ","1","&#10004","[1799.6999999284744]","1","0","0","","","","","","","","",""
"pit-trial","9","209651","0.0-2.0-4.1-0.1","battery-v0.2","","""event"",""trial"",""time""
""blur"",""1"",""3705""
""focus"",""1"",""5584""
""fullscreenenter"",""1"",""5685""
","""event"",""trial"",""time""
""blur"",""1"",""3705""
","""event"",""trial"",""time""
""focus"",""1"",""5584""
","""event"",""trial"",""time""
""fullscreenenter"",""1"",""5685""
","
","","","841.3999999761581","","","19","1072","691","&#9784;","elianto","#FFFFF080"," "," ","1","&#10004","[1691.8999999761581]","1","0","0","","","","","","","","",""
"pit-trial","10","213141","0.0-2.0-4.2-0.2","battery-v0.2","","""event"",""trial"",""time""
""blur"",""1"",""3705""
""focus"",""1"",""5584""
""fullscreenenter"",""1"",""5685""
","""event"",""trial"",""time""
""blur"",""1"",""3705""
","""event"",""trial"",""time""
""focus"",""1"",""5584""
","""event"",""trial"",""time""
""fullscreenenter"",""1"",""5685""
","
","","","612.8000000715256","","","19","1072","691","&#9784;","elianto","#FFFFF080"," "," ","1","&#10004","[1463.8000000715256]","1","0","0","","","","","","","","",""
"pit-trial","11","216624","0.0-2.0-4.3-0.3","battery-v0.2","","""event"",""trial"",""time""
""blur"",""1"",""3705""
""focus"",""1"",""5584""
""fullscreenenter"",""1"",""5685""
","""event"",""trial"",""time""
""blur"",""1"",""3705""
","""event"",""trial"",""time""
""focus"",""1"",""5584""
","""event"",""trial"",""time""
""fullscreenenter"",""1"",""5685""
","
","","","618.8999999761581","","","19","1072","691","&#9784;","elianto","#FFFFF080"," "," ","1","&#10004","[1469.9000000953674]","1","0","0","","","","","","","","",""
"pit-trial","12","220058","0.0-2.0-4.4-0.4","battery-v0.2","","""event"",""trial"",""time""
""blur"",""1"",""3705""
""focus"",""1"",""5584""
""fullscreenenter"",""1"",""5685""
","""event"",""trial"",""time""
""blur"",""1"",""3705""
","""event"",""trial"",""time""
""focus"",""1"",""5584""
","""event"",""trial"",""time""
""fullscreenenter"",""1"",""5685""
","
","","","561.5","","","19","1072","691","&#9784;","elianto","#FFFFF080"," "," ","1","&#10004","[1412.2999999523163]","1","0","0","","","","","","","","",""
"pit-instructions","13","242399","0.0-2.0-5.0","battery-v0.2","","""event"",""trial"",""time""
""blur"",""1"",""3705""
""focus"",""1"",""5584""
""fullscreenenter"",""1"",""5685""
","""event"",""trial"",""time""
""blur"",""1"",""3705""
","""event"",""trial"",""time""
""focus"",""1"",""5584""
","""event"",""trial"",""time""
""fullscreenenter"",""1"",""5685""
","
","","[{""page_index"":0,""viewing_time"":6196.800000071526},{""page_index"":1,""viewing_time"":5210.299999952316},{""page_index"":2,""viewing_time"":5658.700000047684},{""page_index"":3,""viewing_time"":5262.699999928474}]","22329.100000023842","","","","","","","","","","","","","","","","","","","","","","","","",""
"pit-trial","14","247264","0.0-2.0-6.0-0.0","battery-v0.2","","""event"",""trial"",""time""
""blur"",""1"",""3705""
""focus"",""1"",""5584""
""fullscreenenter"",""1"",""5685""
","""event"",""trial"",""time""
""blur"",""1"",""3705""
","""event"",""trial"",""time""
""focus"",""1"",""5584""
","""event"",""trial"",""time""
""fullscreenenter"",""1"",""5685""
","
","","","-1","","","19","1072","691","&#9854;","elianto","#FFFFF080","-1","-1","1","&#10004","[]","0","0","1","","","","","","","","",""
"pit-trial","15","252137","0.0-2.0-6.1-0.1","battery-v0.2","","""event"",""trial"",""time""
""blur"",""1"",""3705""
""focus"",""1"",""5584""
""fullscreenenter"",""1"",""5685""
","""event"",""trial"",""time""
""blur"",""1"",""3705""
","""event"",""trial"",""time""
""focus"",""1"",""5584""
","""event"",""trial"",""time""
""fullscreenenter"",""1"",""5685""
","
","","","-1","","","19","1072","691","&#9854;","elianto","#FFFFF080","-1","-1","1","&#10004","[]","0","0","1","","","","","","","","",""
"pit-trial","16","257004","0.0-2.0-6.2-0.2","battery-v0.2","","""event"",""trial"",""time""
""blur"",""1"",""3705""
""focus"",""1"",""5584""
""fullscreenenter"",""1"",""5685""
","""event"",""trial"",""time""
""blur"",""1"",""3705""
","""event"",""trial"",""time""
""focus"",""1"",""5584""
","""event"",""trial"",""time""
""fullscreenenter"",""1"",""5685""
","
","","","-1","","","19","1072","691","&#9854;","elianto","#FFFFF080","-1","-1","1","&#10004","[]","0","0","1","","","","","","","","",""
"pit-trial","17","261863","0.0-2.0-6.3-0.3","battery-v0.2","","""event"",""trial"",""time""
""blur"",""1"",""3705""
""focus"",""1"",""5584""
""fullscreenenter"",""1"",""5685""
","""event"",""trial"",""time""
""blur"",""1"",""3705""
","""event"",""trial"",""time""
""focus"",""1"",""5584""
","""event"",""trial"",""time""
""fullscreenenter"",""1"",""5685""
","
","","","-1","","","19","1072","691","&#9854;","elianto","#FFFFF080","-1","-1","1","&#10004","[]","0","0","1","","","","","","","","",""
"pit-trial","18","266730","0.0-2.0-6.4-0.4","battery-v0.2","","""event"",""trial"",""time""
""blur"",""1"",""3705""
""focus"",""1"",""5584""
""fullscreenenter"",""1"",""5685""
","""event"",""trial"",""time""
""blur"",""1"",""3705""
","""event"",""trial"",""time""
""focus"",""1"",""5584""
","""event"",""trial"",""time""
""fullscreenenter"",""1"",""5685""
","
","","","-1","","","19","1072","691","&#9854;","elianto","#FFFFF080","-1","-1","1","&#10004","[]","0","0","1","","","","","","","","",""
"pit-instructions","19","474110","0.0-2.0-7.0","battery-v0.2","","""event"",""trial"",""time""
""blur"",""1"",""3705""
""focus"",""1"",""5584""
""fullscreenenter"",""1"",""5685""
","""event"",""trial"",""time""
""blur"",""1"",""3705""
","""event"",""trial"",""time""
""focus"",""1"",""5584""
","""event"",""trial"",""time""
""fullscreenenter"",""1"",""5685""
","
","","[{""page_index"":0,""viewing_time"":50434.699999928474},{""page_index"":1,""viewing_time"":17040},{""page_index"":2,""viewing_time"":30528},{""page_index"":3,""viewing_time"":11031.899999976158},{""page_index"":4,""viewing_time"":5680},{""page_index"":5,""viewing_time"":5752.100000023842},{""page_index"":6,""viewing_time"":4376.200000047684},{""page_index"":7,""viewing_time"":7527.899999976158},{""page_index"":8,""viewing_time"":6296},{""page_index"":9,""viewing_time"":15615.899999976158},{""page_index"":10,""viewing_time"":6223.800000071526},{""page_index"":11,""viewing_time"":7418.5},{""page_index"":12,""viewing_time"":6382.099999904633},{""page_index"":13,""viewing_time"":6879.5},{""page_index"":14,""viewing_time"":6896},{""page_index"":15,""viewing_time"":6489.800000071526},{""page_index"":16,""viewing_time"":6182.399999976158},{""page_index"":17,""viewing_time"":6600.100000023842}]","207355.19999992847","","","","","","","","","","","","","","","","","","","","","","","","",""
"pit-trial","20","478968","0.0-2.0-8.0-0.0","battery-v0.2","","""event"",""trial"",""time""
""blur"",""1"",""3705""
""focus"",""1"",""5584""
""fullscreenenter"",""1"",""5685""
","""event"",""trial"",""time""
""blur"",""1"",""3705""
","""event"",""trial"",""time""
""focus"",""1"",""5584""
","""event"",""trial"",""time""
""fullscreenenter"",""1"",""5685""
","
","","","-1","","","19","1072","691","&#9776;","elianto","#3366ff99"," ","-1","0","0","[]","0","0","1","","","","","","","","",""
"pit-trial","21","482485","0.0-2.0-8.0-1.0","battery-v0.2","","""event"",""trial"",""time""
""blur"",""1"",""3705""
""focus"",""1"",""5584""
""fullscreenenter"",""1"",""5685""
","""event"",""trial"",""time""
""blur"",""1"",""3705""
","""event"",""trial"",""time""
""focus"",""1"",""5584""
","""event"",""trial"",""time""
""fullscreenenter"",""1"",""5685""
","
","","","659.1999999284744","","","19","1072","691","&#9776;","elianto","#3366ff99"," "," ","1","+10","[1509.6999999284744]","1","0","1","","","","","","","","",""
"pit-trial","22","485922","0.0-2.0-8.0-2.0","battery-v0.2","","""event"",""trial"",""time""
""blur"",""1"",""3705""
""focus"",""1"",""5584""
""fullscreenenter"",""1"",""5685""
","""event"",""trial"",""time""
""blur"",""1"",""3705""
","""event"",""trial"",""time""
""focus"",""1"",""5584""
","""event"",""trial"",""time""
""fullscreenenter"",""1"",""5685""
","
","","","570.5999999046326","","","19","1072","691","&#9776;","elianto","#3366ff99"," "," ","1","+10","[1423.2000000476837]","1","0","1","","","","","","","","",""
"pit-trial","23","489412","0.0-2.0-8.0-3.0","battery-v0.2","","""event"",""trial"",""time""
""blur"",""1"",""3705""
""focus"",""1"",""5584""
""fullscreenenter"",""1"",""5685""
","""event"",""trial"",""time""
""blur"",""1"",""3705""
","""event"",""trial"",""time""
""focus"",""1"",""5584""
","""event"",""trial"",""time""
""fullscreenenter"",""1"",""5685""
","
","","","619.6999999284744","","","19","1072","691","&#9776;","elianto","#3366ff99"," "," ","1","0","[1470.7999999523163]","1","0","1","","","","","","","","",""
"pit-trial","24","492779","0.0-2.0-8.0-4.0","battery-v0.2","","""event"",""trial"",""time""
""blur"",""1"",""3705""
""focus"",""1"",""5584""
""fullscreenenter"",""1"",""5685""
","""event"",""trial"",""time""
""blur"",""1"",""3705""
","""event"",""trial"",""time""
""focus"",""1"",""5584""
","""event"",""trial"",""time""
""fullscreenenter"",""1"",""5685""
","
","","","503.39999997615814","","","19","1072","691","&#9776;","elianto","#3366ff99"," "," ","1","+10","[1354.5]","1","0","1","","","","","","","","",""
"call-function","25","492794","0.0-2.0-9.0","battery-v0.2","","""event"",""trial"",""time""
""blur"",""1"",""3705""
""focus"",""1"",""5584""
""fullscreenenter"",""1"",""5685""
","""event"",""trial"",""time""
""blur"",""1"",""3705""
","""event"",""trial"",""time""
""focus"",""1"",""5584""
","""event"",""trial"",""time""
""fullscreenenter"",""1"",""5685""
","
","","","","","","","","","","","","","","","","","","","","","","","","","","","",""
"pit-instructions","26","534005","0.0-2.0-10.0","battery-v0.2","","""event"",""trial"",""time""
""blur"",""1"",""3705""
""focus"",""1"",""5584""
""fullscreenenter"",""1"",""5685""
","""event"",""trial"",""time""
""blur"",""1"",""3705""
","""event"",""trial"",""time""
""focus"",""1"",""5584""
","""event"",""trial"",""time""
""fullscreenenter"",""1"",""5685""
","
","","[{""page_index"":0,""viewing_time"":6466.100000023842},{""page_index"":1,""viewing_time"":7167.600000023842},{""page_index"":2,""viewing_time"":9767.899999976158},{""page_index"":3,""viewing_time"":10480.700000047684},{""page_index"":4,""viewing_time"":7327.600000023842}]","41210.200000047684","","","","","","","","","","","","","","","","","","","","","","","","",""
"pit-trial","27","538865","0.0-2.0-11.0-0.0","battery-v0.2","","""event"",""trial"",""time""
""blur"",""1"",""3705""
""focus"",""1"",""5584""
""fullscreenenter"",""1"",""5685""
","""event"",""trial"",""time""
""blur"",""1"",""3705""
","""event"",""trial"",""time""
""focus"",""1"",""5584""
","""event"",""trial"",""time""
""fullscreenenter"",""1"",""5685""
","
","","","-1","","","19","1072","691","&#9761;","elianto","#3366ff99","-1","-1","1","+10","[]","0","0","2","","","","","","","","",""
"pit-trial","28","542261","0.0-2.0-11.0-1.0","battery-v0.2","","""event"",""trial"",""time""
""blur"",""1"",""3705""
""focus"",""1"",""5584""
""fullscreenenter"",""1"",""5685""
","""event"",""trial"",""time""
""blur"",""1"",""3705""
","""event"",""trial"",""time""
""focus"",""1"",""5584""
","""event"",""trial"",""time""
""fullscreenenter"",""1"",""5685""
","
","","","531.2999999523163","","","19","1072","691","&#9761;","elianto","#3366ff99","-1"," ","0","0","[1383.0999999046326]","1","0","2","","","","","","","","",""
"pit-trial","29","547124","0.0-2.0-11.0-2.0","battery-v0.2","","""event"",""trial"",""time""
""blur"",""1"",""3705""
""focus"",""1"",""5584""
""fullscreenenter"",""1"",""5685""
","""event"",""trial"",""time""
""blur"",""1"",""3705""
","""event"",""trial"",""time""
""focus"",""1"",""5584""
","""event"",""trial"",""time""
""fullscreenenter"",""1"",""5685""
","
","","","-1","","","19","1072","691","&#9761;","elianto","#3366ff99","-1","-1","1","+10","[]","0","0","2","","","","","","","","",""
"pit-trial","30","551994","0.0-2.0-11.0-3.0","battery-v0.2","","""event"",""trial"",""time""
""blur"",""1"",""3705""
""focus"",""1"",""5584""
""fullscreenenter"",""1"",""5685""
","""event"",""trial"",""time""
""blur"",""1"",""3705""
","""event"",""trial"",""time""
""focus"",""1"",""5584""
","""event"",""trial"",""time""
""fullscreenenter"",""1"",""5685""
","
","","","-1","","","19","1072","691","&#9761;","elianto","#3366ff99","-1","-1","1","0","[]","0","0","2","","","","","","","","",""
"pit-trial","31","556852","0.0-2.0-11.0-4.0","battery-v0.2","","""event"",""trial"",""time""
""blur"",""1"",""3705""
""focus"",""1"",""5584""
""fullscreenenter"",""1"",""5685""
","""event"",""trial"",""time""
""blur"",""1"",""3705""
","""event"",""trial"",""time""
""focus"",""1"",""5584""
","""event"",""trial"",""time""
""fullscreenenter"",""1"",""5685""
","
","","","-1","","","19","1072","691","&#9761;","elianto","#3366ff99","-1","-1","1","+10","[]","0","0","2","","","","","","","","",""
"pit-trial","32","561713","0.0-2.0-11.1-0.1","battery-v0.2","","""event"",""trial"",""time""
""blur"",""1"",""3705""
""focus"",""1"",""5584""
""fullscreenenter"",""1"",""5685""
","""event"",""trial"",""time""
""blur"",""1"",""3705""
","""event"",""trial"",""time""
""focus"",""1"",""5584""
","""event"",""trial"",""time""
""fullscreenenter"",""1"",""5685""
","
","","","-1","","","19","1072","691","&#9761;","elianto","#3366ff99","-1","-1","1","+10","[]","0","0","2","","","","","","","","",""
"pit-trial","33","566586","0.0-2.0-11.1-1.1","battery-v0.2","","""event"",""trial"",""time""
""blur"",""1"",""3705""
""focus"",""1"",""5584""
""fullscreenenter"",""1"",""5685""
","""event"",""trial"",""time""
""blur"",""1"",""3705""
","""event"",""trial"",""time""
""focus"",""1"",""5584""
","""event"",""trial"",""time""
""fullscreenenter"",""1"",""5685""
","
","","","-1","","","19","1072","691","&#9761;","elianto","#3366ff99","-1","-1","1","+10","[]","0","0","2","","","","","","","","",""
"pit-trial","34","571453","0.0-2.0-11.1-2.1","battery-v0.2","","""event"",""trial"",""time""
""blur"",""1"",""3705""
""focus"",""1"",""5584""
""fullscreenenter"",""1"",""5685""
","""event"",""trial"",""time""
""blur"",""1"",""3705""
","""event"",""trial"",""time""
""focus"",""1"",""5584""
","""event"",""trial"",""time""
""fullscreenenter"",""1"",""5685""
","
","","","-1","","","19","1072","691","&#9761;","elianto","#3366ff99","-1","-1","1","+10","[]","0","0","2","","","","","","","","",""
"pit-trial","35","576314","0.0-2.0-11.1-3.1","battery-v0.2","","""event"",""trial"",""time""
""blur"",""1"",""3705""
""focus"",""1"",""5584""
""fullscreenenter"",""1"",""5685""
","""event"",""trial"",""time""
""blur"",""1"",""3705""
","""event"",""trial"",""time""
""focus"",""1"",""5584""
","""event"",""trial"",""time""
""fullscreenenter"",""1"",""5685""
","
","","","-1","","","19","1072","691","&#9761;","elianto","#3366ff99","-1","-1","1","0","[]","0","0","2","","","","","","","","",""
"pit-trial","36","581181","0.0-2.0-11.1-4.1","battery-v0.2","","""event"",""trial"",""time""
""blur"",""1"",""3705""
""focus"",""1"",""5584""
""fullscreenenter"",""1"",""5685""
","""event"",""trial"",""time""
""blur"",""1"",""3705""
","""event"",""trial"",""time""
""focus"",""1"",""5584""
","""event"",""trial"",""time""
""fullscreenenter"",""1"",""5685""
","
","","","-1","","","19","1072","691","&#9761;","elianto","#3366ff99","-1","-1","1","+10","[]","0","0","2","","","","","","","","",""
"call-function","37","581196","0.0-2.0-12.0","battery-v0.2","","""event"",""trial"",""time""
""blur"",""1"",""3705""
""focus"",""1"",""5584""
""fullscreenenter"",""1"",""5685""
","""event"",""trial"",""time""
""blur"",""1"",""3705""
","""event"",""trial"",""time""
""focus"",""1"",""5584""
","""event"",""trial"",""time""
""fullscreenenter"",""1"",""5685""
","
","","","","","","","","","","","","","","","","","","","","","","","","","","","",""
"pit-instructions","38","618062","0.0-2.0-13.0","battery-v0.2","","""event"",""trial"",""time""
""blur"",""1"",""3705""
""focus"",""1"",""5584""
""fullscreenenter"",""1"",""5685""
","""event"",""trial"",""time""
""blur"",""1"",""3705""
","""event"",""trial"",""time""
""focus"",""1"",""5584""
","""event"",""trial"",""time""
""fullscreenenter"",""1"",""5685""
","
","","[{""page_index"":0,""viewing_time"":6776.599999904633},{""page_index"":1,""viewing_time"":7055.400000095367},{""page_index"":2,""viewing_time"":3904.5999999046326},{""page_index"":3,""viewing_time"":12815.800000071526},{""page_index"":4,""viewing_time"":6312.299999952316}]","36865","","","","","","","","","","","","","","","","","","","","","","","","",""
"pit-trial","39","621903","0.0-2.0-14.0-0.0","battery-v0.2","","""event"",""trial"",""time""
""blur"",""1"",""3705""
""focus"",""1"",""5584""
""fullscreenenter"",""1"",""5685""
","""event"",""trial"",""time""
""blur"",""1"",""3705""
","""event"",""trial"",""time""
""focus"",""1"",""5584""
","""event"",""trial"",""time""
""fullscreenenter"",""1"",""5685""
","
","","","982.8000000715256","","","19","1072","691","&#9826;","elianto","#f73b6a7A","-1"," ","0","-10","[1833.7000000476837]","1","0","3","","","","","","","","",""
"pit-trial","40","626768","0.0-2.0-14.0-1.0","battery-v0.2","","""event"",""trial"",""time""
""blur"",""1"",""3705""
""focus"",""1"",""5584""
""fullscreenenter"",""1"",""5685""
","""event"",""trial"",""time""
""blur"",""1"",""3705""
","""event"",""trial"",""time""
""focus"",""1"",""5584""
","""event"",""trial"",""time""
""fullscreenenter"",""1"",""5685""
","
","","","-1","","","19","1072","691","&#9826;","elianto","#f73b6a7A","-1","-1","1","0","[]","0","0","3","","","","","","","","",""
"pit-trial","41","631639","0.0-2.0-14.0-2.0","battery-v0.2","","""event"",""trial"",""time""
""blur"",""1"",""3705""
""focus"",""1"",""5584""
""fullscreenenter"",""1"",""5685""
","""event"",""trial"",""time""
""blur"",""1"",""3705""
","""event"",""trial"",""time""
""focus"",""1"",""5584""
","""event"",""trial"",""time""
""fullscreenenter"",""1"",""5685""
","
","","","-1","","","19","1072","691","&#9826;","elianto","#f73b6a7A","-1","-1","1","0","[]","0","0","3","","","","","","","","",""
"pit-trial","42","636511","0.0-2.0-14.0-3.0","battery-v0.2","","""event"",""trial"",""time""
""blur"",""1"",""3705""
""focus"",""1"",""5584""
""fullscreenenter"",""1"",""5685""
","""event"",""trial"",""time""
""blur"",""1"",""3705""
","""event"",""trial"",""time""
""focus"",""1"",""5584""
","""event"",""trial"",""time""
""fullscreenenter"",""1"",""5685""
","
","","","-1","","","19","1072","691","&#9826;","elianto","#f73b6a7A","-1","-1","1","-10","[]","0","0","3","","","","","","","","",""
"pit-trial","43","641371","0.0-2.0-14.0-4.0","battery-v0.2","","""event"",""trial"",""time""
""blur"",""1"",""3705""
""focus"",""1"",""5584""
""fullscreenenter"",""1"",""5685""
","""event"",""trial"",""time""
""blur"",""1"",""3705""
","""event"",""trial"",""time""
""focus"",""1"",""5584""
","""event"",""trial"",""time""
""fullscreenenter"",""1"",""5685""
","
","","","-1","","","19","1072","691","&#9826;","elianto","#f73b6a7A","-1","-1","1","0","[]","0","0","3","","","","","","","","",""
"call-function","44","641380","0.0-2.0-15.0","battery-v0.2","","""event"",""trial"",""time""
""blur"",""1"",""3705""
""focus"",""1"",""5584""
""fullscreenenter"",""1"",""5685""
","""event"",""trial"",""time""
""blur"",""1"",""3705""
","""event"",""trial"",""time""
""focus"",""1"",""5584""
","""event"",""trial"",""time""
""fullscreenenter"",""1"",""5685""
","
","","","","","","","","","","","","","","","","","","","","","","","","","","","",""
"pit-instructions","45","704254","0.0-2.0-16.0","battery-v0.2","","""event"",""trial"",""time""
""blur"",""1"",""3705""
""focus"",""1"",""5584""
""fullscreenenter"",""1"",""5685""
","""event"",""trial"",""time""
""blur"",""1"",""3705""
","""event"",""trial"",""time""
""focus"",""1"",""5584""
","""event"",""trial"",""time""
""fullscreenenter"",""1"",""5685""
","
","","[{""page_index"":0,""viewing_time"":6520.199999928474},{""page_index"":1,""viewing_time"":11040.200000047684},{""page_index"":2,""viewing_time"":23704.100000023842},{""page_index"":3,""viewing_time"":21607.699999928474}]","62872.5","","","","","","","","","","","","","","","","","","","","","","","","",""
"pit-trial","46","708410","0.0-2.0-17.0-0.0","battery-v0.2","","""event"",""trial"",""time""
""blur"",""1"",""3705""
""focus"",""1"",""5584""
""fullscreenenter"",""1"",""5685""
","""event"",""trial"",""time""
""blur"",""1"",""3705""
","""event"",""trial"",""time""
""focus"",""1"",""5584""
","""event"",""trial"",""time""
""fullscreenenter"",""1"",""5685""
","
","","","1297","","","19","1072","691","&#9789;","elianto","#f73b6a7A"," "," ","1","0","[2148.399999976158]","1","0","4","","","","","","","","",""
"pit-trial","47","711576","0.0-2.0-17.0-1.0","battery-v0.2","","""event"",""trial"",""time""
""blur"",""1"",""3705""
""focus"",""1"",""5584""
""fullscreenenter"",""1"",""5685""
","""event"",""trial"",""time""
""blur"",""1"",""3705""
","""event"",""trial"",""time""
""focus"",""1"",""5584""
","""event"",""trial"",""time""
""fullscreenenter"",""1"",""5685""
","
","","","308.39999997615814","","","19","1072","691","&#9789;","elianto","#f73b6a7A"," "," ","1","0","[1158.8999999761581]","1","0","4","","","","","","","","",""
"pit-trial","48","715072","0.0-2.0-17.0-2.0","battery-v0.2","","""event"",""trial"",""time""
""blur"",""1"",""3705""
""focus"",""1"",""5584""
""fullscreenenter"",""1"",""5685""
","""event"",""trial"",""time""
""blur"",""1"",""3705""
","""event"",""trial"",""time""
""focus"",""1"",""5584""
","""event"",""trial"",""time""
""fullscreenenter"",""1"",""5685""
","
","","","634","","","19","1072","691","&#9789;","elianto","#f73b6a7A"," "," ","1","0","[1484.8000000715256]","1","0","4","","","","","","","","",""
"pit-trial","49","718193","0.0-2.0-17.0-3.0","battery-v0.2","","""event"",""trial"",""time""
""blur"",""1"",""3705""
""focus"",""1"",""5584""
""fullscreenenter"",""1"",""5685""
","""event"",""trial"",""time""
""blur"",""1"",""3705""
","""event"",""trial"",""time""
""focus"",""1"",""5584""
","""event"",""trial"",""time""
""fullscreenenter"",""1"",""5685""
","
","","","264.09999990463257","","","19","1072","691","&#9789;","elianto","#f73b6a7A"," "," ","1","-10","[1114.1000000238419]","1","0","4","","","","","","","","",""
"pit-trial","50","721255","0.0-2.0-17.0-4.0","battery-v0.2","","""event"",""trial"",""time""
""blur"",""1"",""3705""
""focus"",""1"",""5584""
""fullscreenenter"",""1"",""5685""
","""event"",""trial"",""time""
""blur"",""1"",""3705""
","""event"",""trial"",""time""
""focus"",""1"",""5584""
","""event"",""trial"",""time""
""fullscreenenter"",""1"",""5685""
","
","","","193.5","","","19","1072","691","&#9789;","elianto","#f73b6a7A"," "," ","1","0","[1045.6000000238419]","1","0","4","","","","","","","","",""
"call-function","51","721272","0.0-2.0-18.0","battery-v0.2","","""event"",""trial"",""time""
""blur"",""1"",""3705""
""focus"",""1"",""5584""
""fullscreenenter"",""1"",""5685""
","""event"",""trial"",""time""
""blur"",""1"",""3705""
","""event"",""trial"",""time""
""focus"",""1"",""5584""
","""event"",""trial"",""time""
""fullscreenenter"",""1"",""5685""
","
","","","","","","","","","","","","","","","","","","","","","","","","","","","",""
"pit-instructions","52","965269","0.0-2.0-19.0","battery-v0.2","","""event"",""trial"",""time""
""blur"",""1"",""3705""
""focus"",""1"",""5584""
""fullscreenenter"",""1"",""5685""
","""event"",""trial"",""time""
""blur"",""1"",""3705""
","""event"",""trial"",""time""
""focus"",""1"",""5584""
","""event"",""trial"",""time""
""fullscreenenter"",""1"",""5685""
","
","","[{""page_index"":0,""viewing_time"":6771.900000095367},{""page_index"":1,""viewing_time"":7712.5},{""page_index"":0,""viewing_time"":3047.399999976158},{""page_index"":1,""viewing_time"":6272.699999928474},{""page_index"":2,""viewing_time"":25696.200000047684},{""page_index"":3,""viewing_time"":7951.200000047684},{""page_index"":4,""viewing_time"":138889.39999997616},{""page_index"":5,""viewing_time"":8054.600000023842},{""page_index"":6,""viewing_time"":11760.199999928474},{""page_index"":7,""viewing_time"":12727.600000023842},{""page_index"":8,""viewing_time"":15112.100000023842}]","243996.10000002384","","","","","","","","","","","","","","","","","","","","","","","","",""
"pit-comprehension","53","975182","0.0-2.0-20.0-0.0","battery-v0.2","","""event"",""trial"",""time""
""blur"",""1"",""3705""
""focus"",""1"",""5584""
""fullscreenenter"",""1"",""5685""
","""event"",""trial"",""time""
""blur"",""1"",""3705""
","""event"",""trial"",""time""
""focus"",""1"",""5584""
","""event"",""trial"",""time""
""fullscreenenter"",""1"",""5685""
","
","","","9905.100000023842","[""SPACE""]","0","19","1072","691","","","","","","","","","","","","","","","","","","","",""
"pit-instructions","54","977759","0.0-2.0-20.0-1.0","battery-v0.2","","""event"",""trial"",""time""
""blur"",""1"",""3705""
""focus"",""1"",""5584""
""fullscreenenter"",""1"",""5685""
","""event"",""trial"",""time""
""blur"",""1"",""3705""
","""event"",""trial"",""time""
""focus"",""1"",""5584""
","""event"",""trial"",""time""
""fullscreenenter"",""1"",""5685""
","
","","[{""page_index"":0,""viewing_time"":2543.100000023842}]","2543.5","","","","","","","","","","","","","","","","","","","","","","","","",""
"pit-comprehension","55","982255","0.0-2.0-21.0-0.0","battery-v0.2","","""event"",""trial"",""time""
""blur"",""1"",""3705""
""focus"",""1"",""5584""
""fullscreenenter"",""1"",""5685""
","""event"",""trial"",""time""
""blur"",""1"",""3705""
","""event"",""trial"",""time""
""focus"",""1"",""5584""
","""event"",""trial"",""time""
""fullscreenenter"",""1"",""5685""
","
","","","4489.899999976158","[""10""]","0","19","1072","691","","","","","","","","","","","","","","","","","","","",""
"pit-instructions","56","984031","0.0-2.0-21.0-1.0","battery-v0.2","","""event"",""trial"",""time""
""blur"",""1"",""3705""
""focus"",""1"",""5584""
""fullscreenenter"",""1"",""5685""
","""event"",""trial"",""time""
""blur"",""1"",""3705""
","""event"",""trial"",""time""
""focus"",""1"",""5584""
","""event"",""trial"",""time""
""fullscreenenter"",""1"",""5685""
","
","","[{""page_index"":0,""viewing_time"":1745.7000000476837}]","1746.3999999761581","","","","","","","","","","","","","","","","","","","","","","","","",""
"pit-comprehension","57","990383","0.0-2.0-22.0-0.0","battery-v0.2","","""event"",""trial"",""time""
""blur"",""1"",""3705""
""focus"",""1"",""5584""
""fullscreenenter"",""1"",""5685""
","""event"",""trial"",""time""
""blur"",""1"",""3705""
","""event"",""trial"",""time""
""focus"",""1"",""5584""
","""event"",""trial"",""time""
""fullscreenenter"",""1"",""5685""
","
","","","6340.600000023842","[""0""]","0","19","1072","691","","","","","","","","","","","","","","","","","","","",""
"pit-instructions","58","991590","0.0-2.0-22.0-1.0","battery-v0.2","","""event"",""trial"",""time""
""blur"",""1"",""3705""
""focus"",""1"",""5584""
""fullscreenenter"",""1"",""5685""
","""event"",""trial"",""time""
""blur"",""1"",""3705""
","""event"",""trial"",""time""
""focus"",""1"",""5584""
","""event"",""trial"",""time""
""fullscreenenter"",""1"",""5685""
","
","","[{""page_index"":0,""viewing_time"":1174.7000000476837}]","1174.8999999761581","","","","","","","","","","","","","","","","","","","","","","","","",""
"pit-comprehension","59","999863","0.0-2.0-23.0-0.0","battery-v0.2","","""event"",""trial"",""time""
""blur"",""1"",""3705""
""focus"",""1"",""5584""
""fullscreenenter"",""1"",""5685""
","""event"",""trial"",""time""
""blur"",""1"",""3705""
","""event"",""trial"",""time""
""focus"",""1"",""5584""
","""event"",""trial"",""time""
""fullscreenenter"",""1"",""5685""
","
","","","8264.399999976158","[""True""]","0","19","1072","691","","","","","","","","","","","","","","","","","","","",""
"pit-instructions","60","1005422","0.0-2.0-23.0-1.0","battery-v0.2","","""event"",""trial"",""time""
""blur"",""1"",""3705""
""focus"",""1"",""5584""
""fullscreenenter"",""1"",""5685""
","""event"",""trial"",""time""
""blur"",""1"",""3705""
","""event"",""trial"",""time""
""focus"",""1"",""5584""
","""event"",""trial"",""time""
""fullscreenenter"",""1"",""5685""
","
","","[{""page_index"":0,""viewing_time"":5524.399999976158}]","5524.799999952316","","","","","","","","","","","","","","","","","","","","","","","","",""
"pit-comprehension","61","1013624","0.0-2.0-24.0-0.0","battery-v0.2","","""event"",""trial"",""time""
""blur"",""1"",""3705""
""focus"",""1"",""5584""
""fullscreenenter"",""1"",""5685""
","""event"",""trial"",""time""
""blur"",""1"",""3705""
","""event"",""trial"",""time""
""focus"",""1"",""5584""
","""event"",""trial"",""time""
""fullscreenenter"",""1"",""5685""
","
","","","8194","[""True""]","0","19","1072","691","","","","","","","","","","","","","","","","","","","",""
"pit-instructions","62","1015166","0.0-2.0-24.0-1.0","battery-v0.2","","""event"",""trial"",""time""
""blur"",""1"",""3705""
""focus"",""1"",""5584""
""fullscreenenter"",""1"",""5685""
","""event"",""trial"",""time""
""blur"",""1"",""3705""
","""event"",""trial"",""time""
""focus"",""1"",""5584""
","""event"",""trial"",""time""
""fullscreenenter"",""1"",""5685""
","
","","[{""page_index"":0,""viewing_time"":1505.5}]","1505.8999999761581","","","","","","","","","","","","","","","","","","","","","","","","",""
"pit-comprehension","63","1021559","0.0-2.0-25.0-0.0","battery-v0.2","","""event"",""trial"",""time""
""blur"",""1"",""3705""
""focus"",""1"",""5584""
""fullscreenenter"",""1"",""5685""
","""event"",""trial"",""time""
""blur"",""1"",""3705""
","""event"",""trial"",""time""
""focus"",""1"",""5584""
","""event"",""trial"",""time""
""fullscreenenter"",""1"",""5685""
","
","","","6384.899999976158","[""True""]","0","19","1072","691","","","","","","","","","","","","","","","","","","","",""
"pit-instructions","64","1022846","0.0-2.0-25.0-1.0","battery-v0.2","","""event"",""trial"",""time""
""blur"",""1"",""3705""
""focus"",""1"",""5584""
""fullscreenenter"",""1"",""5685""
","""event"",""trial"",""time""
""blur"",""1"",""3705""
","""event"",""trial"",""time""
""focus"",""1"",""5584""
","""event"",""trial"",""time""
""fullscreenenter"",""1"",""5685""
","
","","[{""page_index"":0,""viewing_time"":1256}]","1256.3000000715256","","","","","","","","","","","","","","","","","","","","","","","","",""
"pit-comprehension","65","1027191","0.0-2.0-26.0-0.0","battery-v0.2","","""event"",""trial"",""time""
""blur"",""1"",""3705""
""focus"",""1"",""5584""
""fullscreenenter"",""1"",""5685""
","""event"",""trial"",""time""
""blur"",""1"",""3705""
","""event"",""trial"",""time""
""focus"",""1"",""5584""
","""event"",""trial"",""time""
""fullscreenenter"",""1"",""5685""
","
","","","4337.600000023842","[""False""]","0","19","1072","691","","","","","","","","","","","","","","","","","","","",""
"pit-instructions","66","1028262","0.0-2.0-26.0-1.0","battery-v0.2","","""event"",""trial"",""time""
""blur"",""1"",""3705""
""focus"",""1"",""5584""
""fullscreenenter"",""1"",""5685""
","""event"",""trial"",""time""
""blur"",""1"",""3705""
","""event"",""trial"",""time""
""focus"",""1"",""5584""
","""event"",""trial"",""time""
""fullscreenenter"",""1"",""5685""
","
","","[{""page_index"":0,""viewing_time"":1039.6000000238419}]","1039.8999999761581","","","","","","","","","","","","","","","","","","","","","","","","",""
"pit-instructions","67","1047774","0.0-3.0","battery-v0.2","","""event"",""trial"",""time""
""blur"",""1"",""3705""
""focus"",""1"",""5584""
""fullscreenenter"",""1"",""5685""
","""event"",""trial"",""time""
""blur"",""1"",""3705""
","""event"",""trial"",""time""
""focus"",""1"",""5584""
","""event"",""trial"",""time""
""fullscreenenter"",""1"",""5685""
","
","","[{""page_index"":0,""viewing_time"":3522.3000000715256},{""page_index"":1,""viewing_time"":8376.299999952316},{""page_index"":2,""viewing_time"":7607.799999952316}]","19506.700000047684","","","","","","","","","","","","","","","","","","","","","","","","",""
"pit-trial","68","1051311","0.0-4.0","battery-v0.2","","""event"",""trial"",""time""
""blur"",""1"",""3705""
""focus"",""1"",""5584""
""fullscreenenter"",""1"",""5685""
","""event"",""trial"",""time""
""blur"",""1"",""3705""
","""event"",""trial"",""time""
""focus"",""1"",""5584""
","""event"",""trial"",""time""
""fullscreenenter"",""1"",""5685""
","
","","","675.7999999523163","","","19","1072","691","&#9733;","elianto","#3366ff99","-1"," ","0","+10","[1526.7999999523163]","1","1","","","1072","1","2","2","win","no-go","1","[]"
"pit-trial","69","1054985","0.0-5.0","battery-v0.2","","""event"",""trial"",""time""
""blur"",""1"",""3705""
""focus"",""1"",""5584""
""fullscreenenter"",""1"",""5685""
","""event"",""trial"",""time""
""blur"",""1"",""3705""
","""event"",""trial"",""time""
""focus"",""1"",""5584""
","""event"",""trial"",""time""
""fullscreenenter"",""1"",""5685""
","
","","","805","","","19","1072","691","&#9730;","elianto","#3366ff99"," "," ","1","+10","[1656.5]","1","1","","","1072","2","1","1","win","go","0","0"
"pit-trial","70","1059082","0.0-6.0","battery-v0.2","","""event"",""trial"",""time""
""blur"",""1"",""3705""
""focus"",""1"",""5584""
""fullscreenenter"",""1"",""5685""
","""event"",""trial"",""time""
""blur"",""1"",""3705""
","""event"",""trial"",""time""
""focus"",""1"",""5584""
","""event"",""trial"",""time""
""fullscreenenter"",""1"",""5685""
","
","","","1229.5","","","19","1072","691","&#9728;","elianto","#f73b6a7A","-1"," ","0","0","[2080.2000000476837]","1","1","","","1072","3","0","4","lose","no-go","1","0"
"pit-trial","71","1063255","0.0-7.0","battery-v0.2","","""event"",""trial"",""time""
""blur"",""1"",""3705""
""focus"",""1"",""5584""
""fullscreenenter"",""1"",""5685""
","""event"",""trial"",""time""
""blur"",""1"",""3705""
","""event"",""trial"",""time""
""focus"",""1"",""5584""
","""event"",""trial"",""time""
""fullscreenenter"",""1"",""5685""
","
","","","1314.3999999761581","","","19","1072","691","&#9752;","elianto","#f73b6a7A"," "," ","1","0","[2164.7999999523163]","1","1","","","1072","4","3","3","lose","go","0","0"
"pit-trial","72","1068123","0.0-8.0","battery-v0.2","","""event"",""trial"",""time""
""blur"",""1"",""3705""
""focus"",""1"",""5584""
""fullscreenenter"",""1"",""5685""
","""event"",""trial"",""time""
""blur"",""1"",""3705""
","""event"",""trial"",""time""
""focus"",""1"",""5584""
","""event"",""trial"",""time""
""fullscreenenter"",""1"",""5685""
","
","","","-1","","","19","1072","691","&#9728;","elianto","#f73b6a7A","-1","-1","1","0","[]","0","1","","","1072","5","0","4","lose","no-go","0","0"
"pit-trial","73","1072992","0.0-9.0","battery-v0.2","","""event"",""trial"",""time""
""blur"",""1"",""3705""
""focus"",""1"",""5584""
""fullscreenenter"",""1"",""5685""
","""event"",""trial"",""time""
""blur"",""1"",""3705""
","""event"",""trial"",""time""
""focus"",""1"",""5584""
","""event"",""trial"",""time""
""fullscreenenter"",""1"",""5685""
","
","","","-1","","","19","1072","691","&#9752;","elianto","#f73b6a7A"," ","-1","0","-10","[]","0","1","","","1072","6","3","3","lose","go","0","0"
"pit-trial","74","1076832","0.0-10.0","battery-v0.2","","""event"",""trial"",""time""
""blur"",""1"",""3705""
""focus"",""1"",""5584""
""fullscreenenter"",""1"",""5685""
","""event"",""trial"",""time""
""blur"",""1"",""3705""
","""event"",""trial"",""time""
""focus"",""1"",""5584""
","""event"",""trial"",""time""
""fullscreenenter"",""1"",""5685""
","
","","","978","","","19","1072","691","&#9730;","elianto","#3366ff99"," "," ","1","0","[1828.8000000715256]","1","1","","","1072","7","1","1","win","go","1","0"
"pit-trial","75","1080672","0.0-11.0","battery-v0.2","","""event"",""trial"",""time""
""blur"",""1"",""3705""
""focus"",""1"",""5584""
""fullscreenenter"",""1"",""5685""
","""event"",""trial"",""time""
""blur"",""1"",""3705""
","""event"",""trial"",""time""
""focus"",""1"",""5584""
","""event"",""trial"",""time""
""fullscreenenter"",""1"",""5685""
","
","","","972.2999999523163","","","19","1072","691","&#9733;","elianto","#3366ff99","-1"," ","0","0","[1823.8999999761581]","1","1","","","1072","8","2","2","win","no-go","0","0"
"pit-trial","76","1084469","0.0-12.0","battery-v0.2","","""event"",""trial"",""time""
""blur"",""1"",""3705""
""focus"",""1"",""5584""
""fullscreenenter"",""1"",""5685""
","""event"",""trial"",""time""
""blur"",""1"",""3705""
","""event"",""trial"",""time""
""focus"",""1"",""5584""
","""event"",""trial"",""time""
""fullscreenenter"",""1"",""5685""
","
","","","929.6000000238419","","","19","1072","691","&#9730;","elianto","#3366ff99"," "," ","1","+10","[1780.1000000238419]","1","1","","","1072","9","1","1","win","go","0","0"
"pit-trial","77","1088498","0.0-13.0","battery-v0.2","","""event"",""trial"",""time""
""blur"",""1"",""3705""
""focus"",""1"",""5584""
""fullscreenenter"",""1"",""5685""
","""event"",""trial"",""time""
""blur"",""1"",""3705""
","""event"",""trial"",""time""
""focus"",""1"",""5584""
","""event"",""trial"",""time""
""fullscreenenter"",""1"",""5685""
","
","","","1158.7999999523163","","","19","1072","691","&#9752;","elianto","#f73b6a7A"," "," ","1","0","[2009.5]","1","1","","","1072","10","3","3","lose","go","0","0"
"pit-trial","78","1092017","0.0-14.0","battery-v0.2","","""event"",""trial"",""time""
""blur"",""1"",""3705""
""focus"",""1"",""5584""
""fullscreenenter"",""1"",""5685""
","""event"",""trial"",""time""
""blur"",""1"",""3705""
","""event"",""trial"",""time""
""focus"",""1"",""5584""
","""event"",""trial"",""time""
""fullscreenenter"",""1"",""5685""
","
","","","650","","","19","1072","691","&#9728;","elianto","#f73b6a7A","-1"," ","0","-10","[1500.3999999761581]","1","1","","","1072","11","0","4","lose","no-go","0","0"
"pit-trial","79","1096885","0.0-15.0","battery-v0.2","","""event"",""trial"",""time""
""blur"",""1"",""3705""
""focus"",""1"",""5584""
""fullscreenenter"",""1"",""5685""
","""event"",""trial"",""time""
""blur"",""1"",""3705""
","""event"",""trial"",""time""
""focus"",""1"",""5584""
","""event"",""trial"",""time""
""fullscreenenter"",""1"",""5685""
","
","","","-1","","","19","1072","691","&#9733;","elianto","#3366ff99","-1","-1","1","+10","[]","0","1","","","1072","12","2","2","win","no-go","0","0"
"pit-trial","80","1100581","0.0-16.0","battery-v0.2","","""event"",""trial"",""time""
""blur"",""1"",""3705""
""focus"",""1"",""5584""
""fullscreenenter"",""1"",""5685""
","""event"",""trial"",""time""
""blur"",""1"",""3705""
","""event"",""trial"",""time""
""focus"",""1"",""5584""
","""event"",""trial"",""time""
""fullscreenenter"",""1"",""5685""
","
","","","822.7999999523163","","","19","1072","691","&#9730;","elianto","#3366ff99"," "," ","1","+10","[1673.8999999761581]","1","1","","","1072","13","1","1","win","go","0","0"
"pit-trial","81","1105441","0.0-17.0","battery-v0.2","","""event"",""trial"",""time""
""blur"",""1"",""3705""
""focus"",""1"",""5584""
""fullscreenenter"",""1"",""5685""
","""event"",""trial"",""time""
""blur"",""1"",""3705""
","""event"",""trial"",""time""
""focus"",""1"",""5584""
","""event"",""trial"",""time""
""fullscreenenter"",""1"",""5685""
","
","","","-1","","","19","1072","691","&#9728;","elianto","#f73b6a7A","-1","-1","1","0","[]","0","1","","","1072","14","0","4","lose","no-go","0","0"
"pit-trial","82","1109061","0.0-18.0","battery-v0.2","","""event"",""trial"",""time""
""blur"",""1"",""3705""
""focus"",""1"",""5584""
""fullscreenenter"",""1"",""5685""
","""event"",""trial"",""time""
""blur"",""1"",""3705""
","""event"",""trial"",""time""
""focus"",""1"",""5584""
","""event"",""trial"",""time""
""fullscreenenter"",""1"",""5685""
","
","","","752.5","","","19","1072","691","&#9752;","elianto","#f73b6a7A"," "," ","1","0","[1603.5999999046326]","1","1","","","1072","15","3","3","lose","go","0","0"
"pit-trial","83","1113922","0.0-19.0","battery-v0.2","","""event"",""trial"",""time""
""blur"",""1"",""3705""
""focus"",""1"",""5584""
""fullscreenenter"",""1"",""5685""
","""event"",""trial"",""time""
""blur"",""1"",""3705""
","""event"",""trial"",""time""
""focus"",""1"",""5584""
","""event"",""trial"",""time""
""fullscreenenter"",""1"",""5685""
","
","","","-1","","","19","1072","691","&#9733;","elianto","#3366ff99","-1","-1","1","0","[]","0","1","","","1072","16","2","2","win","no-go","1","0"
"pit-trial","84","1118791","0.0-20.0","battery-v0.2","","""event"",""trial"",""time""
""blur"",""1"",""3705""
""focus"",""1"",""5584""
""fullscreenenter"",""1"",""5685""
","""event"",""trial"",""time""
""blur"",""1"",""3705""
","""event"",""trial"",""time""
""focus"",""1"",""5584""
","""event"",""trial"",""time""
""fullscreenenter"",""1"",""5685""
","
","","","-1","","","19","1072","691","&#9733;","elianto","#3366ff99","-1","-1","1","+10","[]","0","1","","","1072","17","2","2","win","no-go","0","0"
"pit-trial","85","1122288","0.0-21.0","battery-v0.2","","""event"",""trial"",""time""
""blur"",""1"",""3705""
""focus"",""1"",""5584""
""fullscreenenter"",""1"",""5685""
","""event"",""trial"",""time""
""blur"",""1"",""3705""
","""event"",""trial"",""time""
""focus"",""1"",""5584""
","""event"",""trial"",""time""
""fullscreenenter"",""1"",""5685""
","
","","","640","","","19","1072","691","&#9730;","elianto","#3366ff99"," "," ","1","+10","[1491.5]","1","1","","","1072","18","1","1","win","go","0","0"
"pit-trial","86","1127150","0.0-22.0","battery-v0.2","","""event"",""trial"",""time""
""blur"",""1"",""3705""
""focus"",""1"",""5584""
""fullscreenenter"",""1"",""5685""
","""event"",""trial"",""time""
""blur"",""1"",""3705""
","""event"",""trial"",""time""
""focus"",""1"",""5584""
","""event"",""trial"",""time""
""fullscreenenter"",""1"",""5685""
","
","","","-1","","","19","1072","691","&#9728;","elianto","#f73b6a7A","-1","-1","1","0","[]","0","1","","","1072","19","0","4","lose","no-go","0","0"
"pit-trial","87","1131205","0.0-23.0","battery-v0.2","","""event"",""trial"",""time""
""blur"",""1"",""3705""
""focus"",""1"",""5584""
""fullscreenenter"",""1"",""5685""
","""event"",""trial"",""time""
""blur"",""1"",""3705""
","""event"",""trial"",""time""
""focus"",""1"",""5584""
","""event"",""trial"",""time""
""fullscreenenter"",""1"",""5685""
","
","","","1188.2999999523163","","","19","1072","691","&#9752;","elianto","#f73b6a7A"," "," ","1","0","[2039.0999999046326]","1","1","","","1072","20","3","3","lose","go","0","0"
"pit-instructions","88","1189741","0.0-24.0","battery-v0.2","","""event"",""trial"",""time""
""blur"",""1"",""3705""
""focus"",""1"",""5584""
""fullscreenenter"",""1"",""5685""
","""event"",""trial"",""time""
""blur"",""1"",""3705""
","""event"",""trial"",""time""
""focus"",""1"",""5584""
","""event"",""trial"",""time""
""fullscreenenter"",""1"",""5685""
","
","","[{""page_index"":0,""viewing_time"":51587.39999997616},{""page_index"":1,""viewing_time"":6935.700000047684}]","58523.299999952316","","","","","","","","","","","","","","","","","","","","","","","","",""
"pit-trial","89","1194603","0.0-25.0","battery-v0.2","","""event"",""trial"",""time""
""blur"",""1"",""3705""
""focus"",""1"",""5584""
""fullscreenenter"",""1"",""5685""
","""event"",""trial"",""time""
""blur"",""1"",""3705""
","""event"",""trial"",""time""
""focus"",""1"",""5584""
","""event"",""trial"",""time""
""fullscreenenter"",""1"",""5685""
","
","","","-1","","","19","1072","691","y","elianto","#f73b6a7A","-1","-1","1","0","[]","0","2","","","1072","21","2","4","lose","no-go","0","0"
"pit-trial","90","1198241","0.0-26.0","battery-v0.2","","""event"",""trial"",""time""
""blur"",""1"",""3705""
""focus"",""1"",""5584""
""fullscreenenter"",""1"",""5685""
","""event"",""trial"",""time""
""blur"",""1"",""3705""
","""event"",""trial"",""time""
""focus"",""1"",""5584""
","""event"",""trial"",""time""
""fullscreenenter"",""1"",""5685""
","
","","","768.2999999523163","","","19","1072","691","m","elianto","#3366ff99","-1"," ","0","0","[1619.7000000476837]","1","2","","","1072","22","0","2","win","no-go","0","0"
"pit-trial","91","1203097","0.0-27.0","battery-v0.2","","""event"",""trial"",""time""
""blur"",""1"",""3705""
""focus"",""1"",""5584""
""fullscreenenter"",""1"",""5685""
","""event"",""trial"",""time""
""blur"",""1"",""3705""
","""event"",""trial"",""time""
""focus"",""1"",""5584""
","""event"",""trial"",""time""
""fullscreenenter"",""1"",""5685""
","
","","","-1","","","19","1072","691","r","elianto","#f73b6a7A"," ","-1","0","-10","[]","0","2","","","1072","23","1","3","lose","go","0","0"
"pit-trial","92","1206852","0.0-28.0","battery-v0.2","","""event"",""trial"",""time""
""blur"",""1"",""3705""
""focus"",""1"",""5584""
""fullscreenenter"",""1"",""5685""
","""event"",""trial"",""time""
""blur"",""1"",""3705""
","""event"",""trial"",""time""
""focus"",""1"",""5584""
","""event"",""trial"",""time""
""fullscreenenter"",""1"",""5685""
","
","","","895.7000000476837","","","19","1072","691","h","elianto","#3366ff99"," "," ","1","0","[1746.2999999523163]","1","2","","","1072","24","3","1","win","go","1","0"
"pit-trial","93","1211273","0.0-29.0","battery-v0.2","","""event"",""trial"",""time""
""blur"",""1"",""3705""
""focus"",""1"",""5584""
""fullscreenenter"",""1"",""5685""
","""event"",""trial"",""time""
""blur"",""1"",""3705""
","""event"",""trial"",""time""
""focus"",""1"",""5584""
","""event"",""trial"",""time""
""fullscreenenter"",""1"",""5685""
","
","","","1561.8000000715256","","","19","1072","691","r","elianto","#f73b6a7A"," "," ","1","0","[2412.2000000476837]","1","2","","","1072","25","1","3","lose","go","0","0"
"pit-trial","94","1215090","0.0-30.0","battery-v0.2","","""event"",""trial"",""time""
""blur"",""1"",""3705""
""focus"",""1"",""5584""
""fullscreenenter"",""1"",""5685""
","""event"",""trial"",""time""
""blur"",""1"",""3705""
","""event"",""trial"",""time""
""focus"",""1"",""5584""
","""event"",""trial"",""time""
""fullscreenenter"",""1"",""5685""
","
","","","947.2999999523163","","","19","1072","691","m","elianto","#3366ff99","-1"," ","0","+10","[1798.1000000238419]","1","2","","","1072","26","0","2","win","no-go","1","0"
"pit-trial","95","1219951","0.0-31.0","battery-v0.2","","""event"",""trial"",""time""
""blur"",""1"",""3705""
""focus"",""1"",""5584""
""fullscreenenter"",""1"",""5685""
","""event"",""trial"",""time""
""blur"",""1"",""3705""
","""event"",""trial"",""time""
""focus"",""1"",""5584""
","""event"",""trial"",""time""
""fullscreenenter"",""1"",""5685""
","
","","","-1","","","19","1072","691","y","elianto","#f73b6a7A","-1","-1","1","-10","[]","0","2","","","1072","27","2","4","lose","no-go","1","0"
"pit-trial","96","1223573","0.0-32.0","battery-v0.2","","""event"",""trial"",""time""
""blur"",""1"",""3705""
""focus"",""1"",""5584""
""fullscreenenter"",""1"",""5685""
","""event"",""trial"",""time""
""blur"",""1"",""3705""
","""event"",""trial"",""time""
""focus"",""1"",""5584""
","""event"",""trial"",""time""
""fullscreenenter"",""1"",""5685""
","
","","","765","","","19","1072","691","h","elianto","#3366ff99"," "," ","1","+10","[1615.8999999761581]","1","2","","","1072","28","3","1","win","go","0","0"
"pit-trial","97","1227021","0.0-33.0","battery-v0.2","","""event"",""trial"",""time""
""blur"",""1"",""3705""
""focus"",""1"",""5584""
""fullscreenenter"",""1"",""5685""
","""event"",""trial"",""time""
""blur"",""1"",""3705""
","""event"",""trial"",""time""
""focus"",""1"",""5584""
","""event"",""trial"",""time""
""fullscreenenter"",""1"",""5685""
","
","","","588","","","19","1072","691","y","elianto","#f73b6a7A","-1"," ","0","-10","[1438.3999999761581]","1","2","","","1072","29","2","4","lose","no-go","0","0"
"pit-trial","98","1230737","0.0-34.0","battery-v0.2","","""event"",""trial"",""time""
""blur"",""1"",""3705""
""focus"",""1"",""5584""
""fullscreenenter"",""1"",""5685""
","""event"",""trial"",""time""
""blur"",""1"",""3705""
","""event"",""trial"",""time""
""focus"",""1"",""5584""
","""event"",""trial"",""time""
""fullscreenenter"",""1"",""5685""
","
","","","854.2999999523163","","","19","1072","691","m","elianto","#3366ff99","-1"," ","0","0","[1706.2000000476837]","1","2","","","1072","30","0","2","win","no-go","0","0"
"pit-trial","99","1234457","0.0-35.0","battery-v0.2","","""event"",""trial"",""time""
""blur"",""1"",""3705""
""focus"",""1"",""5584""
""fullscreenenter"",""1"",""5685""
","""event"",""trial"",""time""
""blur"",""1"",""3705""
","""event"",""trial"",""time""
""focus"",""1"",""5584""
","""event"",""trial"",""time""
""fullscreenenter"",""1"",""5685""
","
","","","852.3999999761581","","","19","1072","691","h","elianto","#3366ff99"," "," ","1","+10","[1703.0999999046326]","1","2","","","1072","31","3","1","win","go","0","0"
"pit-trial","100","1238276","0.0-36.0","battery-v0.2","","""event"",""trial"",""time""
""blur"",""1"",""3705""
""focus"",""1"",""5584""
""fullscreenenter"",""1"",""5685""
","""event"",""trial"",""time""
""blur"",""1"",""3705""
","""event"",""trial"",""time""
""focus"",""1"",""5584""
","""event"",""trial"",""time""
""fullscreenenter"",""1"",""5685""
","
","","","952.5","","","19","1072","691","r","elianto","#f73b6a7A"," "," ","1","0","[1802.8999999761581]","1","2","","","1072","32","1","3","lose","go","0","0"
"pit-trial","101","1241946","0.0-37.0","battery-v0.2","","""event"",""trial"",""time""
""blur"",""1"",""3705""
""focus"",""1"",""5584""
""fullscreenenter"",""1"",""5685""
","""event"",""trial"",""time""
""blur"",""1"",""3705""
","""event"",""trial"",""time""
""focus"",""1"",""5584""
","""event"",""trial"",""time""
""fullscreenenter"",""1"",""5685""
","
","","","807.6000000238419","","","19","1072","691","y","elianto","#f73b6a7A","-1"," ","0","-10","[1658.7999999523163]","1","2","","","1072","33","2","4","lose","no-go","0","0"
"pit-trial","102","1245562","0.0-38.0","battery-v0.2","","""event"",""trial"",""time""
""blur"",""1"",""3705""
""focus"",""1"",""5584""
""fullscreenenter"",""1"",""5685""
","""event"",""trial"",""time""
""blur"",""1"",""3705""
","""event"",""trial"",""time""
""focus"",""1"",""5584""
","""event"",""trial"",""time""
""fullscreenenter"",""1"",""5685""
","
","","","747.2000000476837","","","19","1072","691","m","elianto","#3366ff99","-1"," ","0","0","[1598.3999999761581]","1","2","","","1072","34","0","2","win","no-go","0","0"
"pit-trial","103","1249301","0.0-39.0","battery-v0.2","","""event"",""trial"",""time""
""blur"",""1"",""3705""
""focus"",""1"",""5584""
""fullscreenenter"",""1"",""5685""
","""event"",""trial"",""time""
""blur"",""1"",""3705""
","""event"",""trial"",""time""
""focus"",""1"",""5584""
","""event"",""trial"",""time""
""fullscreenenter"",""1"",""5685""
","
","","","873.1000000238419","","","19","1072","691","r","elianto","#f73b6a7A"," "," ","1","0","[1724.7999999523163]","1","2","","","1072","35","1","3","lose","go","0","0"
"pit-trial","104","1253185","0.0-40.0","battery-v0.2","","""event"",""trial"",""time""
""blur"",""1"",""3705""
""focus"",""1"",""5584""
""fullscreenenter"",""1"",""5685""
","""event"",""trial"",""time""
""blur"",""1"",""3705""
","""event"",""trial"",""time""
""focus"",""1"",""5584""
","""event"",""trial"",""time""
""fullscreenenter"",""1"",""5685""
","
","","","1015.8000000715256","","","19","1072","691","h","elianto","#3366ff99"," "," ","1","+10","[1866.2999999523163]","1","2","","","1072","36","3","1","win","go","0","0"
"pit-trial","105","1258047","0.0-41.0","battery-v0.2","","""event"",""trial"",""time""
""blur"",""1"",""3705""
""focus"",""1"",""5584""
""fullscreenenter"",""1"",""5685""
","""event"",""trial"",""time""
""blur"",""1"",""3705""
","""event"",""trial"",""time""
""focus"",""1"",""5584""
","""event"",""trial"",""time""
""fullscreenenter"",""1"",""5685""
","
","","","-1","","","19","1072","691","y","elianto","#f73b6a7A","-1","-1","1","0","[]","0","2","","","1072","37","2","4","lose","no-go","0","0"
"pit-trial","106","1261798","0.0-42.0","battery-v0.2","","""event"",""trial"",""time""
""blur"",""1"",""3705""
""focus"",""1"",""5584""
""fullscreenenter"",""1"",""5685""
","""event"",""trial"",""time""
""blur"",""1"",""3705""
","""event"",""trial"",""time""
""focus"",""1"",""5584""
","""event"",""trial"",""time""
""fullscreenenter"",""1"",""5685""
","
","","","883.1000000238419","","","19","1072","691","r","elianto","#f73b6a7A"," "," ","1","0","[1734.1000000238419]","1","2","","","1072","38","1","3","lose","go","0","0"
"pit-trial","107","1266665","0.0-43.0","battery-v0.2","","""event"",""trial"",""time""
""blur"",""1"",""3705""
""focus"",""1"",""5584""
""fullscreenenter"",""1"",""5685""
","""event"",""trial"",""time""
""blur"",""1"",""3705""
","""event"",""trial"",""time""
""focus"",""1"",""5584""
","""event"",""trial"",""time""
""fullscreenenter"",""1"",""5685""
","
","","","-1","","","19","1072","691","m","elianto","#3366ff99","-1","-1","1","+10","[]","0","2","","","1072","39","0","2","win","no-go","0","0"
"pit-trial","108","1270136","0.0-44.0","battery-v0.2","","""event"",""trial"",""time""
""blur"",""1"",""3705""
""focus"",""1"",""5584""
""fullscreenenter"",""1"",""5685""
","""event"",""trial"",""time""
""blur"",""1"",""3705""
","""event"",""trial"",""time""
""focus"",""1"",""5584""
","""event"",""trial"",""time""
""fullscreenenter"",""1"",""5685""
","
","","","609","","","19","1072","691","h","elianto","#3366ff99"," "," ","1","+10","[1459.7000000476837]","1","2","","","1072","40","3","1","win","go","0","0"
"pit-trial","109","1275002","0.0-45.0","battery-v0.2","","""event"",""trial"",""time""
""blur"",""1"",""3705""
""focus"",""1"",""5584""
""fullscreenenter"",""1"",""5685""
","""event"",""trial"",""time""
""blur"",""1"",""3705""
","""event"",""trial"",""time""
""focus"",""1"",""5584""
","""event"",""trial"",""time""
""fullscreenenter"",""1"",""5685""
","
","","","-1","","","19","1072","691","r","elianto","#f73b6a7A"," ","-1","0","-10","[3230.399999976158]","1","2","","","1072","41","1","3","lose","go","0","0"
"pit-trial","110","1279870","0.0-46.0","battery-v0.2","","""event"",""trial"",""time""
""blur"",""1"",""3705""
""focus"",""1"",""5584""
""fullscreenenter"",""1"",""5685""
","""event"",""trial"",""time""
""blur"",""1"",""3705""
","""event"",""trial"",""time""
""focus"",""1"",""5584""
","""event"",""trial"",""time""
""fullscreenenter"",""1"",""5685""
","
","","","-1","","","19","1072","691","m","elianto","#3366ff99","-1","-1","1","+10","[]","0","2","","","1072","42","0","2","win","no-go","0","0"
"pit-trial","111","1283556","0.0-47.0","battery-v0.2","","""event"",""trial"",""time""
""blur"",""1"",""3705""
""focus"",""1"",""5584""
""fullscreenenter"",""1"",""5685""
","""event"",""trial"",""time""
""blur"",""1"",""3705""
","""event"",""trial"",""time""
""focus"",""1"",""5584""
","""event"",""trial"",""time""
""fullscreenenter"",""1"",""5685""
","
","","","817","","","19","1072","691","h","elianto","#3366ff99"," "," ","1","+10","[1668.2000000476837]","1","2","","","1072","43","3","1","win","go","0","0"
"pit-trial","112","1288413","0.0-48.0","battery-v0.2","","""event"",""trial"",""time""
""blur"",""1"",""3705""
""focus"",""1"",""5584""
""fullscreenenter"",""1"",""5685""
","""event"",""trial"",""time""
""blur"",""1"",""3705""
","""event"",""trial"",""time""
""focus"",""1"",""5584""
","""event"",""trial"",""time""
""fullscreenenter"",""1"",""5685""
","
","","","-1","","","19","1072","691","y","elianto","#f73b6a7A","-1","-1","1","0","[]","0","2","","","1072","44","2","4","lose","no-go","0","0"
"pit-trial","113","1293273","0.0-49.0","battery-v0.2","","""event"",""trial"",""time""
""blur"",""1"",""3705""
""focus"",""1"",""5584""
""fullscreenenter"",""1"",""5685""
","""event"",""trial"",""time""
""blur"",""1"",""3705""
","""event"",""trial"",""time""
""focus"",""1"",""5584""
","""event"",""trial"",""time""
""fullscreenenter"",""1"",""5685""
","
","","","-1","","","19","1072","691","y","elianto","#f73b6a7A","-1","-1","1","0","[]","0","2","","","1072","45","2","4","lose","no-go","0","0"
"pit-trial","114","1296812","0.0-50.0","battery-v0.2","","""event"",""trial"",""time""
""blur"",""1"",""3705""
""focus"",""1"",""5584""
""fullscreenenter"",""1"",""5685""
","""event"",""trial"",""time""
""blur"",""1"",""3705""
","""event"",""trial"",""time""
""focus"",""1"",""5584""
","""event"",""trial"",""time""
""fullscreenenter"",""1"",""5685""
","
","","","678.0999999046326","","","19","1072","691","m","elianto","#3366ff99","-1"," ","0","0","[1529.6000000238419]","1","2","","","1072","46","0","2","win","no-go","0","0"
"pit-trial","115","1300924","0.0-51.0","battery-v0.2","","""event"",""trial"",""time""
""blur"",""1"",""3705""
""focus"",""1"",""5584""
""fullscreenenter"",""1"",""5685""
","""event"",""trial"",""time""
""blur"",""1"",""3705""
","""event"",""trial"",""time""
""focus"",""1"",""5584""
","""event"",""trial"",""time""
""fullscreenenter"",""1"",""5685""
","
","","","1244.2999999523163","","","19","1072","691","r","elianto","#f73b6a7A"," "," ","1","0","[2095.5]","1","2","","","1072","47","1","3","lose","go","0","0"
"pit-trial","116","1305068","0.0-52.0","battery-v0.2","","""event"",""trial"",""time""
""blur"",""1"",""3705""
""focus"",""1"",""5584""
""fullscreenenter"",""1"",""5685""
","""event"",""trial"",""time""
""blur"",""1"",""3705""
","""event"",""trial"",""time""
""focus"",""1"",""5584""
","""event"",""trial"",""time""
""fullscreenenter"",""1"",""5685""
","
","","","1275","","","19","1072","691","h","elianto","#3366ff99"," "," ","1","+10","[2124.8000000715256]","1","2","","","1072","48","3","1","win","go","0","0"
"pit-trial","117","1309928","0.0-53.0","battery-v0.2","","""event"",""trial"",""time""
""blur"",""1"",""3705""
""focus"",""1"",""5584""
""fullscreenenter"",""1"",""5685""
","""event"",""trial"",""time""
""blur"",""1"",""3705""
","""event"",""trial"",""time""
""focus"",""1"",""5584""
","""event"",""trial"",""time""
""fullscreenenter"",""1"",""5685""
","
","","","-1","","","19","1072","691","m","elianto","#3366ff99","-1","-1","1","+10","[]","0","2","","","1072","49","0","2","win","no-go","0","0"
"pit-trial","118","1313670","0.0-54.0","battery-v0.2","","""event"",""trial"",""time""
""blur"",""1"",""3705""
""focus"",""1"",""5584""
""fullscreenenter"",""1"",""5685""
","""event"",""trial"",""time""
""blur"",""1"",""3705""
","""event"",""trial"",""time""
""focus"",""1"",""5584""
","""event"",""trial"",""time""
""fullscreenenter"",""1"",""5685""
","
","","","875.2999999523163","","","19","1072","691","h","elianto","#3366ff99"," "," ","1","+10","[1725.3999999761581]","1","2","","","1072","50","3","1","win","go","0","0"
"pit-trial","119","1318530","0.0-55.0","battery-v0.2","","""event"",""trial"",""time""
""blur"",""1"",""3705""
""focus"",""1"",""5584""
""fullscreenenter"",""1"",""5685""
","""event"",""trial"",""time""
""blur"",""1"",""3705""
","""event"",""trial"",""time""
""focus"",""1"",""5584""
","""event"",""trial"",""time""
""fullscreenenter"",""1"",""5685""
","
","","","-1","","","19","1072","691","y","elianto","#f73b6a7A","-1","-1","1","0","[]","0","2","","","1072","51","2","4","lose","no-go","0","0"
"pit-trial","120","1322289","0.0-56.0","battery-v0.2","","""event"",""trial"",""time""
""blur"",""1"",""3705""
""focus"",""1"",""5584""
""fullscreenenter"",""1"",""5685""
","""event"",""trial"",""time""
""blur"",""1"",""3705""
","""event"",""trial"",""time""
""focus"",""1"",""5584""
","""event"",""trial"",""time""
""fullscreenenter"",""1"",""5685""
","
","","","900.7999999523163","","","19","1072","691","r","elianto","#f73b6a7A"," "," ","1","0","[1750.8999999761581]","1","2","","","1072","52","1","3","lose","go","0","0"
"pit-trial","121","1326188","0.0-57.0","battery-v0.2","","""event"",""trial"",""time""
""blur"",""1"",""3705""
""focus"",""1"",""5584""
""fullscreenenter"",""1"",""5685""
","""event"",""trial"",""time""
""blur"",""1"",""3705""
","""event"",""trial"",""time""
""focus"",""1"",""5584""
","""event"",""trial"",""time""
""fullscreenenter"",""1"",""5685""
","
","","","1028.7999999523163","","","19","1072","691","r","elianto","#f73b6a7A"," "," ","1","-10","[1880.0999999046326]","1","2","","","1072","53","1","3","lose","go","1","0"
"pit-trial","122","1331059","0.0-58.0","battery-v0.2","","""event"",""trial"",""time""
""blur"",""1"",""3705""
""focus"",""1"",""5584""
""fullscreenenter"",""1"",""5685""
","""event"",""trial"",""time""
""blur"",""1"",""3705""
","""event"",""trial"",""time""
""focus"",""1"",""5584""
","""event"",""trial"",""time""
""fullscreenenter"",""1"",""5685""
","
","","","-1","","","19","1072","691","c","elianto","#f73b6a7A","-1","-1","1","0","[]","0","2","","","1072","54","5","4","lose","no-go","0","0"
"pit-trial","123","1335922","0.0-59.0","battery-v0.2","","""event"",""trial"",""time""
""blur"",""1"",""3705""
""focus"",""1"",""5584""
""fullscreenenter"",""1"",""5685""
","""event"",""trial"",""time""
""blur"",""1"",""3705""
","""event"",""trial"",""time""
""focus"",""1"",""5584""
","""event"",""trial"",""time""
""fullscreenenter"",""1"",""5685""
","
","","","-1","","","19","1072","691","y","elianto","#f73b6a7A","-1","-1","1","0","[]","0","2","","","1072","55","2","4","lose","no-go","0","0"
"pit-trial","124","1340790","0.0-60.0","battery-v0.2","","""event"",""trial"",""time""
""blur"",""1"",""3705""
""focus"",""1"",""5584""
""fullscreenenter"",""1"",""5685""
","""event"",""trial"",""time""
""blur"",""1"",""3705""
","""event"",""trial"",""time""
""focus"",""1"",""5584""
","""event"",""trial"",""time""
""fullscreenenter"",""1"",""5685""
","
","","","-1","","","19","1072","691","z","elianto","#f73b6a7A"," ","-1","0","-10","[]","0","2","","","1072","56","4","3","lose","go","0","0"
"pit-trial","125","1345663","0.0-61.0","battery-v0.2","","""event"",""trial"",""time""
""blur"",""1"",""3705""
""focus"",""1"",""5584""
""fullscreenenter"",""1"",""5685""
","""event"",""trial"",""time""
""blur"",""1"",""3705""
","""event"",""trial"",""time""
""focus"",""1"",""5584""
","""event"",""trial"",""time""
""fullscreenenter"",""1"",""5685""
","
","","","-1","","","19","1072","691","y","elianto","#f73b6a7A","-1","-1","1","0","[]","0","2","","","1072","57","2","4","lose","no-go","0","0"
"pit-trial","126","1349259","0.0-62.0","battery-v0.2","","""event"",""trial"",""time""
""blur"",""1"",""3705""
""focus"",""1"",""5584""
""fullscreenenter"",""1"",""5685""
","""event"",""trial"",""time""
""blur"",""1"",""3705""
","""event"",""trial"",""time""
""focus"",""1"",""5584""
","""event"",""trial"",""time""
""fullscreenenter"",""1"",""5685""
","
","","","727.4000000953674","","","19","1072","691","z","elianto","#f73b6a7A"," "," ","1","0","[1578.3999999761581]","1","2","","","1072","58","4","3","lose","go","0","0"
"pit-trial","127","1353172","0.0-63.0","battery-v0.2","","""event"",""trial"",""time""
""blur"",""1"",""3705""
""focus"",""1"",""5584""
""fullscreenenter"",""1"",""5685""
","""event"",""trial"",""time""
""blur"",""1"",""3705""
","""event"",""trial"",""time""
""focus"",""1"",""5584""
","""event"",""trial"",""time""
""fullscreenenter"",""1"",""5685""
","
","","","1046.1000000238419","","","19","1072","691","c","elianto","#f73b6a7A","-1"," ","0","0","[1896.8999999761581]","1","2","","","1072","59","5","4","lose","no-go","1","0"
"pit-trial","128","1357263","0.0-64.0","battery-v0.2","","""event"",""trial"",""time""
""blur"",""1"",""3705""
""focus"",""1"",""5584""
""fullscreenenter"",""1"",""5685""
","""event"",""trial"",""time""
""blur"",""1"",""3705""
","""event"",""trial"",""time""
""focus"",""1"",""5584""
","""event"",""trial"",""time""
""fullscreenenter"",""1"",""5685""
","
","","","1229.2000000476837","","","19","1072","691","r","elianto","#f73b6a7A"," "," ","1","0","[2080.399999976158]","1","2","","","1072","60","1","3","lose","go","0","0"
"pit-trial","129","1362131","0.0-65.0","battery-v0.2","","""event"",""trial"",""time""
""blur"",""1"",""3705""
""focus"",""1"",""5584""
""fullscreenenter"",""1"",""5685""
","""event"",""trial"",""time""
""blur"",""1"",""3705""
","""event"",""trial"",""time""
""focus"",""1"",""5584""
","""event"",""trial"",""time""
""fullscreenenter"",""1"",""5685""
","
","","","-1","","","19","1072","691","y","elianto","#f73b6a7A","-1","-1","1","-10","[]","0","2","","","1072","61","2","4","lose","no-go","1","0"
"pit-trial","130","1365597","0.0-66.0","battery-v0.2","","""event"",""trial"",""time""
""blur"",""1"",""3705""
""focus"",""1"",""5584""
""fullscreenenter"",""1"",""5685""
","""event"",""trial"",""time""
""blur"",""1"",""3705""
","""event"",""trial"",""time""
""focus"",""1"",""5584""
","""event"",""trial"",""time""
""fullscreenenter"",""1"",""5685""
","
","","","598.6000000238419","","","19","1072","691","c","elianto","#f73b6a7A","-1"," ","0","-10","[1450.3999999761581]","1","2","","","1072","62","5","4","lose","no-go","0","0"
"pit-trial","131","1369433","0.0-67.0","battery-v0.2","","""event"",""trial"",""time""
""blur"",""1"",""3705""
""focus"",""1"",""5584""
""fullscreenenter"",""1"",""5685""
","""event"",""trial"",""time""
""blur"",""1"",""3705""
","""event"",""trial"",""time""
""focus"",""1"",""5584""
","""event"",""trial"",""time""
""fullscreenenter"",""1"",""5685""
","
","","","966.2000000476837","","","19","1072","691","b","elianto","#3366ff99","-1"," ","0","0","[1816.8999999761581]","1","2","","","1072","63","6","2","win","no-go","0","0"
"pit-trial","132","1373929","0.0-68.0","battery-v0.2","","""event"",""trial"",""time""
""blur"",""1"",""3705""
""focus"",""1"",""5584""
""fullscreenenter"",""1"",""5685""
","""event"",""trial"",""time""
""blur"",""1"",""3705""
","""event"",""trial"",""time""
""focus"",""1"",""5584""
","""event"",""trial"",""time""
""fullscreenenter"",""1"",""5685""
","
","","","1627.3999999761581","","","19","1072","691","z","elianto","#f73b6a7A"," "," ","1","0","[2477.7000000476837]","1","2","","","1072","64","4","3","lose","go","0","0"
"pit-trial","133","1377411","0.0-69.0","battery-v0.2","","""event"",""trial"",""time""
""blur"",""1"",""3705""
""focus"",""1"",""5584""
""fullscreenenter"",""1"",""5685""
","""event"",""trial"",""time""
""blur"",""1"",""3705""
","""event"",""trial"",""time""
""focus"",""1"",""5584""
","""event"",""trial"",""time""
""fullscreenenter"",""1"",""5685""
","
","","","620.8999999761581","","","19","1072","691","y","elianto","#f73b6a7A","-1"," ","0","-10","[1471.5]","1","2","","","1072","65","2","4","lose","no-go","0","0"
"pit-trial","134","1381438","0.0-70.0","battery-v0.2","","""event"",""trial"",""time""
""blur"",""1"",""3705""
""focus"",""1"",""5584""
""fullscreenenter"",""1"",""5685""
","""event"",""trial"",""time""
""blur"",""1"",""3705""
","""event"",""trial"",""time""
""focus"",""1"",""5584""
","""event"",""trial"",""time""
""fullscreenenter"",""1"",""5685""
","
","","","1156.5","","","19","1072","691","b","elianto","#3366ff99","-1"," ","0","0","[2007.6000000238419]","1","2","","","1072","66","6","2","win","no-go","0","0"
"pit-trial","135","1385317","0.0-71.0","battery-v0.2","","""event"",""trial"",""time""
""blur"",""1"",""3705""
""focus"",""1"",""5584""
""fullscreenenter"",""1"",""5685""
","""event"",""trial"",""time""
""blur"",""1"",""3705""
","""event"",""trial"",""time""
""focus"",""1"",""5584""
","""event"",""trial"",""time""
""fullscreenenter"",""1"",""5685""
","
","","","1012","","","19","1072","691","c","elianto","#f73b6a7A","-1"," ","0","-10","[1862]","1","2","","","1072","67","5","4","lose","no-go","0","0"
"pit-trial","136","1389141","0.0-72.0","battery-v0.2","","""event"",""trial"",""time""
""blur"",""1"",""3705""
""focus"",""1"",""5584""
""fullscreenenter"",""1"",""5685""
","""event"",""trial"",""time""
""blur"",""1"",""3705""
","""event"",""trial"",""time""
""focus"",""1"",""5584""
","""event"",""trial"",""time""
""fullscreenenter"",""1"",""5685""
","
","","","956.2000000476837","","","19","1072","691","z","elianto","#f73b6a7A"," "," ","1","0","[1806.8000000715256]","1","2","","","1072","68","4","3","lose","go","0","0"
"pit-trial","137","1393057","0.0-73.0","battery-v0.2","","""event"",""trial"",""time""
""blur"",""1"",""3705""
""focus"",""1"",""5584""
""fullscreenenter"",""1"",""5685""
","""event"",""trial"",""time""
""blur"",""1"",""3705""
","""event"",""trial"",""time""
""focus"",""1"",""5584""
","""event"",""trial"",""time""
""fullscreenenter"",""1"",""5685""
","
","","","1047","","","19","1072","691","t","elianto","#3366ff99"," "," ","1","0","[1897.5]","1","2","","","1072","69","7","1","win","go","1","0"
"pit-trial","138","1397940","0.0-74.0","battery-v0.2","","""event"",""trial"",""time""
""blur"",""1"",""3705""
""focus"",""1"",""5584""
""fullscreenenter"",""1"",""5685""
","""event"",""trial"",""time""
""blur"",""1"",""3705""
","""event"",""trial"",""time""
""focus"",""1"",""5584""
","""event"",""trial"",""time""
""fullscreenenter"",""1"",""5685""
","
","","","-1","","","19","1072","691","z","elianto","#f73b6a7A"," ","-1","0","-10","[]","0","2","","","1072","70","4","3","lose","go","0","0"
"pit-trial","139","1402814","0.0-75.0","battery-v0.2","","""event"",""trial"",""time""
""blur"",""1"",""3705""
""focus"",""1"",""5584""
""fullscreenenter"",""1"",""5685""
","""event"",""trial"",""time""
""blur"",""1"",""3705""
","""event"",""trial"",""time""
""focus"",""1"",""5584""
","""event"",""trial"",""time""
""fullscreenenter"",""1"",""5685""
","
","","","-1","","","19","1072","691","b","elianto","#3366ff99","-1","-1","1","+10","[]","0","2","","","1072","71","6","2","win","no-go","0","0"
"pit-trial","140","1407676","0.0-76.0","battery-v0.2","","""event"",""trial"",""time""
""blur"",""1"",""3705""
""focus"",""1"",""5584""
""fullscreenenter"",""1"",""5685""
","""event"",""trial"",""time""
""blur"",""1"",""3705""
","""event"",""trial"",""time""
""focus"",""1"",""5584""
","""event"",""trial"",""time""
""fullscreenenter"",""1"",""5685""
","
","","","-1","","","19","1072","691","c","elianto","#f73b6a7A","-1","-1","1","-10","[4327.300000071526]","1","2","","","1072","72","5","4","lose","no-go","1","0"
"pit-trial","141","1411277","0.0-77.0","battery-v0.2","","""event"",""trial"",""time""
""blur"",""1"",""3705""
""focus"",""1"",""5584""
""fullscreenenter"",""1"",""5685""
","""event"",""trial"",""time""
""blur"",""1"",""3705""
","""event"",""trial"",""time""
""focus"",""1"",""5584""
","""event"",""trial"",""time""
""fullscreenenter"",""1"",""5685""
","
","","","735.5","","","19","1072","691","c","elianto","#f73b6a7A","-1"," ","0","-10","[1586.3999999761581]","1","2","","","1072","73","5","4","lose","no-go","0","0"
"pit-trial","142","1415017","0.0-78.0","battery-v0.2","","""event"",""trial"",""time""
""blur"",""1"",""3705""
""focus"",""1"",""5584""
""fullscreenenter"",""1"",""5685""
","""event"",""trial"",""time""
""blur"",""1"",""3705""
","""event"",""trial"",""time""
""focus"",""1"",""5584""
","""event"",""trial"",""time""
""fullscreenenter"",""1"",""5685""
","
","","","880.9000000953674","","","19","1072","691","t","elianto","#3366ff99"," "," ","1","0","[1732.7000000476837]","1","2","","","1072","74","7","1","win","go","1","0"
"pit-trial","143","1418762","0.0-79.0","battery-v0.2","","""event"",""trial"",""time""
""blur"",""1"",""3705""
""focus"",""1"",""5584""
""fullscreenenter"",""1"",""5685""
","""event"",""trial"",""time""
""blur"",""1"",""3705""
","""event"",""trial"",""time""
""focus"",""1"",""5584""
","""event"",""trial"",""time""
""fullscreenenter"",""1"",""5685""
","
","","","877.1000000238419","","","19","1072","691","b","elianto","#3366ff99","-1"," ","0","0","[1727.3999999761581]","1","2","","","1072","75","6","2","win","no-go","0","0"
"pit-trial","144","1422631","0.0-80.0","battery-v0.2","","""event"",""trial"",""time""
""blur"",""1"",""3705""
""focus"",""1"",""5584""
""fullscreenenter"",""1"",""5685""
","""event"",""trial"",""time""
""blur"",""1"",""3705""
","""event"",""trial"",""time""
""focus"",""1"",""5584""
","""event"",""trial"",""time""
""fullscreenenter"",""1"",""5685""
","
","","","993.3000000715256","","","19","1072","691","z","elianto","#f73b6a7A"," "," ","1","-10","[1844.8999999761581]","1","2","","","1072","76","4","3","lose","go","1","0"
"pit-trial","145","1426425","0.0-81.0","battery-v0.2","","""event"",""trial"",""time""
""blur"",""1"",""3705""
""focus"",""1"",""5584""
""fullscreenenter"",""1"",""5685""
","""event"",""trial"",""time""
""blur"",""1"",""3705""
","""event"",""trial"",""time""
""focus"",""1"",""5584""
","""event"",""trial"",""time""
""fullscreenenter"",""1"",""5685""
","
","","","932.3000000715256","","","19","1072","691","t","elianto","#3366ff99"," "," ","1","+10","[1783.3999999761581]","1","2","","","1072","77","7","1","win","go","0","0"
"pit-trial","146","1431295","0.0-82.0","battery-v0.2","","""event"",""trial"",""time""
""blur"",""1"",""3705""
""focus"",""1"",""5584""
""fullscreenenter"",""1"",""5685""
","""event"",""trial"",""time""
""blur"",""1"",""3705""
","""event"",""trial"",""time""
""focus"",""1"",""5584""
","""event"",""trial"",""time""
""fullscreenenter"",""1"",""5685""
","
","","","-1","","","19","1072","691","b","elianto","#3366ff99","-1","-1","1","+10","[]","0","2","","","1072","78","6","2","win","no-go","0","0"
"pit-trial","147","1435556","0.0-83.0","battery-v0.2","","""event"",""trial"",""time""
""blur"",""1"",""3705""
""focus"",""1"",""5584""
""fullscreenenter"",""1"",""5685""
","""event"",""trial"",""time""
""blur"",""1"",""3705""
","""event"",""trial"",""time""
""focus"",""1"",""5584""
","""event"",""trial"",""time""
""fullscreenenter"",""1"",""5685""
","
","","","1395","","","19","1072","691","z","elianto","#f73b6a7A"," "," ","1","0","[2246.7000000476837]","1","2","","","1072","79","4","3","lose","go","0","0"
"pit-trial","148","1439462","0.0-84.0","battery-v0.2","","""event"",""trial"",""time""
""blur"",""1"",""3705""
""focus"",""1"",""5584""
""fullscreenenter"",""1"",""5685""
","""event"",""trial"",""time""
""blur"",""1"",""3705""
","""event"",""trial"",""time""
""focus"",""1"",""5584""
","""event"",""trial"",""time""
""fullscreenenter"",""1"",""5685""
","
","","","1039.6000000238419","","","19","1072","691","c","elianto","#f73b6a7A","-1"," ","0","-10","[1890.2999999523163]","1","2","","","1072","80","5","4","lose","no-go","0","0"
"pit-trial","149","1443120","0.0-85.0","battery-v0.2","","""event"",""trial"",""time""
""blur"",""1"",""3705""
""focus"",""1"",""5584""
""fullscreenenter"",""1"",""5685""
","""event"",""trial"",""time""
""blur"",""1"",""3705""
","""event"",""trial"",""time""
""focus"",""1"",""5584""
","""event"",""trial"",""time""
""fullscreenenter"",""1"",""5685""
","
","","","786.7999999523163","","","19","1072","691","b","elianto","#3366ff99","-1"," ","0","0","[1637.8999999761581]","1","2","","","1072","81","6","2","win","no-go","0","0"
"pit-trial","150","1447648","0.0-86.0","battery-v0.2","","""event"",""trial"",""time""
""blur"",""1"",""3705""
""focus"",""1"",""5584""
""fullscreenenter"",""1"",""5685""
","""event"",""trial"",""time""
""blur"",""1"",""3705""
","""event"",""trial"",""time""
""focus"",""1"",""5584""
","""event"",""trial"",""time""
""fullscreenenter"",""1"",""5685""
","
","","","1659.1999999284744","","","19","1072","691","t","elianto","#3366ff99"," "," ","1","+10","[2510.2999999523163]","1","2","","","1072","82","7","1","win","go","0","0"
"pit-trial","151","1452511","0.0-87.0","battery-v0.2","","""event"",""trial"",""time""
""blur"",""1"",""3705""
""focus"",""1"",""5584""
""fullscreenenter"",""1"",""5685""
","""event"",""trial"",""time""
""blur"",""1"",""3705""
","""event"",""trial"",""time""
""focus"",""1"",""5584""
","""event"",""trial"",""time""
""fullscreenenter"",""1"",""5685""
","
","","","-1","","","19","1072","691","z","elianto","#f73b6a7A"," ","-1","0","-10","[]","0","2","","","1072","83","4","3","lose","go","0","0"
"pit-trial","152","1456206","0.0-88.0","battery-v0.2","","""event"",""trial"",""time""
""blur"",""1"",""3705""
""focus"",""1"",""5584""
""fullscreenenter"",""1"",""5685""
","""event"",""trial"",""time""
""blur"",""1"",""3705""
","""event"",""trial"",""time""
""focus"",""1"",""5584""
","""event"",""trial"",""time""
""fullscreenenter"",""1"",""5685""
","
","","","826.6999999284744","","","19","1072","691","c","elianto","#f73b6a7A","-1"," ","0","0","[1678.2000000476837]","1","2","","","1072","84","5","4","lose","no-go","1","0"
"pit-trial","153","1461074","0.0-89.0","battery-v0.2","","""event"",""trial"",""time""
""blur"",""1"",""3705""
""focus"",""1"",""5584""
""fullscreenenter"",""1"",""5685""
","""event"",""trial"",""time""
""blur"",""1"",""3705""
","""event"",""trial"",""time""
""focus"",""1"",""5584""
","""event"",""trial"",""time""
""fullscreenenter"",""1"",""5685""
","
","","","-1","","","19","1072","691","z","elianto","#f73b6a7A"," ","-1","0","-10","[3553.100000023842]","1","2","","","1072","85","4","3","lose","go","0","0"
"pit-trial","154","1464601","0.0-90.0","battery-v0.2","","""event"",""trial"",""time""
""blur"",""1"",""3705""
""focus"",""1"",""5584""
""fullscreenenter"",""1"",""5685""
","""event"",""trial"",""time""
""blur"",""1"",""3705""
","""event"",""trial"",""time""
""focus"",""1"",""5584""
","""event"",""trial"",""time""
""fullscreenenter"",""1"",""5685""
","
","","","664.2000000476837","","","19","1072","691","b","elianto","#3366ff99","-1"," ","0","0","[1515.3000000715256]","1","2","","","1072","86","6","2","win","no-go","0","0"
"pit-trial","155","1468641","0.0-91.0","battery-v0.2","","""event"",""trial"",""time""
""blur"",""1"",""3705""
""focus"",""1"",""5584""
""fullscreenenter"",""1"",""5685""
","""event"",""trial"",""time""
""blur"",""1"",""3705""
","""event"",""trial"",""time""
""focus"",""1"",""5584""
","""event"",""trial"",""time""
""fullscreenenter"",""1"",""5685""
","
","","","1170.5","","","19","1072","691","c","elianto","#f73b6a7A","-1"," ","0","-10","[2022]","1","2","","","1072","87","5","4","lose","no-go","0","0"
"pit-trial","156","1473510","0.0-92.0","battery-v0.2","","""event"",""trial"",""time""
""blur"",""1"",""3705""
""focus"",""1"",""5584""
""fullscreenenter"",""1"",""5685""
","""event"",""trial"",""time""
""blur"",""1"",""3705""
","""event"",""trial"",""time""
""focus"",""1"",""5584""
","""event"",""trial"",""time""
""fullscreenenter"",""1"",""5685""
","
","","","-1","","","19","1072","691","t","elianto","#3366ff99"," ","-1","0","+10","[]","0","2","","","1072","88","7","1","win","go","1","0"
"pit-trial","157","1478380","0.0-93.0","battery-v0.2","","""event"",""trial"",""time""
""blur"",""1"",""3705""
""focus"",""1"",""5584""
""fullscreenenter"",""1"",""5685""
","""event"",""trial"",""time""
""blur"",""1"",""3705""
","""event"",""trial"",""time""
""focus"",""1"",""5584""
","""event"",""trial"",""time""
""fullscreenenter"",""1"",""5685""
","
","","","-1","","","19","1072","691","c","elianto","#f73b6a7A","-1","-1","1","0","[]","0","2","","","1072","89","5","4","lose","no-go","0","0"
"pit-trial","158","1483182","0.0-94.0","battery-v0.2","","""event"",""trial"",""time""
""blur"",""1"",""3705""
""focus"",""1"",""5584""
""fullscreenenter"",""1"",""5685""
","""event"",""trial"",""time""
""blur"",""1"",""3705""
","""event"",""trial"",""time""
""focus"",""1"",""5584""
","""event"",""trial"",""time""
""fullscreenenter"",""1"",""5685""
","
","","","1933.8999999761581","","","19","1072","691","b","elianto","#3366ff99","-1"," ","0","+10","[2784.6999999284744]","1","2","","","1072","90","6","2","win","no-go","1","0"
"pit-trial","159","1488052","0.0-95.0","battery-v0.2","","""event"",""trial"",""time""
""blur"",""1"",""3705""
""focus"",""1"",""5584""
""fullscreenenter"",""1"",""5685""
","""event"",""trial"",""time""
""blur"",""1"",""3705""
","""event"",""trial"",""time""
""focus"",""1"",""5584""
","""event"",""trial"",""time""
""fullscreenenter"",""1"",""5685""
","
","","","-1","","","19","1072","691","t","elianto","#3366ff99"," ","-1","0","0","[]","0","2","","","1072","91","7","1","win","go","0","0"
"pit-trial","160","1492919","0.0-96.0","battery-v0.2","","""event"",""trial"",""time""
""blur"",""1"",""3705""
""focus"",""1"",""5584""
""fullscreenenter"",""1"",""5685""
","""event"",""trial"",""time""
""blur"",""1"",""3705""
","""event"",""trial"",""time""
""focus"",""1"",""5584""
","""event"",""trial"",""time""
""fullscreenenter"",""1"",""5685""
","
","","","-1","","","19","1072","691","z","elianto","#f73b6a7A"," ","-1","0","-10","[]","0","2","","","1072","92","4","3","lose","go","0","0"
"pit-trial","161","1496611","0.0-97.0","battery-v0.2","","""event"",""trial"",""time""
""blur"",""1"",""3705""
""focus"",""1"",""5584""
""fullscreenenter"",""1"",""5685""
","""event"",""trial"",""time""
""blur"",""1"",""3705""
","""event"",""trial"",""time""
""focus"",""1"",""5584""
","""event"",""trial"",""time""
""fullscreenenter"",""1"",""5685""
","
","","","824.4000000953674","","","19","1072","691","z","elianto","#f73b6a7A"," "," ","1","0","[1675.3000000715256]","1","2","","","1072","93","4","3","lose","go","0","0"
"pit-trial","162","1500259","0.0-98.0","battery-v0.2","","""event"",""trial"",""time""
""blur"",""1"",""3705""
""focus"",""1"",""5584""
""fullscreenenter"",""1"",""5685""
","""event"",""trial"",""time""
""blur"",""1"",""3705""
","""event"",""trial"",""time""
""focus"",""1"",""5584""
","""event"",""trial"",""time""
""fullscreenenter"",""1"",""5685""
","
","","","780.5","","","19","1072","691","t","elianto","#3366ff99"," "," ","1","0","[1631.8999999761581]","1","2","","","1072","94","7","1","win","go","1","0"
"pit-trial","163","1505121","0.0-99.0","battery-v0.2","","""event"",""trial"",""time""
""blur"",""1"",""3705""
""focus"",""1"",""5584""
""fullscreenenter"",""1"",""5685""
","""event"",""trial"",""time""
""blur"",""1"",""3705""
","""event"",""trial"",""time""
""focus"",""1"",""5584""
","""event"",""trial"",""time""
""fullscreenenter"",""1"",""5685""
","
","","","-1","","","19","1072","691","b","elianto","#3366ff99","-1","-1","1","+10","[]","0","2","","","1072","95","6","2","win","no-go","0","0"
"pit-trial","164","1509151","0.0-100.0","battery-v0.2","","""event"",""trial"",""time""
""blur"",""1"",""3705""
""focus"",""1"",""5584""
""fullscreenenter"",""1"",""5685""
","""event"",""trial"",""time""
""blur"",""1"",""3705""
","""event"",""trial"",""time""
""focus"",""1"",""5584""
","""event"",""trial"",""time""
""fullscreenenter"",""1"",""5685""
","
","","","1165.1999999284744","","","19","1072","691","x","elianto","#3366ff99"," "," ","1","+10","[2015.2000000476837]","1","2","","","1072","96","8","1","win","go","0","0"
"pit-trial","165","1514016","0.0-101.0","battery-v0.2","","""event"",""trial"",""time""
""blur"",""1"",""3705""
""focus"",""1"",""5584""
""fullscreenenter"",""1"",""5685""
","""event"",""trial"",""time""
""blur"",""1"",""3705""
","""event"",""trial"",""time""
""focus"",""1"",""5584""
","""event"",""trial"",""time""
""fullscreenenter"",""1"",""5685""
","
","","","-1","","","19","1072","691","b","elianto","#3366ff99","-1","-1","1","+10","[]","0","2","","","1072","97","6","2","win","no-go","0","0"
"pit-trial","166","1517397","0.0-102.0","battery-v0.2","","""event"",""trial"",""time""
""blur"",""1"",""3705""
""focus"",""1"",""5584""
""fullscreenenter"",""1"",""5685""
","""event"",""trial"",""time""
""blur"",""1"",""3705""
","""event"",""trial"",""time""
""focus"",""1"",""5584""
","""event"",""trial"",""time""
""fullscreenenter"",""1"",""5685""
","
","","","520.1000000238419","","","19","1072","691","x","elianto","#3366ff99"," "," ","1","+10","[1371.5]","1","2","","","1072","98","8","1","win","go","0","0"
"pit-trial","167","1522266","0.0-103.0","battery-v0.2","","""event"",""trial"",""time""
""blur"",""1"",""3705""
""focus"",""1"",""5584""
""fullscreenenter"",""1"",""5685""
","""event"",""trial"",""time""
""blur"",""1"",""3705""
","""event"",""trial"",""time""
""focus"",""1"",""5584""
","""event"",""trial"",""time""
""fullscreenenter"",""1"",""5685""
","
","","","-1","","","19","1072","691","t","elianto","#3366ff99"," ","-1","0","0","[3829.399999976158]","1","2","","","1072","99","7","1","win","go","0","0"
"pit-trial","168","1526537","0.0-104.0","battery-v0.2","","""event"",""trial"",""time""
""blur"",""1"",""3705""
""focus"",""1"",""5584""
""fullscreenenter"",""1"",""5685""
","""event"",""trial"",""time""
""blur"",""1"",""3705""
","""event"",""trial"",""time""
""focus"",""1"",""5584""
","""event"",""trial"",""time""
""fullscreenenter"",""1"",""5685""
","
","","","1403.1000000238419","","","19","1072","691","z","elianto","#f73b6a7A"," "," ","1","-10","[2254.899999976158]","1","2","","","1072","100","4","3","lose","go","1","0"
"pit-trial","169","1530550","0.0-105.0","battery-v0.2","","""event"",""trial"",""time""
""blur"",""1"",""3705""
""focus"",""1"",""5584""
""fullscreenenter"",""1"",""5685""
","""event"",""trial"",""time""
""blur"",""1"",""3705""
","""event"",""trial"",""time""
""focus"",""1"",""5584""
","""event"",""trial"",""time""
""fullscreenenter"",""1"",""5685""
","
","","","1152.1000000238419","","","19","1072","691","t","elianto","#3366ff99"," "," ","1","+10","[2002.6000000238419]","1","2","","","1072","101","7","1","win","go","0","0"
"pit-trial","170","1535106","0.0-106.0","battery-v0.2","","""event"",""trial"",""time""
""blur"",""1"",""3705""
""focus"",""1"",""5584""
""fullscreenenter"",""1"",""5685""
","""event"",""trial"",""time""
""blur"",""1"",""3705""
","""event"",""trial"",""time""
""focus"",""1"",""5584""
","""event"",""trial"",""time""
""fullscreenenter"",""1"",""5685""
","
","","","1687.7999999523163","","","19","1072","691","b","elianto","#3366ff99","-1"," ","0","0","[2538]","1","2","","","1072","102","6","2","win","no-go","0","0"
"pit-trial","171","1539732","0.0-107.0","battery-v0.2","","""event"",""trial"",""time""
""blur"",""1"",""3705""
""focus"",""1"",""5584""
""fullscreenenter"",""1"",""5685""
","""event"",""trial"",""time""
""blur"",""1"",""3705""
","""event"",""trial"",""time""
""focus"",""1"",""5584""
","""event"",""trial"",""time""
""fullscreenenter"",""1"",""5685""
","
","","","1758","","","19","1072","691","f","elianto","#3366ff99","-1"," ","0","0","[2608.899999976158]","1","2","","","1072","103","9","2","win","no-go","0","0"
"pit-trial","172","1544603","0.0-108.0","battery-v0.2","","""event"",""trial"",""time""
""blur"",""1"",""3705""
""focus"",""1"",""5584""
""fullscreenenter"",""1"",""5685""
","""event"",""trial"",""time""
""blur"",""1"",""3705""
","""event"",""trial"",""time""
""focus"",""1"",""5584""
","""event"",""trial"",""time""
""fullscreenenter"",""1"",""5685""
","
","","","-1","","","19","1072","691","x","elianto","#3366ff99"," ","-1","0","0","[2880.4000000953674]","1","2","","","1072","104","8","1","win","go","0","0"
"pit-trial","173","1549464","0.0-109.0","battery-v0.2","","""event"",""trial"",""time""
""blur"",""1"",""3705""
""focus"",""1"",""5584""
""fullscreenenter"",""1"",""5685""
","""event"",""trial"",""time""
""blur"",""1"",""3705""
","""event"",""trial"",""time""
""focus"",""1"",""5584""
","""event"",""trial"",""time""
""fullscreenenter"",""1"",""5685""
","
","","","-1","","","19","1072","691","b","elianto","#3366ff99","-1","-1","1","+10","[]","0","2","","","1072","105","6","2","win","no-go","0","0"
"pit-trial","174","1553571","0.0-110.0","battery-v0.2","","""event"",""trial"",""time""
""blur"",""1"",""3705""
""focus"",""1"",""5584""
""fullscreenenter"",""1"",""5685""
","""event"",""trial"",""time""
""blur"",""1"",""3705""
","""event"",""trial"",""time""
""focus"",""1"",""5584""
","""event"",""trial"",""time""
""fullscreenenter"",""1"",""5685""
","
","","","1250","","","19","1072","691","t","elianto","#3366ff99"," "," ","1","0","[2101.2000000476837]","1","2","","","1072","106","7","1","win","go","1","0"
"pit-trial","175","1558427","0.0-111.0","battery-v0.2","","""event"",""trial"",""time""
""blur"",""1"",""3705""
""focus"",""1"",""5584""
""fullscreenenter"",""1"",""5685""
","""event"",""trial"",""time""
""blur"",""1"",""3705""
","""event"",""trial"",""time""
""focus"",""1"",""5584""
","""event"",""trial"",""time""
""fullscreenenter"",""1"",""5685""
","
","","","-1","","","19","1072","691","x","elianto","#3366ff99"," ","-1","0","0","[]","0","2","","","1072","107","8","1","win","go","0","0"
"pit-trial","176","1562164","0.0-112.0","battery-v0.2","","""event"",""trial"",""time""
""blur"",""1"",""3705""
""focus"",""1"",""5584""
""fullscreenenter"",""1"",""5685""
","""event"",""trial"",""time""
""blur"",""1"",""3705""
","""event"",""trial"",""time""
""focus"",""1"",""5584""
","""event"",""trial"",""time""
""fullscreenenter"",""1"",""5685""
","
","","","878.5","","","19","1072","691","f","elianto","#3366ff99","-1"," ","0","0","[1729.8000000715256]","1","2","","","1072","108","9","2","win","no-go","0","0"
"pit-trial","177","1567025","0.0-113.0","battery-v0.2","","""event"",""trial"",""time""
""blur"",""1"",""3705""
""focus"",""1"",""5584""
""fullscreenenter"",""1"",""5685""
","""event"",""trial"",""time""
""blur"",""1"",""3705""
","""event"",""trial"",""time""
""focus"",""1"",""5584""
","""event"",""trial"",""time""
""fullscreenenter"",""1"",""5685""
","
","","","-1","","","19","1072","691","q","elianto","#f73b6a7A","-1","-1","1","-10","[]","0","2","","","1072","109","11","4","lose","no-go","1","0"
"pit-trial","178","1571065","0.0-114.0","battery-v0.2","","""event"",""trial"",""time""
""blur"",""1"",""3705""
""focus"",""1"",""5584""
""fullscreenenter"",""1"",""5685""
","""event"",""trial"",""time""
""blur"",""1"",""3705""
","""event"",""trial"",""time""
""focus"",""1"",""5584""
","""event"",""trial"",""time""
""fullscreenenter"",""1"",""5685""
","
","","","1175","","","19","1072","691","f","elianto","#3366ff99","-1"," ","0","0","[2025.1000000238419]","1","2","","","1072","110","9","2","win","no-go","0","0"
"pit-trial","179","1574702","0.0-115.0","battery-v0.2","","""event"",""trial"",""time""
""blur"",""1"",""3705""
""focus"",""1"",""5584""
""fullscreenenter"",""1"",""5685""
","""event"",""trial"",""time""
""blur"",""1"",""3705""
","""event"",""trial"",""time""
""focus"",""1"",""5584""
","""event"",""trial"",""time""
""fullscreenenter"",""1"",""5685""
","
","","","775.1000000238419","","","19","1072","691","x","elianto","#3366ff99"," "," ","1","+10","[1626.7999999523163]","1","2","","","1072","111","8","1","win","go","0","0"
"pit-trial","180","1579568","0.0-116.0","battery-v0.2","","""event"",""trial"",""time""
""blur"",""1"",""3705""
""focus"",""1"",""5584""
""fullscreenenter"",""1"",""5685""
","""event"",""trial"",""time""
""blur"",""1"",""3705""
","""event"",""trial"",""time""
""focus"",""1"",""5584""
","""event"",""trial"",""time""
""fullscreenenter"",""1"",""5685""
","
","","","-1","","","19","1072","691","n","elianto","#f73b6a7A"," ","-1","0","-10","[]","0","2","","","1072","112","10","3","lose","go","0","0"
"pit-trial","181","1583279","0.0-117.0","battery-v0.2","","""event"",""trial"",""time""
""blur"",""1"",""3705""
""focus"",""1"",""5584""
""fullscreenenter"",""1"",""5685""
","""event"",""trial"",""time""
""blur"",""1"",""3705""
","""event"",""trial"",""time""
""focus"",""1"",""5584""
","""event"",""trial"",""time""
""fullscreenenter"",""1"",""5685""
","
","","","843.8000000715256","","","19","1072","691","n","elianto","#f73b6a7A"," "," ","1","0","[1695]","1","2","","","1072","113","10","3","lose","go","0","0"
"pit-trial","182","1586760","0.0-118.0","battery-v0.2","","""event"",""trial"",""time""
""blur"",""1"",""3705""
""focus"",""1"",""5584""
""fullscreenenter"",""1"",""5685""
","""event"",""trial"",""time""
""blur"",""1"",""3705""
","""event"",""trial"",""time""
""focus"",""1"",""5584""
","""event"",""trial"",""time""
""fullscreenenter"",""1"",""5685""
","
","","","625.3999999761581","","","19","1072","691","q","elianto","#f73b6a7A","-1"," ","0","-10","[1476.2999999523163]","1","2","","","1072","114","11","4","lose","no-go","0","0"
"pit-trial","183","1591620","0.0-119.0","battery-v0.2","","""event"",""trial"",""time""
""blur"",""1"",""3705""
""focus"",""1"",""5584""
""fullscreenenter"",""1"",""5685""
","""event"",""trial"",""time""
""blur"",""1"",""3705""
","""event"",""trial"",""time""
""focus"",""1"",""5584""
","""event"",""trial"",""time""
""fullscreenenter"",""1"",""5685""
","
","","","-1","","","19","1072","691","x","elianto","#3366ff99"," ","-1","0","0","[]","0","2","","","1072","115","8","1","win","go","0","0"
"pit-trial","184","1595547","0.0-120.0","battery-v0.2","","""event"",""trial"",""time""
""blur"",""1"",""3705""
""focus"",""1"",""5584""
""fullscreenenter"",""1"",""5685""
","""event"",""trial"",""time""
""blur"",""1"",""3705""
","""event"",""trial"",""time""
""focus"",""1"",""5584""
","""event"",""trial"",""time""
""fullscreenenter"",""1"",""5685""
","
