"trial_type","trial_index","time_elapsed","internal_node_id","task_version","subject_id","interactions","blur_events","focus_events","fullscreenenter_events","fullscreenexit_events","success","view_history","rt","responses","num_errors","age","subject","participantId","rune","rune_set","hex","correct","choice","accuracy","outcome","keys","total_keys","block","practice","value","sub","trial","stimulus","robot","valence","action","sham","browser_interactions"
"pavlovia","0","11","0.0-0.0","battery-v0.2","","""event"",""trial"",""time""
""fullscreenenter"",""1"",""3013""
","
","
","""event"",""trial"",""time""
""fullscreenenter"",""1"",""3013""
","
","","","","","","","","","","","","","","","","","","","","","","","","","","","",""
"fullscreen","1","3997","0.0-1.0","battery-v0.2","","""event"",""trial"",""time""
""fullscreenenter"",""1"",""3013""
","
","
","""event"",""trial"",""time""
""fullscreenenter"",""1"",""3013""
","
","true","","","","","","","","","","","","","","","","","","","","","","","","","","",""
"pit-instructions","2","10618","0.0-2.0-0.0","battery-v0.2","","""event"",""trial"",""time""
""fullscreenenter"",""1"",""3013""
","
","
","""event"",""trial"",""time""
""fullscreenenter"",""1"",""3013""
","
","","[{""page_index"":0,""viewing_time"":6619.399999976158}]","6619.600000023842","","","","","","","","","","","","","","","","","","","","","","","","",""
"pit-comprehension","3","13258","0.0-2.0-1.0-0.0","battery-v0.2","","""event"",""trial"",""time""
""fullscreenenter"",""1"",""3013""
","
","
","""event"",""trial"",""time""
""fullscreenenter"",""1"",""3013""
","
","","","2637.7000000476837","[""shark""]","0","24","1332","1397","","","","","","","","","","","","","","","","","","","",""
"pit-instructions","4","14574","0.0-2.0-1.0-1.0","battery-v0.2","","""event"",""trial"",""time""
""fullscreenenter"",""1"",""3013""
","
","
","""event"",""trial"",""time""
""fullscreenenter"",""1"",""3013""
","
","","[{""page_index"":0,""viewing_time"":1308.6999999284744}]","1308.8999999761581","","","","","","","","","","","","","","","","","","","","","","","","",""
"pit-comprehension","5","17087","0.0-2.0-2.0-0.0","battery-v0.2","","""event"",""trial"",""time""
""fullscreenenter"",""1"",""3013""
","
","
","""event"",""trial"",""time""
""fullscreenenter"",""1"",""3013""
","
","","","2510.899999976158","[""tiger""]","0","24","1332","1397","","","","","","","","","","","","","","","","","","","",""
"pit-instructions","6","20108","0.0-2.0-2.0-1.0","battery-v0.2","","""event"",""trial"",""time""
""fullscreenenter"",""1"",""3013""
","
","
","""event"",""trial"",""time""
""fullscreenenter"",""1"",""3013""
","
","","[{""page_index"":0,""viewing_time"":3019.2999999523163}]","3019.5999999046326","","","","","","","","","","","","","","","","","","","","","","","","",""
"pit-instructions","7","123140","0.0-2.0-3.0","battery-v0.2","","""event"",""trial"",""time""
""fullscreenenter"",""1"",""3013""
","
","
","""event"",""trial"",""time""
""fullscreenenter"",""1"",""3013""
","
","","[{""page_index"":0,""viewing_time"":9209.100000023842},{""page_index"":1,""viewing_time"":6763},{""page_index"":0,""viewing_time"":1596.5},{""page_index"":1,""viewing_time"":3549.2000000476837},{""page_index"":0,""viewing_time"":1754.2999999523163},{""page_index"":1,""viewing_time"":1353},{""page_index"":2,""viewing_time"":5862},{""page_index"":3,""viewing_time"":5097.5},{""page_index"":4,""viewing_time"":5698},{""page_index"":5,""viewing_time"":5591.399999976158},{""page_index"":6,""viewing_time"":8357.200000047684},{""page_index"":7,""viewing_time"":6721.899999976158},{""page_index"":8,""viewing_time"":6245.5},{""page_index"":9,""viewing_time"":8251},{""page_index"":10,""viewing_time"":7451.200000047684},{""page_index"":11,""viewing_time"":6920.099999904633},{""page_index"":12,""viewing_time"":7672.600000023842},{""page_index"":13,""viewing_time"":4936.700000047684}]","103030.39999997616","","","","","","","","","","","","","","","","","","","","","","","","",""
"pit-trial","8","126663","0.0-2.0-4.0-0.0","battery-v0.2","","""event"",""trial"",""time""
""fullscreenenter"",""1"",""3013""
","
","
","""event"",""trial"",""time""
""fullscreenenter"",""1"",""3013""
","
","","","654","","","24","1332","1397","&#9784;","elianto","#FFFFF080"," "," ","1","&#10004","[1506.2999999523163]","1","0","0","","","","","","","","",""
"pit-trial","9","130115","0.0-2.0-4.1-0.1","battery-v0.2","","""event"",""trial"",""time""
""fullscreenenter"",""1"",""3013""
","
","
","""event"",""trial"",""time""
""fullscreenenter"",""1"",""3013""
","
","","","585.5","","","24","1332","1397","&#9784;","elianto","#FFFFF080"," "," ","1","&#10004","[1436.6000000238419]","1","0","0","","","","","","","","",""
"pit-trial","10","133507","0.0-2.0-4.2-0.2","battery-v0.2","","""event"",""trial"",""time""
""fullscreenenter"",""1"",""3013""
","
","
","""event"",""trial"",""time""
""fullscreenenter"",""1"",""3013""
","
","","","527.2999999523163","","","24","1332","1397","&#9784;","elianto","#FFFFF080"," "," ","1","&#10004","[1377.5]","1","0","0","","","","","","","","",""
"pit-trial","11","136847","0.0-2.0-4.3-0.3","battery-v0.2","","""event"",""trial"",""time""
""fullscreenenter"",""1"",""3013""
","
","
","""event"",""trial"",""time""
""fullscreenenter"",""1"",""3013""
","
","","","473.5","","","24","1332","1397","&#9784;","elianto","#FFFFF080"," "," ","1","&#10004","[1328.5]","1","0","0","","","","","","","","",""
"pit-trial","12","140264","0.0-2.0-4.4-0.4","battery-v0.2","","""event"",""trial"",""time""
""fullscreenenter"",""1"",""3013""
","
","
","""event"",""trial"",""time""
""fullscreenenter"",""1"",""3013""
","
","","","558.1999999284744","","","24","1332","1397","&#9784;","elianto","#FFFFF080"," "," ","1","&#10004","[1409.6999999284744]","1","0","0","","","","","","","","",""
"pit-instructions","13","160331","0.0-2.0-5.0","battery-v0.2","","""event"",""trial"",""time""
""fullscreenenter"",""1"",""3013""
","
","
","""event"",""trial"",""time""
""fullscreenenter"",""1"",""3013""
","
","","[{""page_index"":0,""viewing_time"":4749.600000023842},{""page_index"":1,""viewing_time"":5423.199999928474},{""page_index"":2,""viewing_time"":4771.700000047684},{""page_index"":3,""viewing_time"":5120.299999952316}]","20065.100000023842","","","","","","","","","","","","","","","","","","","","","","","","",""
"pit-trial","14","165198","0.0-2.0-6.0-0.0","battery-v0.2","","""event"",""trial"",""time""
""fullscreenenter"",""1"",""3013""
","
","
","""event"",""trial"",""time""
""fullscreenenter"",""1"",""3013""
","
","","","-1","","","24","1332","1397","&#9854;","elianto","#FFFFF080","-1","-1","1","&#10004","[]","0","0","1","","","","","","","","",""
"pit-trial","15","170068","0.0-2.0-6.1-0.1","battery-v0.2","","""event"",""trial"",""time""
""fullscreenenter"",""1"",""3013""
","
","
","""event"",""trial"",""time""
""fullscreenenter"",""1"",""3013""
","
","","","-1","","","24","1332","1397","&#9854;","elianto","#FFFFF080","-1","-1","1","&#10004","[]","0","0","1","","","","","","","","",""
"pit-trial","16","174937","0.0-2.0-6.2-0.2","battery-v0.2","","""event"",""trial"",""time""
""fullscreenenter"",""1"",""3013""
","
","
","""event"",""trial"",""time""
""fullscreenenter"",""1"",""3013""
","
","","","-1","","","24","1332","1397","&#9854;","elianto","#FFFFF080","-1","-1","1","&#10004","[]","0","0","1","","","","","","","","",""
"pit-trial","17","179796","0.0-2.0-6.3-0.3","battery-v0.2","","""event"",""trial"",""time""
""fullscreenenter"",""1"",""3013""
","
","
","""event"",""trial"",""time""
""fullscreenenter"",""1"",""3013""
","
","","","-1","","","24","1332","1397","&#9854;","elianto","#FFFFF080","-1","-1","1","&#10004","[]","0","0","1","","","","","","","","",""
"pit-trial","18","184666","0.0-2.0-6.4-0.4","battery-v0.2","","""event"",""trial"",""time""
""fullscreenenter"",""1"",""3013""
","
","
","""event"",""trial"",""time""
""fullscreenenter"",""1"",""3013""
","
","","","-1","","","24","1332","1397","&#9854;","elianto","#FFFFF080","-1","-1","1","&#10004","[]","0","0","1","","","","","","","","",""
"pit-instructions","19","298820","0.0-2.0-7.0","battery-v0.2","","""event"",""trial"",""time""
""fullscreenenter"",""1"",""3013""
","
","
","""event"",""trial"",""time""
""fullscreenenter"",""1"",""3013""
","
","","[{""page_index"":0,""viewing_time"":5843.399999976158},{""page_index"":1,""viewing_time"":6455},{""page_index"":2,""viewing_time"":5432.200000047684},{""page_index"":3,""viewing_time"":7196.5},{""page_index"":4,""viewing_time"":5076.199999928474},{""page_index"":5,""viewing_time"":5011.399999976158},{""page_index"":6,""viewing_time"":4402},{""page_index"":7,""viewing_time"":7658.5},{""page_index"":8,""viewing_time"":6878.600000023842},{""page_index"":9,""viewing_time"":5992.700000047684},{""page_index"":10,""viewing_time"":6390.600000023842},{""page_index"":11,""viewing_time"":5068.5},{""page_index"":12,""viewing_time"":9022.099999904633},{""page_index"":13,""viewing_time"":7052.900000095367},{""page_index"":14,""viewing_time"":6963},{""page_index"":15,""viewing_time"":6378},{""page_index"":16,""viewing_time"":6222.199999928474},{""page_index"":17,""viewing_time"":7109.300000071526}]","114153.39999997616","","","","","","","","","","","","","","","","","","","","","","","","",""
"pit-trial","20","302579","0.0-2.0-8.0-0.0","battery-v0.2","","""event"",""trial"",""time""
""fullscreenenter"",""1"",""3013""
","
","
","""event"",""trial"",""time""
""fullscreenenter"",""1"",""3013""
","
","","","892.8999999761581","","","24","1332","1397","&#9776;","elianto","#3366ff99"," "," ","1","+10","[1745.1999999284744]","1","0","1","","","","","","","","",""
"pit-trial","21","305999","0.0-2.0-8.0-1.0","battery-v0.2","","""event"",""trial"",""time""
""fullscreenenter"",""1"",""3013""
","
","
","""event"",""trial"",""time""
""fullscreenenter"",""1"",""3013""
","
","","","558.9000000953674","","","24","1332","1397","&#9776;","elianto","#3366ff99"," "," ","1","+10","[1410.2000000476837]","1","0","1","","","","","","","","",""
"pit-trial","22","309263","0.0-2.0-8.0-2.0","battery-v0.2","","""event"",""trial"",""time""
""fullscreenenter"",""1"",""3013""
","
","
","""event"",""trial"",""time""
""fullscreenenter"",""1"",""3013""
","
","","","396.7000000476837","","","24","1332","1397","&#9776;","elianto","#3366ff99"," "," ","1","+10","[1249.7999999523163]","1","0","1","","","","","","","","",""
"pit-trial","23","312514","0.0-2.0-8.0-3.0","battery-v0.2","","""event"",""trial"",""time""
""fullscreenenter"",""1"",""3013""
","
","
","""event"",""trial"",""time""
""fullscreenenter"",""1"",""3013""
","
","","","385.3000000715256","","","24","1332","1397","&#9776;","elianto","#3366ff99"," "," ","1","0","[1235.8000000715256]","1","0","1","","","","","","","","",""
"pit-trial","24","315773","0.0-2.0-8.0-4.0","battery-v0.2","","""event"",""trial"",""time""
""fullscreenenter"",""1"",""3013""
","
","
","""event"",""trial"",""time""
""fullscreenenter"",""1"",""3013""
","
","","","393.59999990463257","","","24","1332","1397","&#9776;","elianto","#3366ff99"," "," ","1","+10","[1247.5]","1","0","1","","","","","","","","",""
"call-function","25","315773","0.0-2.0-9.0","battery-v0.2","","""event"",""trial"",""time""
""fullscreenenter"",""1"",""3013""
","
","
","""event"",""trial"",""time""
""fullscreenenter"",""1"",""3013""
","
","","","","","","","","","","","","","","","","","","","","","","","","","","","",""
"pit-instructions","26","355682","0.0-2.0-10.0","battery-v0.2","","""event"",""trial"",""time""
""fullscreenenter"",""1"",""3013""
","
","
","""event"",""trial"",""time""
""fullscreenenter"",""1"",""3013""
","
","","[{""page_index"":0,""viewing_time"":7454.800000071526},{""page_index"":1,""viewing_time"":6584.699999928474},{""page_index"":2,""viewing_time"":9521.300000071526},{""page_index"":3,""viewing_time"":8940.100000023842},{""page_index"":4,""viewing_time"":7406.899999976158}]","39908.10000002384","","","","","","","","","","","","","","","","","","","","","","","","",""
"pit-trial","27","360549","0.0-2.0-11.0-0.0","battery-v0.2","","""event"",""trial"",""time""
""fullscreenenter"",""1"",""3013""
","
","
","""event"",""trial"",""time""
""fullscreenenter"",""1"",""3013""
","
","","","-1","","","24","1332","1397","&#9761;","elianto","#3366ff99","-1","-1","1","+10","[]","0","0","2","","","","","","","","",""
"pit-trial","28","365425","0.0-2.0-11.0-1.0","battery-v0.2","","""event"",""trial"",""time""
""fullscreenenter"",""1"",""3013""
","
","
","""event"",""trial"",""time""
""fullscreenenter"",""1"",""3013""
","
","","","-1","","","24","1332","1397","&#9761;","elianto","#3366ff99","-1","-1","1","+10","[]","0","0","2","","","","","","","","",""
"pit-trial","29","370292","0.0-2.0-11.0-2.0","battery-v0.2","","""event"",""trial"",""time""
""fullscreenenter"",""1"",""3013""
","
","
","""event"",""trial"",""time""
""fullscreenenter"",""1"",""3013""
","
","","","-1","","","24","1332","1397","&#9761;","elianto","#3366ff99","-1","-1","1","+10","[]","0","0","2","","","","","","","","",""
"pit-trial","30","375156","0.0-2.0-11.0-3.0","battery-v0.2","","""event"",""trial"",""time""
""fullscreenenter"",""1"",""3013""
","
","
","""event"",""trial"",""time""
""fullscreenenter"",""1"",""3013""
","
","","","-1","","","24","1332","1397","&#9761;","elianto","#3366ff99","-1","-1","1","0","[]","0","0","2","","","","","","","","",""
"pit-trial","31","380025","0.0-2.0-11.0-4.0","battery-v0.2","","""event"",""trial"",""time""
""fullscreenenter"",""1"",""3013""
","
","
","""event"",""trial"",""time""
""fullscreenenter"",""1"",""3013""
","
","","","-1","","","24","1332","1397","&#9761;","elianto","#3366ff99","-1","-1","1","+10","[]","0","0","2","","","","","","","","",""
"call-function","32","380025","0.0-2.0-12.0","battery-v0.2","","""event"",""trial"",""time""
""fullscreenenter"",""1"",""3013""
","
","
","""event"",""trial"",""time""
""fullscreenenter"",""1"",""3013""
","
","","","","","","","","","","","","","","","","","","","","","","","","","","","",""
"pit-instructions","33","412470","0.0-2.0-13.0","battery-v0.2","","""event"",""trial"",""time""
""fullscreenenter"",""1"",""3013""
","
","
","""event"",""trial"",""time""
""fullscreenenter"",""1"",""3013""
","
","","[{""page_index"":0,""viewing_time"":4842.899999976158},{""page_index"":1,""viewing_time"":7726.299999952316},{""page_index"":2,""viewing_time"":3758.9000000953674},{""page_index"":3,""viewing_time"":11019.899999976158},{""page_index"":4,""viewing_time"":5096}]","32444.199999928474","","","","","","","","","","","","","","","","","","","","","","","","",""
"pit-trial","34","417323","0.0-2.0-14.0-0.0","battery-v0.2","","""event"",""trial"",""time""
""fullscreenenter"",""1"",""3013""
","
","
","""event"",""trial"",""time""
""fullscreenenter"",""1"",""3013""
","
","","","-1","","","24","1332","1397","&#9826;","elianto","#f73b6a7A","-1","-1","1","0","[]","0","0","3","","","","","","","","",""
"pit-trial","35","422197","0.0-2.0-14.0-1.0","battery-v0.2","","""event"",""trial"",""time""
""fullscreenenter"",""1"",""3013""
","
","
","""event"",""trial"",""time""
""fullscreenenter"",""1"",""3013""
","
","","","-1","","","24","1332","1397","&#9826;","elianto","#f73b6a7A","-1","-1","1","0","[]","0","0","3","","","","","","","","",""
"pit-trial","36","427070","0.0-2.0-14.0-2.0","battery-v0.2","","""event"",""trial"",""time""
""fullscreenenter"",""1"",""3013""
","
","
","""event"",""trial"",""time""
""fullscreenenter"",""1"",""3013""
","
","","","-1","","","24","1332","1397","&#9826;","elianto","#f73b6a7A","-1","-1","1","0","[]","0","0","3","","","","","","","","",""
"pit-trial","37","431937","0.0-2.0-14.0-3.0","battery-v0.2","","""event"",""trial"",""time""
""fullscreenenter"",""1"",""3013""
","
","
","""event"",""trial"",""time""
""fullscreenenter"",""1"",""3013""
","
","","","-1","","","24","1332","1397","&#9826;","elianto","#f73b6a7A","-1","-1","1","-10","[]","0","0","3","","","","","","","","",""
"pit-trial","38","436807","0.0-2.0-14.0-4.0","battery-v0.2","","""event"",""trial"",""time""
""fullscreenenter"",""1"",""3013""
","
","
","""event"",""trial"",""time""
""fullscreenenter"",""1"",""3013""
","
","","","-1","","","24","1332","1397","&#9826;","elianto","#f73b6a7A","-1","-1","1","0","[]","0","0","3","","","","","","","","",""
"call-function","39","436807","0.0-2.0-15.0","battery-v0.2","","""event"",""trial"",""time""
""fullscreenenter"",""1"",""3013""
","
","
","""event"",""trial"",""time""
""fullscreenenter"",""1"",""3013""
","
","","","","","","","","","","","","","","","","","","","","","","","","","","","",""
"pit-instructions","40","461768","0.0-2.0-16.0","battery-v0.2","","""event"",""trial"",""time""
""fullscreenenter"",""1"",""3013""
","
","
","""event"",""trial"",""time""
""fullscreenenter"",""1"",""3013""
","
","","[{""page_index"":0,""viewing_time"":6571.899999976158},{""page_index"":1,""viewing_time"":8412},{""page_index"":2,""viewing_time"":4907.100000023842},{""page_index"":3,""viewing_time"":5068.399999976158}]","24959.700000047684","","","","","","","","","","","","","","","","","","","","","","","","",""
"pit-trial","41","466637","0.0-2.0-17.0-0.0","battery-v0.2","","""event"",""trial"",""time""
""fullscreenenter"",""1"",""3013""
","
","
","""event"",""trial"",""time""
""fullscreenenter"",""1"",""3013""
","
","","","-1","","","24","1332","1397","&#9789;","elianto","#f73b6a7A"," ","-1","0","-10","[]","0","0","4","","","","","","","","",""
"pit-trial","42","469924","0.0-2.0-17.0-1.0","battery-v0.2","","""event"",""trial"",""time""
""fullscreenenter"",""1"",""3013""
","
","
","""event"",""trial"",""time""
""fullscreenenter"",""1"",""3013""
","
","","","425.3000000715256","","","24","1332","1397","&#9789;","elianto","#f73b6a7A"," "," ","1","0","[1277.1000000238419]","1","0","4","","","","","","","","",""
"pit-trial","43","473324","0.0-2.0-17.0-2.0","battery-v0.2","","""event"",""trial"",""time""
""fullscreenenter"",""1"",""3013""
","
","
","""event"",""trial"",""time""
""fullscreenenter"",""1"",""3013""
","
","","","533.4000000953674","","","24","1332","1397","&#9789;","elianto","#f73b6a7A"," "," ","1","0","[1387.1000000238419]","1","0","4","","","","","","","","",""
"pit-trial","44","476447","0.0-2.0-17.0-3.0","battery-v0.2","","""event"",""trial"",""time""
""fullscreenenter"",""1"",""3013""
","
","
","""event"",""trial"",""time""
""fullscreenenter"",""1"",""3013""
","
","","","257.2000000476837","","","24","1332","1397","&#9789;","elianto","#f73b6a7A"," "," ","1","-10","[1107.7000000476837]","1","0","4","","","","","","","","",""
"pit-trial","45","479574","0.0-2.0-17.0-4.0","battery-v0.2","","""event"",""trial"",""time""
""fullscreenenter"",""1"",""3013""
","
","
","""event"",""trial"",""time""
""fullscreenenter"",""1"",""3013""
","
","","","268.5","","","24","1332","1397","&#9789;","elianto","#f73b6a7A"," "," ","1","0","[1122.2000000476837]","1","0","4","","","","","","","","",""
"call-function","46","479575","0.0-2.0-18.0","battery-v0.2","","""event"",""trial"",""time""
""fullscreenenter"",""1"",""3013""
","
","
","""event"",""trial"",""time""
""fullscreenenter"",""1"",""3013""
","
","","","","","","","","","","","","","","","","","","","","","","","","","","","",""
"pit-instructions","47","568447","0.0-2.0-19.0","battery-v0.2","","""event"",""trial"",""time""
""fullscreenenter"",""1"",""3013""
","
","
","""event"",""trial"",""time""
""fullscreenenter"",""1"",""3013""
","
","","[{""page_index"":0,""viewing_time"":6067.5},{""page_index"":1,""viewing_time"":6295},{""page_index"":2,""viewing_time"":12078},{""page_index"":3,""viewing_time"":5759.200000047684},{""page_index"":4,""viewing_time"":6557.100000023842},{""page_index"":3,""viewing_time"":2491},{""page_index"":2,""viewing_time"":1995.6999999284744},{""page_index"":3,""viewing_time"":4085.2000000476837},{""page_index"":4,""viewing_time"":6361.799999952316},{""page_index"":5,""viewing_time"":8793.200000047684},{""page_index"":6,""viewing_time"":8349.5},{""page_index"":7,""viewing_time"":6053.5},{""page_index"":8,""viewing_time"":4646.899999976158},{""page_index"":7,""viewing_time"":5723.899999976158},{""page_index"":8,""viewing_time"":3614}]","88872","","","","","","","","","","","","","","","","","","","","","","","","",""
"pit-comprehension","48","573108","0.0-2.0-20.0-0.0","battery-v0.2","","""event"",""trial"",""time""
""fullscreenenter"",""1"",""3013""
","
","
","""event"",""trial"",""time""
""fullscreenenter"",""1"",""3013""
","
","","","4659.199999928474","[""SPACE""]","0","24","1332","1397","","","","","","","","","","","","","","","","","","","",""
"pit-instructions","49","575774","0.0-2.0-20.0-1.0","battery-v0.2","","""event"",""trial"",""time""
""fullscreenenter"",""1"",""3013""
","
","
","""event"",""trial"",""time""
""fullscreenenter"",""1"",""3013""
","
","","[{""page_index"":0,""viewing_time"":2654.2000000476837}]","2654.5","","","","","","","","","","","","","","","","","","","","","","","","",""
"pit-comprehension","50","581425","0.0-2.0-21.0-0.0","battery-v0.2","","""event"",""trial"",""time""
""fullscreenenter"",""1"",""3013""
","
","
","""event"",""trial"",""time""
""fullscreenenter"",""1"",""3013""
","
","","","5649.300000071526","[""10""]","0","24","1332","1397","","","","","","","","","","","","","","","","","","","",""
"pit-instructions","51","583546","0.0-2.0-21.0-1.0","battery-v0.2","","""event"",""trial"",""time""
""fullscreenenter"",""1"",""3013""
","
","
","""event"",""trial"",""time""
""fullscreenenter"",""1"",""3013""
","
","","[{""page_index"":0,""viewing_time"":2109.2999999523163}]","2109.600000023842","","","","","","","","","","","","","","","","","","","","","","","","",""
"pit-comprehension","52","590124","0.0-2.0-22.0-0.0","battery-v0.2","","""event"",""trial"",""time""
""fullscreenenter"",""1"",""3013""
","
","
","""event"",""trial"",""time""
""fullscreenenter"",""1"",""3013""
","
","","","6576.5","[""0""]","0","24","1332","1397","","","","","","","","","","","","","","","","","","","",""
"pit-instructions","53","593808","0.0-2.0-22.0-1.0","battery-v0.2","","""event"",""trial"",""time""
""fullscreenenter"",""1"",""3013""
","
","
","""event"",""trial"",""time""
""fullscreenenter"",""1"",""3013""
","
","","[{""page_index"":0,""viewing_time"":3672.5}]","3672.8000000715256","","","","","","","","","","","","","","","","","","","","","","","","",""
"pit-comprehension","54","602394","0.0-2.0-23.0-0.0","battery-v0.2","","""event"",""trial"",""time""
""fullscreenenter"",""1"",""3013""
","
","
","""event"",""trial"",""time""
""fullscreenenter"",""1"",""3013""
","
","","","8584.399999976158","[""True""]","0","24","1332","1397","","","","","","","","","","","","","","","","","","","",""
"pit-instructions","55","606176","0.0-2.0-23.0-1.0","battery-v0.2","","""event"",""trial"",""time""
""fullscreenenter"",""1"",""3013""
","
","
","""event"",""trial"",""time""
""fullscreenenter"",""1"",""3013""
","
","","[{""page_index"":0,""viewing_time"":3771}]","3771.399999976158","","","","","","","","","","","","","","","","","","","","","","","","",""
"pit-comprehension","56","613241","0.0-2.0-24.0-0.0","battery-v0.2","","""event"",""trial"",""time""
""fullscreenenter"",""1"",""3013""
","
","
","""event"",""trial"",""time""
""fullscreenenter"",""1"",""3013""
","
","","","7063.400000095367","[""True""]","0","24","1332","1397","","","","","","","","","","","","","","","","","","","",""
"pit-instructions","57","618025","0.0-2.0-24.0-1.0","battery-v0.2","","""event"",""trial"",""time""
""fullscreenenter"",""1"",""3013""
","
","
","""event"",""trial"",""time""
""fullscreenenter"",""1"",""3013""
","
","","[{""page_index"":0,""viewing_time"":4770.600000023842}]","4770.799999952316","","","","","","","","","","","","","","","","","","","","","","","","",""
"pit-comprehension","58","624215","0.0-2.0-25.0-0.0","battery-v0.2","","""event"",""trial"",""time""
""fullscreenenter"",""1"",""3013""
","
","
","""event"",""trial"",""time""
""fullscreenenter"",""1"",""3013""
","
","","","6187.899999976158","[""True""]","0","24","1332","1397","","","","","","","","","","","","","","","","","","","",""
"pit-instructions","59","629320","0.0-2.0-25.0-1.0","battery-v0.2","","""event"",""trial"",""time""
""fullscreenenter"",""1"",""3013""
","
","
","""event"",""trial"",""time""
""fullscreenenter"",""1"",""3013""
","
","","[{""page_index"":0,""viewing_time"":5092.400000095367}]","5092.5","","","","","","","","","","","","","","","","","","","","","","","","",""
"pit-comprehension","60","634057","0.0-2.0-26.0-0.0","battery-v0.2","","""event"",""trial"",""time""
""fullscreenenter"",""1"",""3013""
","
","
","""event"",""trial"",""time""
""fullscreenenter"",""1"",""3013""
","
","","","4734.800000071526","[""False""]","0","24","1332","1397","","","","","","","","","","","","","","","","","","","",""
"pit-instructions","61","639669","0.0-2.0-26.0-1.0","battery-v0.2","","""event"",""trial"",""time""
""fullscreenenter"",""1"",""3013""
","
","
","""event"",""trial"",""time""
""fullscreenenter"",""1"",""3013""
","
","","[{""page_index"":0,""viewing_time"":5599.899999976158}]","5600.100000023842","","","","","","","","","","","","","","","","","","","","","","","","",""
"pit-instructions","62","656232","0.0-3.0","battery-v0.2","","""event"",""trial"",""time""
""fullscreenenter"",""1"",""3013""
","
","
","""event"",""trial"",""time""
""fullscreenenter"",""1"",""3013""
","
","","[{""page_index"":0,""viewing_time"":3866.5999999046326},{""page_index"":1,""viewing_time"":5911.5},{""page_index"":2,""viewing_time"":6783.5}]","16561.799999952316","","","","","","","","","","","","","","","","","","","","","","","","",""
"pit-trial","63","661091","0.0-4.0","battery-v0.2","","""event"",""trial"",""time""
""fullscreenenter"",""1"",""3013""
","
","
","""event"",""trial"",""time""
""fullscreenenter"",""1"",""3013""
","
","","","-1","","","24","1332","1397","&#9728;","elianto","#f73b6a7A","-1","-1","1","0","[]","0","1","","","1332","1","0","4","lose","no-go","0","[]"
"pit-trial","64","665756","0.0-5.0","battery-v0.2","","""event"",""trial"",""time""
""fullscreenenter"",""1"",""3013""
","
","
","""event"",""trial"",""time""
""fullscreenenter"",""1"",""3013""
","
","","","1806.8999999761581","","","24","1332","1397","&#9752;","elianto","#f73b6a7A"," "," ","1","-10","[2660.600000023842]","1","1","","","1332","2","3","3","lose","go","1","0"
"pit-trial","65","669332","0.0-6.0","battery-v0.2","","""event"",""trial"",""time""
""fullscreenenter"",""1"",""3013""
","
","
","""event"",""trial"",""time""
""fullscreenenter"",""1"",""3013""
","
","","","718.3000000715256","","","24","1332","1397","&#9733;","elianto","#3366ff99","-1"," ","0","+10","[1569.3000000715256]","1","1","","","1332","3","2","2","win","no-go","1","0"
"pit-trial","66","673283","0.0-7.0","battery-v0.2","","""event"",""trial"",""time""
""fullscreenenter"",""1"",""3013""
","
","
","""event"",""trial"",""time""
""fullscreenenter"",""1"",""3013""
","
","","","1096.1000000238419","","","24","1332","1397","&#9730;","elianto","#3366ff99"," "," ","1","+10","[1947]","1","1","","","1332","4","1","1","win","go","0","0"
"pit-trial","67","677128","0.0-8.0","battery-v0.2","","""event"",""trial"",""time""
""fullscreenenter"",""1"",""3013""
","
","
","""event"",""trial"",""time""
""fullscreenenter"",""1"",""3013""
","
","","","990.8999999761581","","","24","1332","1397","&#9752;","elianto","#f73b6a7A"," "," ","1","0","[1842.1999999284744]","1","1","","","1332","5","3","3","lose","go","0","0"
"pit-trial","68","681017","0.0-9.0","battery-v0.2","","""event"",""trial"",""time""
""fullscreenenter"",""1"",""3013""
","
","
","""event"",""trial"",""time""
""fullscreenenter"",""1"",""3013""
","
","","","1034.9000000953674","","","24","1332","1397","&#9730;","elianto","#3366ff99"," "," ","1","0","[1885.2000000476837]","1","1","","","1332","6","1","1","win","go","1","0"
"pit-trial","69","684610","0.0-10.0","battery-v0.2","","""event"",""trial"",""time""
""fullscreenenter"",""1"",""3013""
","
","
","""event"",""trial"",""time""
""fullscreenenter"",""1"",""3013""
","
","","","737.8999999761581","","","24","1332","1397","&#9728;","elianto","#f73b6a7A","-1"," ","0","-10","[1591.6000000238419]","1","1","","","1332","7","0","4","lose","no-go","0","0"
"pit-trial","70","688478","0.0-11.0","battery-v0.2","","""event"",""trial"",""time""
""fullscreenenter"",""1"",""3013""
","
","
","""event"",""trial"",""time""
""fullscreenenter"",""1"",""3013""
","
","","","1016.8999999761581","","","24","1332","1397","&#9733;","elianto","#3366ff99","-1"," ","0","0","[1867.0999999046326]","1","1","","","1332","8","2","2","win","no-go","0","0"
"pit-trial","71","693331","0.0-12.0","battery-v0.2","","""event"",""trial"",""time""
""fullscreenenter"",""1"",""3013""
","
","
","""event"",""trial"",""time""
""fullscreenenter"",""1"",""3013""
","
","","","-1","","","24","1332","1397","&#9733;","elianto","#3366ff99","-1","-1","1","+10","[]","0","1","","","1332","9","2","2","win","no-go","0","0"
"pit-trial","72","697193","0.0-13.0","battery-v0.2","","""event"",""trial"",""time""
""fullscreenenter"",""1"",""3013""
","
","
","""event"",""trial"",""time""
""fullscreenenter"",""1"",""3013""
","
","","","1009.8999999761581","","","24","1332","1397","&#9730;","elianto","#3366ff99"," "," ","1","+10","[1860]","1","1","","","1332","10","1","1","win","go","0","0"
"pit-trial","73","701252","0.0-14.0","battery-v0.2","","""event"",""trial"",""time""
""fullscreenenter"",""1"",""3013""
","
","
","""event"",""trial"",""time""
""fullscreenenter"",""1"",""3013""
","
","","","1206.2999999523163","","","24","1332","1397","&#9728;","elianto","#f73b6a7A","-1"," ","0","-10","[2056.899999976158]","1","1","","","1332","11","0","4","lose","no-go","0","0"
"pit-trial","74","705533","0.0-15.0","battery-v0.2","","""event"",""trial"",""time""
""fullscreenenter"",""1"",""3013""
","
","
","""event"",""trial"",""time""
""fullscreenenter"",""1"",""3013""
","
","","","1427.2999999523163","","","24","1332","1397","&#9752;","elianto","#f73b6a7A"," "," ","1","0","[2279.2000000476837]","1","1","","","1332","12","3","3","lose","go","0","0"
"pit-trial","75","709189","0.0-16.0","battery-v0.2","","""event"",""trial"",""time""
""fullscreenenter"",""1"",""3013""
","
","
","""event"",""trial"",""time""
""fullscreenenter"",""1"",""3013""
","
","","","804.1000000238419","","","24","1332","1397","&#9752;","elianto","#f73b6a7A"," "," ","1","0","[1654.2000000476837]","1","1","","","1332","13","3","3","lose","go","0","0"
"pit-trial","76","712732","0.0-17.0","battery-v0.2","","""event"",""trial"",""time""
""fullscreenenter"",""1"",""3013""
","
","
","""event"",""trial"",""time""
""fullscreenenter"",""1"",""3013""
","
","","","691.0999999046326","","","24","1332","1397","&#9730;","elianto","#3366ff99"," "," ","1","+10","[1542]","1","1","","","1332","14","1","1","win","go","0","0"
"pit-trial","77","716312","0.0-18.0","battery-v0.2","","""event"",""trial"",""time""
""fullscreenenter"",""1"",""3013""
","
","
","""event"",""trial"",""time""
""fullscreenenter"",""1"",""3013""
","
","","","728","","","24","1332","1397","&#9733;","elianto","#3366ff99","-1"," ","0","+10","[1578.7000000476837]","1","1","","","1332","15","2","2","win","no-go","1","0"
"pit-trial","78","721165","0.0-19.0","battery-v0.2","","""event"",""trial"",""time""
""fullscreenenter"",""1"",""3013""
","
","
","""event"",""trial"",""time""
""fullscreenenter"",""1"",""3013""
","
","","","-1","","","24","1332","1397","&#9728;","elianto","#f73b6a7A","-1","-1","1","0","[]","0","1","","","1332","16","0","4","lose","no-go","0","0"
"pit-trial","79","724934","0.0-20.0","battery-v0.2","","""event"",""trial"",""time""
""fullscreenenter"",""1"",""3013""
","
","
","""event"",""trial"",""time""
""fullscreenenter"",""1"",""3013""
","
","","","916.8000000715256","","","24","1332","1397","&#9752;","elianto","#f73b6a7A"," "," ","1","0","[1767.3000000715256]","1","1","","","1332","17","3","3","lose","go","0","0"
"pit-trial","80","728412","0.0-21.0","battery-v0.2","","""event"",""trial"",""time""
""fullscreenenter"",""1"",""3013""
","
","
","""event"",""trial"",""time""
""fullscreenenter"",""1"",""3013""
","
","","","625.7000000476837","","","24","1332","1397","&#9730;","elianto","#3366ff99"," "," ","1","+10","[1476.2000000476837]","1","1","","","1332","18","1","1","win","go","0","0"
"pit-trial","81","732118","0.0-22.0","battery-v0.2","","""event"",""trial"",""time""
""fullscreenenter"",""1"",""3013""
","
","
","""event"",""trial"",""time""
""fullscreenenter"",""1"",""3013""
","
","","","852.7000000476837","","","24","1332","1397","&#9733;","elianto","#3366ff99","-1"," ","0","0","[1703.9000000953674]","1","1","","","1332","19","2","2","win","no-go","0","0"
"pit-trial","82","736435","0.0-23.0","battery-v0.2","","""event"",""trial"",""time""
""fullscreenenter"",""1"",""3013""
","
","
","""event"",""trial"",""time""
""fullscreenenter"",""1"",""3013""
","
","","","1464.5","","","24","1332","1397","&#9728;","elianto","#f73b6a7A","-1"," ","0","-10","[2314.600000023842]","1","1","","","1332","20","0","4","lose","no-go","0","0"
"pit-instructions","83","749121","0.0-24.0","battery-v0.2","","""event"",""trial"",""time""
""fullscreenenter"",""1"",""3013""
","
","
","""event"",""trial"",""time""
""fullscreenenter"",""1"",""3013""
","
","","[{""page_index"":0,""viewing_time"":5689.700000047684},{""page_index"":1,""viewing_time"":6994.899999976158}]","12684.899999976158","","","","","","","","","","","","","","","","","","","","","","","","",""
"pit-trial","84","753985","0.0-25.0","battery-v0.2","","""event"",""trial"",""time""
""fullscreenenter"",""1"",""3013""
","
","
","""event"",""trial"",""time""
""fullscreenenter"",""1"",""3013""
","
","","","-1","","","24","1332","1397","a","elianto","#3366ff99"," ","-1","0","0","[]","0","2","","","1332","21","2","1","win","go","0","0"
"pit-trial","85","758842","0.0-26.0","battery-v0.2","","""event"",""trial"",""time""
""fullscreenenter"",""1"",""3013""
","
","
","""event"",""trial"",""time""
""fullscreenenter"",""1"",""3013""
","
","","","-1","","","24","1332","1397","l","elianto","#3366ff99","-1","-1","1","0","[]","0","2","","","1332","22","1","2","win","no-go","1","0"
"pit-trial","86","763714","0.0-27.0","battery-v0.2","","""event"",""trial"",""time""
""fullscreenenter"",""1"",""3013""
","
","
","""event"",""trial"",""time""
""fullscreenenter"",""1"",""3013""
","
","","","-1","","","24","1332","1397","u","elianto","#3366ff99","-1","-1","1","+10","[]","0","2","","","1332","23","0","2","win","no-go","0","0"
"pit-trial","87","768575","0.0-28.0","battery-v0.2","","""event"",""trial"",""time""
""fullscreenenter"",""1"",""3013""
","
","
","""event"",""trial"",""time""
""fullscreenenter"",""1"",""3013""
","
","","","-1","","","24","1332","1397","g","elianto","#f73b6a7A"," ","-1","0","-10","[]","0","2","","","1332","24","3","3","lose","go","0","0"
"pit-trial","88","772121","0.0-29.0","battery-v0.2","","""event"",""trial"",""time""
""fullscreenenter"",""1"",""3013""
","
","
","""event"",""trial"",""time""
""fullscreenenter"",""1"",""3013""
","
","","","679.1000000238419","","","24","1332","1397","l","elianto","#3366ff99","-1"," ","0","+10","[1529.5]","1","2","","","1332","25","1","2","win","no-go","1","0"
"pit-trial","89","776975","0.0-30.0","battery-v0.2","","""event"",""trial"",""time""
""fullscreenenter"",""1"",""3013""
","
","
","""event"",""trial"",""time""
""fullscreenenter"",""1"",""3013""
","
","","","-1","","","24","1332","1397","u","elianto","#3366ff99","-1","-1","1","+10","[]","0","2","","","1332","26","0","2","win","no-go","0","0"
"pit-trial","90","780463","0.0-31.0","battery-v0.2","","""event"",""trial"",""time""
""fullscreenenter"",""1"",""3013""
","
","
","""event"",""trial"",""time""
""fullscreenenter"",""1"",""3013""
","
","","","636.7000000476837","","","24","1332","1397","g","elianto","#f73b6a7A"," "," ","1","0","[1487.2000000476837]","1","2","","","1332","27","3","3","lose","go","0","0"
"pit-trial","91","784301","0.0-32.0","battery-v0.2","","""event"",""trial"",""time""
""fullscreenenter"",""1"",""3013""
","
","
","""event"",""trial"",""time""
""fullscreenenter"",""1"",""3013""
","
","","","985.7000000476837","","","24","1332","1397","a","elianto","#3366ff99"," "," ","1","+10","[1836.3000000715256]","1","2","","","1332","28","2","1","win","go","0","0"
"pit-trial","92","788159","0.0-33.0","battery-v0.2","","""event"",""trial"",""time""
""fullscreenenter"",""1"",""3013""
","
","
","""event"",""trial"",""time""
""fullscreenenter"",""1"",""3013""
","
","","","1006.3000000715256","","","24","1332","1397","g","elianto","#f73b6a7A"," "," ","1","-10","[1857.1000000238419]","1","2","","","1332","29","3","3","lose","go","1","0"
"pit-trial","93","791761","0.0-34.0","battery-v0.2","","""event"",""trial"",""time""
""fullscreenenter"",""1"",""3013""
","
","
","""event"",""trial"",""time""
""fullscreenenter"",""1"",""3013""
","
","","","748.3999999761581","","","24","1332","1397","l","elianto","#3366ff99","-1"," ","0","0","[1599.6999999284744]","1","2","","","1332","30","1","2","win","no-go","0","0"
"pit-trial","94","795258","0.0-35.0","battery-v0.2","","""event"",""trial"",""time""
""fullscreenenter"",""1"",""3013""
","
","
","""event"",""trial"",""time""
""fullscreenenter"",""1"",""3013""
","
","","","644.3000000715256","","","24","1332","1397","a","elianto","#3366ff99"," "," ","1","+10","[1495.3999999761581]","1","2","","","1332","31","2","1","win","go","0","0"
"pit-trial","95","800111","0.0-36.0","battery-v0.2","","""event"",""trial"",""time""
""fullscreenenter"",""1"",""3013""
","
","
","""event"",""trial"",""time""
""fullscreenenter"",""1"",""3013""
","
","","","-1","","","24","1332","1397","u","elianto","#3366ff99","-1","-1","1","+10","[]","0","2","","","1332","32","0","2","win","no-go","0","0"
"pit-trial","96","803601","0.0-37.0","battery-v0.2","","""event"",""trial"",""time""
""fullscreenenter"",""1"",""3013""
","
","
","""event"",""trial"",""time""
""fullscreenenter"",""1"",""3013""
","
","","","637.6999999284744","","","24","1332","1397","l","elianto","#3366ff99","-1"," ","0","+10","[1487.7999999523163]","1","2","","","1332","33","1","2","win","no-go","1","0"
"pit-trial","97","808454","0.0-38.0","battery-v0.2","","""event"",""trial"",""time""
""fullscreenenter"",""1"",""3013""
","
","
","""event"",""trial"",""time""
""fullscreenenter"",""1"",""3013""
","
","","","-1","","","24","1332","1397","u","elianto","#3366ff99","-1","-1","1","+10","[]","0","2","","","1332","34","0","2","win","no-go","0","0"
"pit-trial","98","812171","0.0-39.0","battery-v0.2","","""event"",""trial"",""time""
""fullscreenenter"",""1"",""3013""
","
","
","""event"",""trial"",""time""
""fullscreenenter"",""1"",""3013""
","
","","","865.1000000238419","","","24","1332","1397","a","elianto","#3366ff99"," "," ","1","0","[1715.1000000238419]","1","2","","","1332","35","2","1","win","go","1","0"
"pit-trial","99","816234","0.0-40.0","battery-v0.2","","""event"",""trial"",""time""
""fullscreenenter"",""1"",""3013""
","
","
","""event"",""trial"",""time""
""fullscreenenter"",""1"",""3013""
","
","","","1210.3999999761581","","","24","1332","1397","g","elianto","#f73b6a7A"," "," ","1","0","[2061.7999999523163]","1","2","","","1332","36","3","3","lose","go","0","0"
"pit-trial","100","819905","0.0-41.0","battery-v0.2","","""event"",""trial"",""time""
""fullscreenenter"",""1"",""3013""
","
","
","""event"",""trial"",""time""
""fullscreenenter"",""1"",""3013""
","
","","","816.7999999523163","","","24","1332","1397","g","elianto","#f73b6a7A"," "," ","1","0","[1668.6000000238419]","1","2","","","1332","37","3","3","lose","go","0","0"
"pit-trial","101","824758","0.0-42.0","battery-v0.2","","""event"",""trial"",""time""
""fullscreenenter"",""1"",""3013""
","
","
","""event"",""trial"",""time""
""fullscreenenter"",""1"",""3013""
","
","","","-1","","","24","1332","1397","u","elianto","#3366ff99","-1","-1","1","+10","[]","0","2","","","1332","38","0","2","win","no-go","0","0"
"pit-trial","102","828239","0.0-43.0","battery-v0.2","","""event"",""trial"",""time""
""fullscreenenter"",""1"",""3013""
","
","
","""event"",""trial"",""time""
""fullscreenenter"",""1"",""3013""
","
","","","629.1000000238419","","","24","1332","1397","a","elianto","#3366ff99"," "," ","1","+10","[1479.1000000238419]","1","2","","","1332","39","2","1","win","go","0","0"
"pit-trial","103","831733","0.0-44.0","battery-v0.2","","""event"",""trial"",""time""
""fullscreenenter"",""1"",""3013""
","
","
","""event"",""trial"",""time""
""fullscreenenter"",""1"",""3013""
","
","","","642.8999999761581","","","24","1332","1397","l","elianto","#3366ff99","-1"," ","0","+10","[1493.3999999761581]","1","2","","","1332","40","1","2","win","no-go","1","0"
"pit-trial","104","835264","0.0-45.0","battery-v0.2","","""event"",""trial"",""time""
""fullscreenenter"",""1"",""3013""
","
","
","""event"",""trial"",""time""
""fullscreenenter"",""1"",""3013""
","
","","","678.8000000715256","","","24","1332","1397","g","elianto","#f73b6a7A"," "," ","1","0","[1529.6000000238419]","1","2","","","1332","41","3","3","lose","go","0","0"
"pit-trial","105","838759","0.0-46.0","battery-v0.2","","""event"",""trial"",""time""
""fullscreenenter"",""1"",""3013""
","
","
","""event"",""trial"",""time""
""fullscreenenter"",""1"",""3013""
","
","","","642.2000000476837","","","24","1332","1397","a","elianto","#3366ff99"," "," ","1","+10","[1493.3999999761581]","1","2","","","1332","42","2","1","win","go","0","0"
"pit-trial","106","842175","0.0-47.0","battery-v0.2","","""event"",""trial"",""time""
""fullscreenenter"",""1"",""3013""
","
","
","""event"",""trial"",""time""
""fullscreenenter"",""1"",""3013""
","
","","","563.7999999523163","","","24","1332","1397","l","elianto","#3366ff99","-1"," ","0","0","[1414.0999999046326]","1","2","","","1332","43","1","2","win","no-go","0","0"
"pit-trial","107","847027","0.0-48.0","battery-v0.2","","""event"",""trial"",""time""
""fullscreenenter"",""1"",""3013""
","
","
","""event"",""trial"",""time""
""fullscreenenter"",""1"",""3013""
","
","","","-1","","","24","1332","1397","u","elianto","#3366ff99","-1","-1","1","+10","[]","0","2","","","1332","44","0","2","win","no-go","0","0"
"pit-trial","108","851879","0.0-49.0","battery-v0.2","","""event"",""trial"",""time""
""fullscreenenter"",""1"",""3013""
","
","
","""event"",""trial"",""time""
""fullscreenenter"",""1"",""3013""
","
","","","-1","","","24","1332","1397","u","elianto","#3366ff99","-1","-1","1","+10","[]","0","2","","","1332","45","0","2","win","no-go","0","0"
"pit-trial","109","855467","0.0-50.0","battery-v0.2","","""event"",""trial"",""time""
""fullscreenenter"",""1"",""3013""
","
","
","""event"",""trial"",""time""
""fullscreenenter"",""1"",""3013""
","
","","","734.6000000238419","","","24","1332","1397","g","elianto","#f73b6a7A"," "," ","1","0","[1586.3000000715256]","1","2","","","1332","46","3","3","lose","go","0","0"
"pit-trial","110","859008","0.0-51.0","battery-v0.2","","""event"",""trial"",""time""
""fullscreenenter"",""1"",""3013""
","
","
","""event"",""trial"",""time""
""fullscreenenter"",""1"",""3013""
","
","","","688.4000000953674","","","24","1332","1397","l","elianto","#3366ff99","-1"," ","0","0","[1539.2000000476837]","1","2","","","1332","47","1","2","win","no-go","0","0"
"pit-trial","111","862588","0.0-52.0","battery-v0.2","","""event"",""trial"",""time""
""fullscreenenter"",""1"",""3013""
","
","
","""event"",""trial"",""time""
""fullscreenenter"",""1"",""3013""
","
","","","728.6000000238419","","","24","1332","1397","a","elianto","#3366ff99"," "," ","1","+10","[1578.8999999761581]","1","2","","","1332","48","2","1","win","go","0","0"
"pit-trial","112","866231","0.0-53.0","battery-v0.2","","""event"",""trial"",""time""
""fullscreenenter"",""1"",""3013""
","
","
","""event"",""trial"",""time""
""fullscreenenter"",""1"",""3013""
","
","","","791.3999999761581","","","24","1332","1397","l","elianto","#3366ff99","-1"," ","0","0","[1641.6000000238419]","1","2","","","1332","49","1","2","win","no-go","0","0"
"pit-trial","113","869688","0.0-54.0","battery-v0.2","","""event"",""trial"",""time""
""fullscreenenter"",""1"",""3013""
","
","
","""event"",""trial"",""time""
""fullscreenenter"",""1"",""3013""
","
","","","603.8999999761581","","","24","1332","1397","a","elianto","#3366ff99"," "," ","1","+10","[1454.2000000476837]","1","2","","","1332","50","2","1","win","go","0","0"
"pit-trial","114","873249","0.0-55.0","battery-v0.2","","""event"",""trial"",""time""
""fullscreenenter"",""1"",""3013""
","
","
","""event"",""trial"",""time""
""fullscreenenter"",""1"",""3013""
","
","","","708.2000000476837","","","24","1332","1397","g","elianto","#f73b6a7A"," "," ","1","0","[1558.3999999761581]","1","2","","","1332","51","3","3","lose","go","0","0"
"pit-trial","115","878102","0.0-56.0","battery-v0.2","","""event"",""trial"",""time""
""fullscreenenter"",""1"",""3013""
","
","
","""event"",""trial"",""time""
""fullscreenenter"",""1"",""3013""
","
","","","-1","","","24","1332","1397","u","elianto","#3366ff99","-1","-1","1","+10","[]","0","2","","","1332","52","0","2","win","no-go","0","0"
"pit-trial","116","882954","0.0-57.0","battery-v0.2","","""event"",""trial"",""time""
""fullscreenenter"",""1"",""3013""
","
","
","""event"",""trial"",""time""
""fullscreenenter"",""1"",""3013""
","
","","","-1","","","24","1332","1397","s","elianto","#f73b6a7A"," ","-1","0","-10","[]","0","2","","","1332","53","5","3","lose","go","0","0"
"pit-trial","117","886639","0.0-58.0","battery-v0.2","","""event"",""trial"",""time""
""fullscreenenter"",""1"",""3013""
","
","
","""event"",""trial"",""time""
""fullscreenenter"",""1"",""3013""
","
","","","832.6000000238419","","","24","1332","1397","a","elianto","#3366ff99"," "," ","1","0","[1683.2000000476837]","1","2","","","1332","54","2","1","win","go","1","0"
"pit-trial","118","891491","0.0-59.0","battery-v0.2","","""event"",""trial"",""time""
""fullscreenenter"",""1"",""3013""
","
","
","""event"",""trial"",""time""
""fullscreenenter"",""1"",""3013""
","
","","","-1","","","24","1332","1397","u","elianto","#3366ff99","-1","-1","1","+10","[]","0","2","","","1332","55","0","2","win","no-go","0","0"
"pit-trial","119","896343","0.0-60.0","battery-v0.2","","""event"",""trial"",""time""
""fullscreenenter"",""1"",""3013""
","
","
","""event"",""trial"",""time""
""fullscreenenter"",""1"",""3013""
","
","","","-1","","","24","1332","1397","p","elianto","#f73b6a7A","-1","-1","1","0","[]","0","2","","","1332","56","4","4","lose","no-go","0","0"
"pit-trial","120","899747","0.0-61.0","battery-v0.2","","""event"",""trial"",""time""
""fullscreenenter"",""1"",""3013""
","
","
","""event"",""trial"",""time""
""fullscreenenter"",""1"",""3013""
","
","","","551.5","","","24","1332","1397","a","elianto","#3366ff99"," "," ","1","0","[1402.3000000715256]","1","2","","","1332","57","2","1","win","go","1","0"
"pit-trial","121","904599","0.0-62.0","battery-v0.2","","""event"",""trial"",""time""
""fullscreenenter"",""1"",""3013""
","
","
","""event"",""trial"",""time""
""fullscreenenter"",""1"",""3013""
","
","","","-1","","","24","1332","1397","u","elianto","#3366ff99","-1","-1","1","+10","[]","0","2","","","1332","58","0","2","win","no-go","0","0"
"pit-trial","122","909452","0.0-63.0","battery-v0.2","","""event"",""trial"",""time""
""fullscreenenter"",""1"",""3013""
","
","
","""event"",""trial"",""time""
""fullscreenenter"",""1"",""3013""
","
","","","-1","","","24","1332","1397","p","elianto","#f73b6a7A","-1","-1","1","0","[]","0","2","","","1332","59","4","4","lose","no-go","0","0"
"pit-trial","123","912901","0.0-64.0","battery-v0.2","","""event"",""trial"",""time""
""fullscreenenter"",""1"",""3013""
","
","
","""event"",""trial"",""time""
""fullscreenenter"",""1"",""3013""
","
","","","597.1000000238419","","","24","1332","1397","s","elianto","#f73b6a7A"," "," ","1","-10","[1447.1000000238419]","1","2","","","1332","60","5","3","lose","go","1","0"
"pit-trial","124","916611","0.0-65.0","battery-v0.2","","""event"",""trial"",""time""
""fullscreenenter"",""1"",""3013""
","
","
","""event"",""trial"",""time""
""fullscreenenter"",""1"",""3013""
","
","","","858.0999999046326","","","24","1332","1397","a","elianto","#3366ff99"," "," ","1","+10","[1709]","1","2","","","1332","61","2","1","win","go","0","0"
"pit-trial","125","921463","0.0-66.0","battery-v0.2","","""event"",""trial"",""time""
""fullscreenenter"",""1"",""3013""
","
","
","""event"",""trial"",""time""
""fullscreenenter"",""1"",""3013""
","
","","","-1","","","24","1332","1397","p","elianto","#f73b6a7A","-1","-1","1","0","[]","0","2","","","1332","62","4","4","lose","no-go","0","0"
"pit-trial","126","926317","0.0-67.0","battery-v0.2","","""event"",""trial"",""time""
""fullscreenenter"",""1"",""3013""
","
","
","""event"",""trial"",""time""
""fullscreenenter"",""1"",""3013""
","
","","","-1","","","24","1332","1397","s","elianto","#f73b6a7A"," ","-1","0","-10","[]","0","2","","","1332","63","5","3","lose","go","0","0"
"pit-trial","127","930164","0.0-68.0","battery-v0.2","","""event"",""trial"",""time""
""fullscreenenter"",""1"",""3013""
","
","
","""event"",""trial"",""time""
""fullscreenenter"",""1"",""3013""
","
","","","994","","","24","1332","1397","w","elianto","#3366ff99","-1"," ","0","0","[1844.8000000715256]","1","2","","","1332","64","6","2","win","no-go","0","0"
"pit-trial","128","935016","0.0-69.0","battery-v0.2","","""event"",""trial"",""time""
""fullscreenenter"",""1"",""3013""
","
","
","""event"",""trial"",""time""
""fullscreenenter"",""1"",""3013""
","
","","","-1","","","24","1332","1397","w","elianto","#3366ff99","-1","-1","1","+10","[]","0","2","","","1332","65","6","2","win","no-go","0","0"
"pit-trial","129","939868","0.0-70.0","battery-v0.2","","""event"",""trial"",""time""
""fullscreenenter"",""1"",""3013""
","
","
","""event"",""trial"",""time""
""fullscreenenter"",""1"",""3013""
","
","","","-1","","","24","1332","1397","p","elianto","#f73b6a7A","-1","-1","1","-10","[]","0","2","","","1332","66","4","4","lose","no-go","1","0"
"pit-trial","130","943435","0.0-71.0","battery-v0.2","","""event"",""trial"",""time""
""fullscreenenter"",""1"",""3013""
","
","
","""event"",""trial"",""time""
""fullscreenenter"",""1"",""3013""
","
","","","713.2000000476837","","","24","1332","1397","a","elianto","#3366ff99"," "," ","1","+10","[1565.1000000238419]","1","2","","","1332","67","2","1","win","go","0","0"
"pit-trial","131","947281","0.0-72.0","battery-v0.2","","""event"",""trial"",""time""
""fullscreenenter"",""1"",""3013""
","
","
","""event"",""trial"",""time""
""fullscreenenter"",""1"",""3013""
","
","","","994.2000000476837","","","24","1332","1397","s","elianto","#f73b6a7A"," "," ","1","0","[1845.1000000238419]","1","2","","","1332","68","5","3","lose","go","0","0"
"pit-trial","132","950935","0.0-73.0","battery-v0.2","","""event"",""trial"",""time""
""fullscreenenter"",""1"",""3013""
","
","
","""event"",""trial"",""time""
""fullscreenenter"",""1"",""3013""
","
","","","802.5","","","24","1332","1397","s","elianto","#f73b6a7A"," "," ","1","0","[1653]","1","2","","","1332","69","5","3","lose","go","0","0"
"pit-trial","133","954864","0.0-74.0","battery-v0.2","","""event"",""trial"",""time""
""fullscreenenter"",""1"",""3013""
","
","
","""event"",""trial"",""time""
""fullscreenenter"",""1"",""3013""
","
","","","1075.5","","","24","1332","1397","w","elianto","#3366ff99","-1"," ","0","0","[1927]","1","2","","","1332","70","6","2","win","no-go","0","0"
"pit-trial","134","959717","0.0-75.0","battery-v0.2","","""event"",""trial"",""time""
""fullscreenenter"",""1"",""3013""
","
","
","""event"",""trial"",""time""
""fullscreenenter"",""1"",""3013""
","
","","","-1","","","24","1332","1397","e","elianto","#f73b6a7A","-1","-1","1","0","[]","0","2","","","1332","71","7","4","lose","no-go","0","0"
"pit-trial","135","964571","0.0-76.0","battery-v0.2","","""event"",""trial"",""time""
""fullscreenenter"",""1"",""3013""
","
","
","""event"",""trial"",""time""
""fullscreenenter"",""1"",""3013""
","
","","","-1","","","24","1332","1397","p","elianto","#f73b6a7A","-1","-1","1","0","[]","0","2","","","1332","72","4","4","lose","no-go","0","0"
"pit-trial","136","969424","0.0-77.0","battery-v0.2","","""event"",""trial"",""time""
""fullscreenenter"",""1"",""3013""
","
","
","""event"",""trial"",""time""
""fullscreenenter"",""1"",""3013""
","
","","","-1","","","24","1332","1397","e","elianto","#f73b6a7A","-1","-1","1","-10","[]","0","2","","","1332","73","7","4","lose","no-go","1","0"
"pit-trial","137","973164","0.0-78.0","battery-v0.2","","""event"",""trial"",""time""
""fullscreenenter"",""1"",""3013""
","
","
","""event"",""trial"",""time""
""fullscreenenter"",""1"",""3013""
","
","","","887.3999999761581","","","24","1332","1397","w","elianto","#3366ff99","-1"," ","0","0","[1738.2999999523163]","1","2","","","1332","74","6","2","win","no-go","0","0"
"pit-trial","138","978016","0.0-79.0","battery-v0.2","","""event"",""trial"",""time""
""fullscreenenter"",""1"",""3013""
","
","
","""event"",""trial"",""time""
""fullscreenenter"",""1"",""3013""
","
","","","-1","","","24","1332","1397","p","elianto","#f73b6a7A","-1","-1","1","0","[]","0","2","","","1332","75","4","4","lose","no-go","0","0"
"pit-trial","139","981834","0.0-80.0","battery-v0.2","","""event"",""trial"",""time""
""fullscreenenter"",""1"",""3013""
","
","
","""event"",""trial"",""time""
""fullscreenenter"",""1"",""3013""
","
","","","966","","","24","1332","1397","s","elianto","#f73b6a7A"," "," ","1","0","[1816.6000000238419]","1","2","","","1332","76","5","3","lose","go","0","0"
"pit-trial","140","986688","0.0-81.0","battery-v0.2","","""event"",""trial"",""time""
""fullscreenenter"",""1"",""3013""
","
","
","""event"",""trial"",""time""
""fullscreenenter"",""1"",""3013""
","
","","","-1","","","24","1332","1397","p","elianto","#f73b6a7A","-1","-1","1","0","[]","0","2","","","1332","77","4","4","lose","no-go","0","0"
"pit-trial","141","990278","0.0-82.0","battery-v0.2","","""event"",""trial"",""time""
""fullscreenenter"",""1"",""3013""
","
","
","""event"",""trial"",""time""
""fullscreenenter"",""1"",""3013""
","
","","","737.7000000476837","","","24","1332","1397","s","elianto","#f73b6a7A"," "," ","1","0","[1588.7000000476837]","1","2","","","1332","78","5","3","lose","go","0","0"
"pit-trial","142","995130","0.0-83.0","battery-v0.2","","""event"",""trial"",""time""
""fullscreenenter"",""1"",""3013""
","
","
","""event"",""trial"",""time""
""fullscreenenter"",""1"",""3013""
","
","","","-1","","","24","1332","1397","w","elianto","#3366ff99","-1","-1","1","+10","[]","0","2","","","1332","79","6","2","win","no-go","0","0"
"pit-trial","143","999598","0.0-84.0","battery-v0.2","","""event"",""trial"",""time""
""fullscreenenter"",""1"",""3013""
","
","
","""event"",""trial"",""time""
""fullscreenenter"",""1"",""3013""
","
","","","1616.3999999761581","","","24","1332","1397","e","elianto","#f73b6a7A","-1"," ","0","-10","[2466.600000023842]","1","2","","","1332","80","7","4","lose","no-go","0","0"
"pit-trial","144","1003181","0.0-85.0","battery-v0.2","","""event"",""trial"",""time""
""fullscreenenter"",""1"",""3013""
","
","
","""event"",""trial"",""time""
""fullscreenenter"",""1"",""3013""
","
","","","729.7000000476837","","","24","1332","1397","s","elianto","#f73b6a7A"," "," ","1","0","[1581.3000000715256]","1","2","","","1332","81","5","3","lose","go","0","0"
"pit-trial","145","1008034","0.0-86.0","battery-v0.2","","""event"",""trial"",""time""
""fullscreenenter"",""1"",""3013""
","
","
","""event"",""trial"",""time""
""fullscreenenter"",""1"",""3013""
","
","","","-1","","","24","1332","1397","e","elianto","#f73b6a7A","-1","-1","1","0","[]","0","2","","","1332","82","7","4","lose","no-go","0","0"
"pit-trial","146","1012887","0.0-87.0","battery-v0.2","","""event"",""trial"",""time""
""fullscreenenter"",""1"",""3013""
","
","
","""event"",""trial"",""time""
""fullscreenenter"",""1"",""3013""
","
","","","-1","","","24","1332","1397","w","elianto","#3366ff99","-1","-1","1","+10","[]","0","2","","","1332","83","6","2","win","no-go","0","0"
"pit-trial","147","1017751","0.0-88.0","battery-v0.2","","""event"",""trial"",""time""
""fullscreenenter"",""1"",""3013""
","
","
","""event"",""trial"",""time""
""fullscreenenter"",""1"",""3013""
","
","","","-1","","","24","1332","1397","p","elianto","#f73b6a7A","-1","-1","1","-10","[]","0","2","","","1332","84","4","4","lose","no-go","1","0"
"pit-trial","148","1022604","0.0-89.0","battery-v0.2","","""event"",""trial"",""time""
""fullscreenenter"",""1"",""3013""
","
","
","""event"",""trial"",""time""
""fullscreenenter"",""1"",""3013""
","
","","","-1","","","24","1332","1397","e","elianto","#f73b6a7A","-1","-1","1","0","[]","0","2","","","1332","85","7","4","lose","no-go","0","0"
"pit-trial","149","1027456","0.0-90.0","battery-v0.2","","""event"",""trial"",""time""
""fullscreenenter"",""1"",""3013""
","
","
","""event"",""trial"",""time""
""fullscreenenter"",""1"",""3013""
","
","","","-1","","","24","1332","1397","p","elianto","#f73b6a7A","-1","-1","1","0","[]","0","2","","","1332","86","4","4","lose","no-go","0","0"
"pit-trial","150","1031246","0.0-91.0","battery-v0.2","","""event"",""trial"",""time""
""fullscreenenter"",""1"",""3013""
","
","
","""event"",""trial"",""time""
""fullscreenenter"",""1"",""3013""
","
","","","935.8999999761581","","","24","1332","1397","s","elianto","#f73b6a7A"," "," ","1","0","[1787.8999999761581]","1","2","","","1332","87","5","3","lose","go","0","0"
"pit-trial","151","1036099","0.0-92.0","battery-v0.2","","""event"",""trial"",""time""
""fullscreenenter"",""1"",""3013""
","
","
","""event"",""trial"",""time""
""fullscreenenter"",""1"",""3013""
","
","","","-1","","","24","1332","1397","w","elianto","#3366ff99","-1","-1","1","+10","[]","0","2","","","1332","88","6","2","win","no-go","0","0"
"pit-trial","152","1040951","0.0-93.0","battery-v0.2","","""event"",""trial"",""time""
""fullscreenenter"",""1"",""3013""
","
","
","""event"",""trial"",""time""
""fullscreenenter"",""1"",""3013""
","
","","","-1","","","24","1332","1397","p","elianto","#f73b6a7A","-1","-1","1","0","[]","0","2","","","1332","89","4","4","lose","no-go","0","0"
"pit-trial","153","1045803","0.0-94.0","battery-v0.2","","""event"",""trial"",""time""
""fullscreenenter"",""1"",""3013""
","
","
","""event"",""trial"",""time""
""fullscreenenter"",""1"",""3013""
","
","","","-1","","","24","1332","1397","e","elianto","#f73b6a7A","-1","-1","1","0","[]","0","2","","","1332","90","7","4","lose","no-go","0","0"
"pit-trial","154","1050657","0.0-95.0","battery-v0.2","","""event"",""trial"",""time""
""fullscreenenter"",""1"",""3013""
","
","
","""event"",""trial"",""time""
""fullscreenenter"",""1"",""3013""
","
","","","-1","","","24","1332","1397","s","elianto","#f73b6a7A"," ","-1","0","-10","[]","0","2","","","1332","91","5","3","lose","go","0","0"
"pit-trial","155","1055509","0.0-96.0","battery-v0.2","","""event"",""trial"",""time""
""fullscreenenter"",""1"",""3013""
","
","
","""event"",""trial"",""time""
""fullscreenenter"",""1"",""3013""
","
","","","-1","","","24","1332","1397","w","elianto","#3366ff99","-1","-1","1","+10","[]","0","2","","","1332","92","6","2","win","no-go","0","0"
"pit-trial","156","1060362","0.0-97.0","battery-v0.2","","""event"",""trial"",""time""
""fullscreenenter"",""1"",""3013""
","
","
","""event"",""trial"",""time""
""fullscreenenter"",""1"",""3013""
","
","","","-1","","","24","1332","1397","k","elianto","#f73b6a7A","-1","-1","1","0","[]","0","2","","","1332","93","8","4","lose","no-go","0","0"
"pit-trial","157","1065213","0.0-98.0","battery-v0.2","","""event"",""trial"",""time""
""fullscreenenter"",""1"",""3013""
","
","
","""event"",""trial"",""time""
""fullscreenenter"",""1"",""3013""
","
","","","-1","","","24","1332","1397","e","elianto","#f73b6a7A","-1","-1","1","0","[]","0","2","","","1332","94","7","4","lose","no-go","0","0"
"pit-trial","158","1070065","0.0-99.0","battery-v0.2","","""event"",""trial"",""time""
""fullscreenenter"",""1"",""3013""
","
","
","""event"",""trial"",""time""
""fullscreenenter"",""1"",""3013""
","
","","","-1","","","24","1332","1397","w","elianto","#3366ff99","-1","-1","1","+10","[]","0","2","","","1332","95","6","2","win","no-go","0","0"
"pit-trial","159","1073605","0.0-100.0","battery-v0.2","","""event"",""trial"",""time""
""fullscreenenter"",""1"",""3013""
","
","
","""event"",""trial"",""time""
""fullscreenenter"",""1"",""3013""
","
","","","688.5","","","24","1332","1397","s","elianto","#f73b6a7A"," "," ","1","-10","[1539.5]","1","2","","","1332","96","5","3","lose","go","1","0"
"pit-trial","160","1078457","0.0-101.0","battery-v0.2","","""event"",""trial"",""time""
""fullscreenenter"",""1"",""3013""
","
","
","""event"",""trial"",""time""
""fullscreenenter"",""1"",""3013""
","
","","","-1","","","24","1332","1397","w","elianto","#3366ff99","-1","-1","1","+10","[]","0","2","","","1332","97","6","2","win","no-go","0","0"
"pit-trial","161","1081981","0.0-102.0","battery-v0.2","","""event"",""trial"",""time""
""fullscreenenter"",""1"",""3013""
","
","
","""event"",""trial"",""time""
""fullscreenenter"",""1"",""3013""
","
","","","670.7999999523163","","","24","1332","1397","s","elianto","#f73b6a7A"," "," ","1","0","[1521.3999999761581]","1","2","","","1332","98","5","3","lose","go","0","0"
"pit-trial","162","1086833","0.0-103.0","battery-v0.2","","""event"",""trial"",""time""
""fullscreenenter"",""1"",""3013""
","
","
","""event"",""trial"",""time""
""fullscreenenter"",""1"",""3013""
","
","","","-1","","","24","1332","1397","e","elianto","#f73b6a7A","-1","-1","1","-10","[]","0","2","","","1332","99","7","4","lose","no-go","1","0"
"pit-trial","163","1091685","0.0-104.0","battery-v0.2","","""event"",""trial"",""time""
""fullscreenenter"",""1"",""3013""
","
","
","""event"",""trial"",""time""
""fullscreenenter"",""1"",""3013""
","
","","","-1","","","24","1332","1397","k","elianto","#f73b6a7A","-1","-1","1","0","[]","0","2","","","1332","100","8","4","lose","no-go","0","0"
"pit-trial","164","1096537","0.0-105.0","battery-v0.2","","""event"",""trial"",""time""
""fullscreenenter"",""1"",""3013""
","
","
","""event"",""trial"",""time""
""fullscreenenter"",""1"",""3013""
","
","","","-1","","","24","1332","1397","k","elianto","#f73b6a7A","-1","-1","1","0","[]","0","2","","","1332","101","8","4","lose","no-go","0","0"
"pit-trial","165","1101390","0.0-106.0","battery-v0.2","","""event"",""trial"",""time""
""fullscreenenter"",""1"",""3013""
","
","
","""event"",""trial"",""time""
""fullscreenenter"",""1"",""3013""
","
","","","-1","","","24","1332","1397","d","elianto","#3366ff99"," ","-1","0","0","[]","0","2","","","1332","102","9","1","win","go","0","0"
"pit-trial","166","1106241","0.0-107.0","battery-v0.2","","""event"",""trial"",""time""
""fullscreenenter"",""1"",""3013""
","
","
","""event"",""trial"",""time""
""fullscreenenter"",""1"",""3013""
","
","","","-1","","","24","1332","1397","j","elianto","#f73b6a7A"," ","-1","0","-10","[]","0","2","","","1332","103","10","3","lose","go","0","0"
"pit-trial","167","1111094","0.0-108.0","battery-v0.2","","""event"",""trial"",""time""
""fullscreenenter"",""1"",""3013""
","
","
","""event"",""trial"",""time""
""fullscreenenter"",""1"",""3013""
","
","","","-1","","","24","1332","1397","w","elianto","#3366ff99","-1","-1","1","+10","[]","0","2","","","1332","104","6","2","win","no-go","0","0"
"pit-trial","168","1114872","0.0-109.0","battery-v0.2","","""event"",""trial"",""time""
""fullscreenenter"",""1"",""3013""
","
","
","""event"",""trial"",""time""
""fullscreenenter"",""1"",""3013""
","
","","","924.6999999284744","","","24","1332","1397","d","elianto","#3366ff99"," "," ","1","+10","[1775.5]","1","2","","","1332","105","9","1","win","go","0","0"
"pit-trial","169","1118679","0.0-110.0","battery-v0.2","","""event"",""trial"",""time""
""fullscreenenter"",""1"",""3013""
","
","
","""event"",""trial"",""time""
""fullscreenenter"",""1"",""3013""
","
","","","954.6000000238419","","","24","1332","1397","j","elianto","#f73b6a7A"," "," ","1","0","[1804.8999999761581]","1","2","","","1332","106","10","3","lose","go","0","0"
"pit-trial","170","1123532","0.0-111.0","battery-v0.2","","""event"",""trial"",""time""
""fullscreenenter"",""1"",""3013""
","
","
","""event"",""trial"",""time""
""fullscreenenter"",""1"",""3013""
","
","","","-1","","","24","1332","1397","k","elianto","#f73b6a7A","-1","-1","1","0","[]","0","2","","","1332","107","8","4","lose","no-go","0","0"
"pit-trial","171","1128384","0.0-112.0","battery-v0.2","","""event"",""trial"",""time""
""fullscreenenter"",""1"",""3013""
","
","
","""event"",""trial"",""time""
""fullscreenenter"",""1"",""3013""
","
","","","-1","","","24","1332","1397","w","elianto","#3366ff99","-1","-1","1","+10","[]","0","2","","","1332","108","6","2","win","no-go","0","0"
"pit-trial","172","1132242","0.0-113.0","battery-v0.2","","""event"",""trial"",""time""
""fullscreenenter"",""1"",""3013""
","
","
","""event"",""trial"",""time""
""fullscreenenter"",""1"",""3013""
","
","","","1004","","","24","1332","1397","j","elianto","#f73b6a7A"," "," ","1","-10","[1854.7999999523163]","1","2","","","1332","109","10","3","lose","go","1","0"
"pit-trial","173","1137094","0.0-114.0","battery-v0.2","","""event"",""trial"",""time""
""fullscreenenter"",""1"",""3013""
","
","
","""event"",""trial"",""time""
""fullscreenenter"",""1"",""3013""
","
","","","-1","","","24","1332","1397","v","elianto","#3366ff99"," ","-1","0","0","[]","0","2","","","1332","110","11","1","win","go","0","0"
"pit-trial","174","1140909","0.0-115.0","battery-v0.2","","""event"",""trial"",""time""
""fullscreenenter"",""1"",""3013""
","
","
","""event"",""trial"",""time""
""fullscreenenter"",""1"",""3013""
","
","","","961","","","24","1332","1397","d","elianto","#3366ff99"," "," ","1","+10","[1813]","1","2","","","1332","111","9","1","win","go","0","0"
"pit-trial","175","1145762","0.0-116.0","battery-v0.2","","""event"",""trial"",""time""
""fullscreenenter"",""1"",""3013""
","
","
","""event"",""trial"",""time""
""fullscreenenter"",""1"",""3013""
","
","","","-1","","","24","1332","1397","k","elianto","#f73b6a7A","-1","-1","1","-10","[]","0","2","","","1332","112","8","4","lose","no-go","1","0"
"pit-trial","176","1149373","0.0-117.0","battery-v0.2","","""event"",""trial"",""time""
""fullscreenenter"",""1"",""3013""
","
","
","""event"",""trial"",""time""
""fullscreenenter"",""1"",""3013""
","
","","","758.6000000238419","","","24","1332","1397","j","elianto","#f73b6a7A"," "," ","1","0","[1608.6999999284744]","1","2","","","1332","113","10","3","lose","go","0","0"
"pit-trial","177","1154225","0.0-118.0","battery-v0.2","","""event"",""trial"",""time""
""fullscreenenter"",""1"",""3013""
","
","
","""event"",""trial"",""time""
""fullscreenenter"",""1"",""3013""
","
","","","-1","","","24","1332","1397","k","elianto","#f73b6a7A","-1","-1","1","-10","[]","0","2","","","1332","114","8","4","lose","no-go","1","0"
"pit-trial","178","1158240","0.0-119.0","battery-v0.2","","""event"",""trial"",""time""
""fullscreenenter"",""1"",""3013""
","
","
","""event"",""trial"",""time""
""fullscreenenter"",""1"",""3013""
","
","","","1162.2999999523163","","","24","1332","1397","d","elianto","#3366ff99"," "," ","1","+10","[2012.6999999284744]","1","2","","","1332","115","9","1","win","go","0","0"
"pit-trial","179","1162124","0.0-120.0","battery-v0.2","","""event"",""trial"",""time""
""fullscreenenter"",""1"",""3013""
","
","
","""event"",""trial"",""time""
""fullscreenenter"",""1"",""3013""
","
","","","1031.5","","","24","1332","1397","v","elianto","#3366ff99"," "," ","1","+10","[1882.4000000953674]","1","2","","","1332","116","11","1","win","go","0","0"
"pit-trial","180","1165724","0.0-121.0","battery-v0.2","","""event"",""trial"",""time""
""fullscreenenter"",""1"",""3013""
","
","
","""event"",""trial"",""time""
""fullscreenenter"",""1"",""3013""
","
","","","748.6999999284744","","","24","1332","1397","d","elianto","#3366ff99"," "," ","1","+10","[1598.7999999523163]","1","2","","","1332","117","9","1","win","go","0","0"
"pit-trial","181","1170577","0.0-122.0","battery-v0.2","","""event"",""trial"",""time""
""fullscreenenter"",""1"",""3013""
","
","
","""event"",""trial"",""time""
""fullscreenenter"",""1"",""3013""
","
","","","-1","","","24","1332","1397","k","elianto","#f73b6a7A","-1","-1","1","0","[]","0","2","","","1332","118","8","4","lose","no-go","0","0"
"pit-trial","182","1174248","0.0-123.0","battery-v0.2","","""event"",""trial"",""time""
""fullscreenenter"",""1"",""3013""
","
","
","""event"",""trial"",""time""
""fullscreenenter"",""1"",""3013""
","
","","","818.8999999761581","","","24","1332","1397","v","elianto","#3366ff99"," "," ","1","+10","[1669.0999999046326]","1","2","","","1332","119","11","1","win","go","0","0"
"pit-trial","183","1178106","0.0-124.0","battery-v0.2","","""event"",""trial"",""time""
""fullscreenenter"",""1"",""3013""
","
","
","""event"",""trial"",""time""
""fullscreenenter"",""1"",""3013""
","
","","","1004.2000000476837","","","24","1332","1397","j","elianto","#f73b6a7A"," "," ","1","0","[1854.6000000238419]","1","2","","","1332","120","10","3","lose","go","0","0"
"pit-trial","184","1182957","0.0-125.0","battery-v0.2","","""event"",""trial"",""time""
""fullscreenenter"",""1"",""3013""
","
","
","""event"",""trial"",""time""
""fullscreenenter"",""1"",""3013""
","
","","","-1","","","24","1332","1397","k","elianto","#f73b6a7A","-1","-1","1","0","[]","0","2","","","1332","121","8","4","lose","no-go","0","0"
"pit-trial","185","1186522","0.0-126.0","battery-v0.2","","""event"",""trial"",""time""
""fullscreenenter"",""1"",""3013""
","
","
","""event"",""trial"",""time""
""fullscreenenter"",""1"",""3013""
","
","","","711.8000000715256","","","24","1332","1397","d","elianto","#3366ff99"," "," ","1","+10","[1563.5]","1","2","","","1332","122","9","1","win","go","0","0"
"pit-trial","186","1190107","0.0-127.0","battery-v0.2","","""event"",""trial"",""time""
""fullscreenenter"",""1"",""3013""
","
","
","""event"",""trial"",""time""
""fullscreenenter"",""1"",""3013""
","
","","","732.5","","","24","1332","1397","j","elianto","#f73b6a7A"," "," ","1","-10","[1583.5]","1","2","","","1332","123","10","3","lose","go","1","0"
"pit-trial","187","1193693","0.0-128.0","battery-v0.2","","""event"",""trial"",""time""
""fullscreenenter"",""1"",""3013""
","
","
","""event"",""trial"",""time""
""fullscreenenter"",""1"",""3013""
","
","","","733.7999999523163","","","24","1332","1397","v","elianto","#3366ff99"," "," ","1","0","[1584.5999999046326]","1","2","","","1332","124","11","1","win","go","1","0"
"pit-trial","188","1197453","0.0-129.0","battery-v0.2","","""event"",""trial"",""time""
""fullscreenenter"",""1"",""3013""
","
","
","""event"",""trial"",""time""
""fullscreenenter"",""1"",""3013""
","
","","","908.3999999761581","","","24","1332","1397","j","elianto","#f73b6a7A"," "," ","1","0","[1759]","1","2","","","1332","125","10","3","lose","go","0","0"
"pit-trial","189","1200910","0.0-130.0","battery-v0.2","","""event"",""trial"",""time""
""fullscreenenter"",""1"",""3013""
","
","
","""event"",""trial"",""time""
""fullscreenenter"",""1"",""3013""
","
","","","604.5","","","24","1332","1397","d","elianto","#3366ff99"," "," ","1","0","[1455.2000000476837]","1","2","","","1332","126","9","1","win","go","1","0"
"pit-trial","190","1204377","0.0-131.0","battery-v0.2","","""event"",""trial"",""time""
""fullscreenenter"",""1"",""3013""
","
","
","""event"",""trial"",""time""
""fullscreenenter"",""1"",""3013""
","
","","","614.6999999284744","","","24","1332","1397","v","elianto","#3366ff99"," "," ","1","+10","[1465]","1","2","","","1332","127","11","1","win","go","0","0"
"pit-trial","191","1209229","0.0-132.0","battery-v0.2","","""event"",""trial"",""time""
""fullscreenenter"",""1"",""3013""
","
","
","""event"",""trial"",""time""
""fullscreenenter"",""1"",""3013""
","
","","","-1","","","24","1332","1397","k","elianto","#f73b6a7A","-1","-1","1","-10","[]","0","2","","","1332","128","8","4","lose","no-go","1","0"
"pit-trial","192","1212767","0.0-133.0","battery-v0.2","","""event"",""trial"",""time""
""fullscreenenter"",""1"",""3013""
","
","
","""event"",""trial"",""time""
""fullscreenenter"",""1"",""3013""
","
","","","685.9000000953674","","","24","1332","1397","d","elianto","#3366ff99"," "," ","1","+10","[1536.7000000476837]","1","2","","","1332","129","9","1","win","go","0","0"
"pit-trial","193","1216326","0.0-134.0","battery-v0.2","","""event"",""trial"",""time""
""fullscreenenter"",""1"",""3013""
","
","
","""event"",""trial"",""time""
""fullscreenenter"",""1"",""3013""
","
","","","706.7999999523163","","","24","1332","1397","v","elianto","#3366ff99"," "," ","1","+10","[1557]","1","2","","","1332","130","11","1","win","go","0","0"
"pit-trial","194","1221179","0.0-135.0","battery-v0.2","","""event"",""trial"",""time""
""fullscreenenter"",""1"",""3013""
","
","
","""event"",""trial"",""time""
""fullscreenenter"",""1"",""3013""
","
","","","-1","","","24","1332","1397","k","elianto","#f73b6a7A","-1","-1","1","0","[]","0","2","","","1332","131","8","4","lose","no-go","0","0"
"pit-trial","195","1224739","0.0-136.0","battery-v0.2","","""event"",""trial"",""time""
""fullscreenenter"",""1"",""3013""
","
","
","""event"",""trial"",""time""
""fullscreenenter"",""1"",""3013""
","
","","","708.2000000476837","","","24","1332","1397","j","elianto","#f73b6a7A"," "," ","1","0","[1558.8000000715256]","1","2","","","1332","132","10","3","lose","go","0","0"
"pit-trial","196","1228283","0.0-137.0","battery-v0.2","","""event"",""trial"",""time""
""fullscreenenter"",""1"",""3013""
","
","
","""event"",""trial"",""time""
""fullscreenenter"",""1"",""3013""
","
","","","691.2999999523163","","","24","1332","1397","j","elianto","#f73b6a7A"," "," ","1","0","[1541.5]","1","2","","","1332","133","10","3","lose","go","0","0"
"pit-trial","197","1233136","0.0-138.0","battery-v0.2","","""event"",""trial"",""time""
""fullscreenenter"",""1"",""3013""
","
","
","""event"",""trial"",""time""
""fullscreenenter"",""1"",""3013""
","
","","","-1","","","24","1332","1397","k","elianto","#f73b6a7A","-1","-1","1","0","[]","0","2","","","1332","134","8","4","lose","no-go","0","0"
"pit-trial","198","1236637","0.0-139.0","battery-v0.2","","""event"",""trial"",""time""
""fullscreenenter"",""1"",""3013""
","
","
","""event"",""trial"",""time""
""fullscreenenter"",""1"",""3013""
","
","","","648.7000000476837","","","24","1332","1397","v","elianto","#3366ff99"," "," ","1","+10","[1498.8000000715256]","1","2","","","1332","135","11","1","win","go","0","0"
"pit-trial","199","1240131","0.0-140.0","battery-v0.2","","""event"",""trial"",""time""
""fullscreenenter"",""1"",""3013""
","
","
","""event"",""trial"",""time""
""fullscreenenter"",""1"",""3013""
","
","","","640.6999999284744","","","24","1332","1397","d","elianto","#3366ff99"," "," ","1","+10","[1491.6999999284744]","1","2","","","1332","136","9","1","win","go","0","0"
"pit-trial","200","1243649","0.0-141.0","battery-v0.2","","""event"",""trial"",""time""
""fullscreenenter"",""1"",""3013""
","
","
","""event"",""trial"",""time""
""fullscreenenter"",""1"",""3013""
","
","","","665.3000000715256","","","24","1332","1397","v","elianto","#3366ff99"," "," ","1","+10","[1515.3999999761581]","1","2","","","1332","137","11","1","win","go","0","0"
"pit-trial","201","1248503","0.0-142.0","battery-v0.2","","""event"",""trial"",""time""
""fullscreenenter"",""1"",""3013""
","
","
","""event"",""trial"",""time""
""fullscreenenter"",""1"",""3013""
","
","","","-1","","","24","1332","1397","k","elianto","#f73b6a7A","-1","-1","1","0","[]","0","2","","","1332","138","8","4","lose","no-go","0","0"
"pit-trial","202","1251927","0.0-143.0","battery-v0.2","","""event"",""trial"",""time""
""fullscreenenter"",""1"",""3013""
","
","
","""event"",""trial"",""time""
""fullscreenenter"",""1"",""3013""
","
","","","569.1000000238419","","","24","1332","1397","d","elianto","#3366ff99"," "," ","1","+10","[1421]","1","2","","","1332","139","9","1","win","go","0","0"
"pit-trial","203","1255360","0.0-144.0","battery-v0.2","","""event"",""trial"",""time""
""fullscreenenter"",""1"",""3013""
","
","
","""event"",""trial"",""time""
""fullscreenenter"",""1"",""3013""
","
","","","580.3999999761581","","","24","1332","1397","j","elianto","#f73b6a7A"," "," ","1","-10","[1431.2999999523163]","1","2","","","1332","140","10","3","lose","go","1","0"
"pit-instructions","204","1304331","0.0-145.0","battery-v0.2","","""event"",""trial"",""time""
""fullscreenenter"",""1"",""3013""
","
","
","""event"",""trial"",""time""
""fullscreenenter"",""1"",""3013""
","
","","[{""page_index"":0,""viewing_time"":16515},{""page_index"":1,""viewing_time"":32454.899999976158}]","48970.200000047684","","","","","","","","","","","","","","","","","","","","","","","","",""
"pit-trial","205","1309194","0.0-146.0","battery-v0.2","","""event"",""trial"",""time""
""fullscreenenter"",""1"",""3013""
","
","
","""event"",""trial"",""time""
""fullscreenenter"",""1"",""3013""
","
","","","-1","","","24","1332","1397","q","elianto","#3366ff99","-1","-1","1","+10","[]","0","3","","","1332","141","0","2","win","no-go","0","0"
"pit-trial","206","1314047","0.0-147.0","battery-v0.2","","""event"",""trial"",""time""
""fullscreenenter"",""1"",""3013""
","
","
","""event"",""trial"",""time""
""fullscreenenter"",""1"",""3013""
","
","","","-1","","","24","1332","1397","x","elianto","#3366ff99"," ","-1","0","+10","[]","0","3","","","1332","142","3","1","win","go","1","0"
"pit-trial","207","1318899","0.0-148.0","battery-v0.2","","""event"",""trial"",""time""
""fullscreenenter"",""1"",""3013""
","
","
","""event"",""trial"",""time""
""fullscreenenter"",""1"",""3013""
","
","","","-1","","","24","1332","1397","n","elianto","#f73b6a7A"," ","-1","0","-10","[]","0","3","","","1332","143","1","3","lose","go","0","0"
"pit-trial","208","1323751","0.0-149.0","battery-v0.2","","""event"",""trial"",""time""
""fullscreenenter"",""1"",""3013""
","
","
","""event"",""trial"",""time""
""fullscreenenter"",""1"",""3013""
","
","","","-1","","","24","1332","1397","f","elianto","#f73b6a7A","-1","-1","1","-10","[]","0","3","","","1332","144","2","4","lose","no-go","1","0"
"pit-trial","209","1327540","0.0-150.0","battery-v0.2","","""event"",""trial"",""time""
""fullscreenenter"",""1"",""3013""
","
","
","""event"",""trial"",""time""
""fullscreenenter"",""1"",""3013""
","
","","","936.5","","","24","1332","1397","f","elianto","#f73b6a7A","-1"," ","0","-10","[1786.9000000953674]","1","3","","","1332","145","2","4","lose","no-go","0","0"
"pit-trial","210","1332392","0.0-151.0","battery-v0.2","","""event"",""trial"",""time""
""fullscreenenter"",""1"",""3013""
","
","
","""event"",""trial"",""time""
""fullscreenenter"",""1"",""3013""
","
","","","-1","","","24","1332","1397","x","elianto","#3366ff99"," ","-1","0","0","[]","0","3","","","1332","146","3","1","win","go","0","0"
"pit-trial","211","1337245","0.0-152.0","battery-v0.2","","""event"",""trial"",""time""
""fullscreenenter"",""1"",""3013""
","
","
","""event"",""trial"",""time""
""fullscreenenter"",""1"",""3013""
","
","","","-1","","","24","1332","1397","q","elianto","#3366ff99","-1","-1","1","+10","[]","0","3","","","1332","147","0","2","win","no-go","0","0"
"pit-trial","212","1340998","0.0-153.0","battery-v0.2","","""event"",""trial"",""time""
""fullscreenenter"",""1"",""3013""
","
","
","""event"",""trial"",""time""
""fullscreenenter"",""1"",""3013""
","
","","","901.3999999761581","","","24","1332","1397","n","elianto","#f73b6a7A"," "," ","1","0","[1751.8999999761581]","1","3","","","1332","148","1","3","lose","go","0","0"
"pit-trial","213","1345057","0.0-154.0","battery-v0.2","","""event"",""trial"",""time""
""fullscreenenter"",""1"",""3013""
","
","
","""event"",""trial"",""time""
""fullscreenenter"",""1"",""3013""
","
","","","1206.4000000953674","","","24","1332","1397","x","elianto","#3366ff99"," "," ","1","+10","[2056.899999976158]","1","3","","","1332","149","3","1","win","go","0","0"
"pit-trial","214","1348659","0.0-155.0","battery-v0.2","","""event"",""trial"",""time""
""fullscreenenter"",""1"",""3013""
","
","
","""event"",""trial"",""time""
""fullscreenenter"",""1"",""3013""
","
","","","749.8999999761581","","","24","1332","1397","f","elianto","#f73b6a7A","-1"," ","0","-10","[1600.2000000476837]","1","3","","","1332","150","2","4","lose","no-go","0","0"
"pit-trial","215","1352261","0.0-156.0","battery-v0.2","","""event"",""trial"",""time""
""fullscreenenter"",""1"",""3013""
","
","
","""event"",""trial"",""time""
""fullscreenenter"",""1"",""3013""
","
","","","748.7999999523163","","","24","1332","1397","n","elianto","#f73b6a7A"," "," ","1","0","[1600.3999999761581]","1","3","","","1332","151","1","3","lose","go","0","0"
"pit-trial","216","1357114","0.0-157.0","battery-v0.2","","""event"",""trial"",""time""
""fullscreenenter"",""1"",""3013""
","
","
","""event"",""trial"",""time""
""fullscreenenter"",""1"",""3013""
","
","","","-1","","","24","1332","1397","q","elianto","#3366ff99","-1","-1","1","+10","[]","0","3","","","1332","152","0","2","win","no-go","0","0"
"pit-trial","217","1361967","0.0-158.0","battery-v0.2","","""event"",""trial"",""time""
""fullscreenenter"",""1"",""3013""
","
","
","""event"",""trial"",""time""
""fullscreenenter"",""1"",""3013""
","
","","","-1","","","24","1332","1397","f","elianto","#f73b6a7A","-1","-1","1","-10","[]","0","3","","","1332","153","2","4","lose","no-go","1","0"
"pit-trial","218","1365588","0.0-159.0","battery-v0.2","","""event"",""trial"",""time""
""fullscreenenter"",""1"",""3013""
","
","
","""event"",""trial"",""time""
""fullscreenenter"",""1"",""3013""
","
","","","768","","","24","1332","1397","n","elianto","#f73b6a7A"," "," ","1","0","[1619.7000000476837]","1","3","","","1332","154","1","3","lose","go","0","0"
"pit-trial","219","1370441","0.0-160.0","battery-v0.2","","""event"",""trial"",""time""
""fullscreenenter"",""1"",""3013""
","
","
","""event"",""trial"",""time""
""fullscreenenter"",""1"",""3013""
","
","","","-1","","","24","1332","1397","x","elianto","#3366ff99"," ","-1","0","+10","[]","0","3","","","1332","155","3","1","win","go","1","0"
"pit-trial","220","1375294","0.0-161.0","battery-v0.2","","""event"",""trial"",""time""
""fullscreenenter"",""1"",""3013""
","
","
","""event"",""trial"",""time""
""fullscreenenter"",""1"",""3013""
","
","","","-1","","","24","1332","1397","q","elianto","#3366ff99","-1","-1","1","+10","[]","0","3","","","1332","156","0","2","win","no-go","0","0"
"pit-trial","221","1380148","0.0-162.0","battery-v0.2","","""event"",""trial"",""time""
""fullscreenenter"",""1"",""3013""
","
","
","""event"",""trial"",""time""
""fullscreenenter"",""1"",""3013""
","
","","","-1","","","24","1332","1397","f","elianto","#f73b6a7A","-1","-1","1","0","[]","0","3","","","1332","157","2","4","lose","no-go","0","0"
"pit-trial","222","1384077","0.0-163.0","battery-v0.2","","""event"",""trial"",""time""
""fullscreenenter"",""1"",""3013""
","
","
","""event"",""trial"",""time""
""fullscreenenter"",""1"",""3013""
","
","","","1076.1999999284744","","","24","1332","1397","n","elianto","#f73b6a7A"," "," ","1","-10","[1927.2000000476837]","1","3","","","1332","158","1","3","lose","go","1","0"
"pit-trial","223","1388930","0.0-164.0","battery-v0.2","","""event"",""trial"",""time""
""fullscreenenter"",""1"",""3013""
","
","
","""event"",""trial"",""time""
""fullscreenenter"",""1"",""3013""
","
","","","-1","","","24","1332","1397","q","elianto","#3366ff99","-1","-1","1","+10","[]","0","3","","","1332","159","0","2","win","no-go","0","0"
"pit-trial","224","1393783","0.0-165.0","battery-v0.2","","""event"",""trial"",""time""
""fullscreenenter"",""1"",""3013""
","
","
","""event"",""trial"",""time""
""fullscreenenter"",""1"",""3013""
","
","","","-1","","","24","1332","1397","x","elianto","#3366ff99"," ","-1","0","0","[]","0","3","","","1332","160","3","1","win","go","0","0"
"pit-trial","225","1398636","0.0-166.0","battery-v0.2","","""event"",""trial"",""time""
""fullscreenenter"",""1"",""3013""
","
","
","""event"",""trial"",""time""
""fullscreenenter"",""1"",""3013""
","
","","","-1","","","24","1332","1397","q","elianto","#3366ff99","-1","-1","1","+10","[]","0","3","","","1332","161","0","2","win","no-go","0","0"
"pit-trial","226","1402308","0.0-167.0","battery-v0.2","","""event"",""trial"",""time""
""fullscreenenter"",""1"",""3013""
","
","
","""event"",""trial"",""time""
""fullscreenenter"",""1"",""3013""
","
","","","818.8999999761581","","","24","1332","1397","n","elianto","#f73b6a7A"," "," ","1","0","[1669.7999999523163]","1","3","","","1332","162","1","3","lose","go","0","0"
"pit-trial","227","1406166","0.0-168.0","battery-v0.2","","""event"",""trial"",""time""
""fullscreenenter"",""1"",""3013""
","
","
","""event"",""trial"",""time""
""fullscreenenter"",""1"",""3013""
","
","","","1005.7000000476837","","","24","1332","1397","x","elianto","#3366ff99"," "," ","1","0","[1856.2999999523163]","1","3","","","1332","163","3","1","win","go","1","0"
"pit-trial","228","1411018","0.0-169.0","battery-v0.2","","""event"",""trial"",""time""
""fullscreenenter"",""1"",""3013""
","
","
","""event"",""trial"",""time""
""fullscreenenter"",""1"",""3013""
","
","","","-1","","","24","1332","1397","f","elianto","#f73b6a7A","-1","-1","1","0","[]","0","3","","","1332","164","2","4","lose","no-go","0","0"
"pit-trial","229","1415870","0.0-170.0","battery-v0.2","","""event"",""trial"",""time""
""fullscreenenter"",""1"",""3013""
","
","
","""event"",""trial"",""time""
""fullscreenenter"",""1"",""3013""
","
","","","-1","","","24","1332","1397","f","elianto","#f73b6a7A","-1","-1","1","0","[]","0","3","","","1332","165","2","4","lose","no-go","0","0"
"pit-trial","230","1420723","0.0-171.0","battery-v0.2","","""event"",""trial"",""time""
""fullscreenenter"",""1"",""3013""
","
","
","""event"",""trial"",""time""
""fullscreenenter"",""1"",""3013""
","
","","","-1","","","24","1332","1397","x","elianto","#3366ff99"," ","-1","0","0","[2941.1999999284744]","1","3","","","1332","166","3","1","win","go","0","0"
"pit-trial","231","1424518","0.0-172.0","battery-v0.2","","""event"",""trial"",""time""
""fullscreenenter"",""1"",""3013""
","
","
","""event"",""trial"",""time""
""fullscreenenter"",""1"",""3013""
","
","","","941.2000000476837","","","24","1332","1397","n","elianto","#f73b6a7A"," "," ","1","0","[1792]","1","3","","","1332","167","1","3","lose","go","0","0"
"pit-trial","232","1429370","0.0-173.0","battery-v0.2","","""event"",""trial"",""time""
""fullscreenenter"",""1"",""3013""
","
","
","""event"",""trial"",""time""
""fullscreenenter"",""1"",""3013""
","
","","","-1","","","24","1332","1397","q","elianto","#3366ff99","-1","-1","1","+10","[]","0","3","","","1332","168","0","2","win","no-go","0","0"
"pit-trial","233","1434223","0.0-174.0","battery-v0.2","","""event"",""trial"",""time""
""fullscreenenter"",""1"",""3013""
","
","
","""event"",""trial"",""time""
""fullscreenenter"",""1"",""3013""
","
","","","-1","","","24","1332","1397","q","elianto","#3366ff99","-1","-1","1","+10","[]","0","3","","","1332","169","0","2","win","no-go","0","0"
"pit-trial","234","1439075","0.0-175.0","battery-v0.2","","""event"",""trial"",""time""
""fullscreenenter"",""1"",""3013""
","
","
","""event"",""trial"",""time""
""fullscreenenter"",""1"",""3013""
","
","","","-1","","","24","1332","1397","n","elianto","#f73b6a7A"," ","-1","0","-10","[]","0","3","","","1332","170","1","3","lose","go","0","0"
"pit-trial","235","1442793","0.0-176.0","battery-v0.2","","""event"",""trial"",""time""
""fullscreenenter"",""1"",""3013""
","
","
","""event"",""trial"",""time""
""fullscreenenter"",""1"",""3013""
","
","","","863.7999999523163","","","24","1332","1397","x","elianto","#3366ff99"," "," ","1","0","[1714]","1","3","","","1332","171","3","1","win","go","1","0"
"pit-trial","236","1447646","0.0-177.0","battery-v0.2","","""event"",""trial"",""time""
""fullscreenenter"",""1"",""3013""
","
","
","""event"",""trial"",""time""
""fullscreenenter"",""1"",""3013""
","
","","","-1","","","24","1332","1397","f","elianto","#f73b6a7A","-1","-1","1","-10","[]","0","3","","","1332","172","2","4","lose","no-go","1","0"
"pit-trial","237","1452500","0.0-178.0","battery-v0.2","","""event"",""trial"",""time""
""fullscreenenter"",""1"",""3013""
","
","
","""event"",""trial"",""time""
""fullscreenenter"",""1"",""3013""
","
","","","-1","","","24","1332","1397","b","elianto","#f73b6a7A","-1","-1","1","0","[]","0","3","","","1332","173","5","4","lose","no-go","0","0"
"pit-trial","238","1457352","0.0-179.0","battery-v0.2","","""event"",""trial"",""time""
""fullscreenenter"",""1"",""3013""
","
","
","""event"",""trial"",""time""
""fullscreenenter"",""1"",""3013""
","
","","","-1","","","24","1332","1397","t","elianto","#f73b6a7A"," ","-1","0","-10","[]","0","3","","","1332","174","4","3","lose","go","0","0"
"pit-trial","239","1461082","0.0-180.0","battery-v0.2","","""event"",""trial"",""time""
""fullscreenenter"",""1"",""3013""
","
","
","""event"",""trial"",""time""
""fullscreenenter"",""1"",""3013""
","
","","","877.1999999284744","","","24","1332","1397","n","elianto","#f73b6a7A"," "," ","1","-10","[1727.1999999284744]","1","3","","","1332","175","1","3","lose","go","1","0"
"pit-trial","240","1465934","0.0-181.0","battery-v0.2","","""event"",""trial"",""time""
""fullscreenenter"",""1"",""3013""
","
","
","""event"",""trial"",""time""
""fullscreenenter"",""1"",""3013""
","
","","","-1","","","24","1332","1397","f","elianto","#f73b6a7A","-1","-1","1","-10","[]","0","3","","","1332","176","2","4","lose","no-go","1","0"
"pit-trial","241","1470786","0.0-182.0","battery-v0.2","","""event"",""trial"",""time""
""fullscreenenter"",""1"",""3013""
","
","
","""event"",""trial"",""time""
""fullscreenenter"",""1"",""3013""
","
","","","-1","","","24","1332","1397","b","elianto","#f73b6a7A","-1","-1","1","-10","[]","0","3","","","1332","177","5","4","lose","no-go","1","0"
"pit-trial","242","1474546","0.0-183.0","battery-v0.2","","""event"",""trial"",""time""
""fullscreenenter"",""1"",""3013""
","
","
","""event"",""trial"",""time""
""fullscreenenter"",""1"",""3013""
","
","","","906.5","","","24","1332","1397","n","elianto","#f73b6a7A"," "," ","1","0","[1757.2999999523163]","1","3","","","1332","178","1","3","lose","go","0","0"
"pit-trial","243","1478176","0.0-184.0","battery-v0.2","","""event"",""trial"",""time""
""fullscreenenter"",""1"",""3013""
","
","
","""event"",""trial"",""time""
""fullscreenenter"",""1"",""3013""
","
","","","776.6000000238419","","","24","1332","1397","f","elianto","#f73b6a7A","-1"," ","0","-10","[1627.8999999761581]","1","3","","","1332","179","2","4","lose","no-go","0","0"
"pit-trial","244","1481790","0.0-185.0","battery-v0.2","","""event"",""trial"",""time""
""fullscreenenter"",""1"",""3013""
","
","
","""event"",""trial"",""time""
""fullscreenenter"",""1"",""3013""
","
","","","760.7000000476837","","","24","1332","1397","t","elianto","#f73b6a7A"," "," ","1","0","[1612.1000000238419]","1","3","","","1332","180","4","3","lose","go","0","0"
"pit-trial","245","1485337","0.0-186.0","battery-v0.2","","""event"",""trial"",""time""
""fullscreenenter"",""1"",""3013""
","
","
","""event"",""trial"",""time""
""fullscreenenter"",""1"",""3013""
","
","","","695.3999999761581","","","24","1332","1397","t","elianto","#f73b6a7A"," "," ","1","-10","[1545.5]","1","3","","","1332","181","4","3","lose","go","1","0"
"pit-trial","246","1488834","0.0-187.0","battery-v0.2","","""event"",""trial"",""time""
""fullscreenenter"",""1"",""3013""
","
","
","""event"",""trial"",""time""
""fullscreenenter"",""1"",""3013""
","
","","","645.2000000476837","","","24","1332","1397","b","elianto","#f73b6a7A","-1"," ","0","-10","[1495.2000000476837]","1","3","","","1332","182","5","4","lose","no-go","0","0"
"pit-trial","247","1493687","0.0-188.0","battery-v0.2","","""event"",""trial"",""time""
""fullscreenenter"",""1"",""3013""
","
","
","""event"",""trial"",""time""
""fullscreenenter"",""1"",""3013""
","
","","","-1","","","24","1332","1397","c","elianto","#3366ff99","-1","-1","1","+10","[]","0","3","","","1332","183","6","2","win","no-go","0","0"
"pit-trial","248","1498540","0.0-189.0","battery-v0.2","","""event"",""trial"",""time""
""fullscreenenter"",""1"",""3013""
","
","
","""event"",""trial"",""time""
""fullscreenenter"",""1"",""3013""
","
","","","-1","","","24","1332","1397","f","elianto","#f73b6a7A","-1","-1","1","0","[]","0","3","","","1332","184","2","4","lose","no-go","0","0"
"pit-trial","249","1503393","0.0-190.0","battery-v0.2","","""event"",""trial"",""time""
""fullscreenenter"",""1"",""3013""
","
","
","""event"",""trial"",""time""
""fullscreenenter"",""1"",""3013""
","
","","","-1","","","24","1332","1397","f","elianto","#f73b6a7A","-1","-1","1","0","[]","0","3","","","1332","185","2","4","lose","no-go","0","0"
"pit-trial","250","1507292","0.0-191.0","battery-v0.2","","""event"",""trial"",""time""
""fullscreenenter"",""1"",""3013""
","
","
","""event"",""trial"",""time""
""fullscreenenter"",""1"",""3013""
","
","","","1045.5","","","24","1332","1397","t","elianto","#f73b6a7A"," "," ","1","0","[1897.6000000238419]","1","3","","","1332","186","4","3","lose","go","0","0"
"pit-trial","251","1511725","0.0-192.0","battery-v0.2","","""event"",""trial"",""time""
""fullscreenenter"",""1"",""3013""
","
","
","""event"",""trial"",""time""
""fullscreenenter"",""1"",""3013""
","
","","","1579.7000000476837","","","24","1332","1397","c","elianto","#3366ff99","-1"," ","0","0","[2430.7000000476837]","1","3","","","1332","187","6","2","win","no-go","0","0"
"pit-trial","252","1516577","0.0-193.0","battery-v0.2","","""event"",""trial"",""time""
""fullscreenenter"",""1"",""3013""
","
","
","""event"",""trial"",""time""
""fullscreenenter"",""1"",""3013""
","
","","","-1","","","24","1332","1397","b","elianto","#f73b6a7A","-1","-1","1","-10","[]","0","3","","","1332","188","5","4","lose","no-go","1","0"
"pit-trial","253","1521429","0.0-194.0","battery-v0.2","","""event"",""trial"",""time""
""fullscreenenter"",""1"",""3013""
","
","
","""event"",""trial"",""time""
""fullscreenenter"",""1"",""3013""
","
","","","-1","","","24","1332","1397","c","elianto","#3366ff99","-1","-1","1","0","[]","0","3","","","1332","189","6","2","win","no-go","1","0"
"pit-trial","254","1525152","0.0-195.0","battery-v0.2","","""event"",""trial"",""time""
""fullscreenenter"",""1"",""3013""
","
","
","""event"",""trial"",""time""
""fullscreenenter"",""1"",""3013""
","
","","","869.7999999523163","","","24","1332","1397","b","elianto","#f73b6a7A","-1"," ","0","-10","[1721.1999999284744]","1","3","","","1332","190","5","4","lose","no-go","0","0"
"pit-trial","255","1530004","0.0-196.0","battery-v0.2","","""event"",""trial"",""time""
""fullscreenenter"",""1"",""3013""
","
","
","""event"",""trial"",""time""
""fullscreenenter"",""1"",""3013""
","
","","","-1","","","24","1332","1397","z","elianto","#3366ff99"," ","-1","0","0","[]","0","3","","","1332","191","7","1","win","go","0","0"
"pit-trial","256","1533760","0.0-197.0","battery-v0.2","","""event"",""trial"",""time""
""fullscreenenter"",""1"",""3013""
","
","
","""event"",""trial"",""time""
""fullscreenenter"",""1"",""3013""
","
","","","903.1999999284744","","","24","1332","1397","t","elianto","#f73b6a7A"," "," ","1","0","[1754.1000000238419]","1","3","","","1332","192","4","3","lose","go","0","0"
"pit-trial","257","1537774","0.0-198.0","battery-v0.2","","""event"",""trial"",""time""
""fullscreenenter"",""1"",""3013""
","
","
","""event"",""trial"",""time""
""fullscreenenter"",""1"",""3013""
","
","","","1162.5999999046326","","","24","1332","1397","z","elianto","#3366ff99"," "," ","1","0","[2012.7999999523163]","1","3","","","1332","193","7","1","win","go","1","0"
"pit-trial","258","1541476","0.0-199.0","battery-v0.2","","""event"",""trial"",""time""
""fullscreenenter"",""1"",""3013""
","
","
","""event"",""trial"",""time""
""fullscreenenter"",""1"",""3013""
","
","","","850.2999999523163","","","24","1332","1397","c","elianto","#3366ff99","-1"," ","0","0","[1701.0999999046326]","1","3","","","1332","194","6","2","win","no-go","0","0"
"pit-trial","259","1545137","0.0-200.0","battery-v0.2","","""event"",""trial"",""time""
""fullscreenenter"",""1"",""3013""
","
","
","""event"",""trial"",""time""
""fullscreenenter"",""1"",""3013""
","
","","","807.6999999284744","","","24","1332","1397","t","elianto","#f73b6a7A"," "," ","1","0","[1658.5]","1","3","","","1332","195","4","3","lose","go","0","0"
"pit-trial","260","1549003","0.0-201.0","battery-v0.2","","""event"",""trial"",""time""
""fullscreenenter"",""1"",""3013""
","
","
","""event"",""trial"",""time""
""fullscreenenter"",""1"",""3013""
","
","","","1013.7999999523163","","","24","1332","1397","b","elianto","#f73b6a7A","-1"," ","0","-10","[1864.5]","1","3","","","1332","196","5","4","lose","no-go","0","0"
"pit-trial","261","1552503","0.0-202.0","battery-v0.2","","""event"",""trial"",""time""
""fullscreenenter"",""1"",""3013""
","
","
","""event"",""trial"",""time""
""fullscreenenter"",""1"",""3013""
","
","","","646.5","","","24","1332","1397","t","elianto","#f73b6a7A"," "," ","1","-10","[1497.6999999284744]","1","3","","","1332","197","4","3","lose","go","1","0"
"pit-trial","262","1557355","0.0-203.0","battery-v0.2","","""event"",""trial"",""time""
""fullscreenenter"",""1"",""3013""
","
","
","""event"",""trial"",""time""
""fullscreenenter"",""1"",""3013""
","
","","","-1","","","24","1332","1397","z","elianto","#3366ff99"," ","-1","0","0","[]","0","3","","","1332","198","7","1","win","go","0","0"
"pit-trial","263","1561000","0.0-204.0","battery-v0.2","","""event"",""trial"",""time""
""fullscreenenter"",""1"",""3013""
","
","
","""event"",""trial"",""time""
""fullscreenenter"",""1"",""3013""
","
