"trial_type","trial_index","time_elapsed","internal_node_id","task_version","subject_id","interactions","blur_events","focus_events","fullscreenenter_events","fullscreenexit_events","success","view_history","rt","responses","num_errors","age","subject","participantId","rune","rune_set","hex","correct","choice","accuracy","outcome","keys","total_keys","block","practice","value","sub","trial","stimulus","robot","valence","action","sham","browser_interactions"
"pavlovia","0","11","0.0-0.0","battery-v0.2","","""event"",""trial"",""time""
""fullscreenenter"",""1"",""1794""
","
","
","""event"",""trial"",""time""
""fullscreenenter"",""1"",""1794""
","
","","","","","","","","","","","","","","","","","","","","","","","","","","","",""
"fullscreen","1","2787","0.0-1.0","battery-v0.2","","""event"",""trial"",""time""
""fullscreenenter"",""1"",""1794""
","
","
","""event"",""trial"",""time""
""fullscreenenter"",""1"",""1794""
","
","true","","","","","","","","","","","","","","","","","","","","","","","","","","",""
"pit-instructions","2","6371","0.0-2.0-0.0","battery-v0.2","","""event"",""trial"",""time""
""fullscreenenter"",""1"",""1794""
","
","
","""event"",""trial"",""time""
""fullscreenenter"",""1"",""1794""
","
","","[{""page_index"":0,""viewing_time"":3576.7999999523163}]","3577.7999999523163","","","","","","","","","","","","","","","","","","","","","","","","",""
"pit-comprehension","3","9501","0.0-2.0-1.0-0.0","battery-v0.2","","""event"",""trial"",""time""
""fullscreenenter"",""1"",""1794""
","
","
","""event"",""trial"",""time""
""fullscreenenter"",""1"",""1794""
","
","","","3122.7000000476837","[""shark""]","0","17","1122","247","","","","","","","","","","","","","","","","","","","",""
"pit-instructions","4","12835","0.0-2.0-1.0-1.0","battery-v0.2","","""event"",""trial"",""time""
""fullscreenenter"",""1"",""1794""
","
","
","""event"",""trial"",""time""
""fullscreenenter"",""1"",""1794""
","
","","[{""page_index"":0,""viewing_time"":3305.100000143051}]","3306.100000143051","","","","","","","","","","","","","","","","","","","","","","","","",""
"pit-comprehension","5","15971","0.0-2.0-2.0-0.0","battery-v0.2","","""event"",""trial"",""time""
""fullscreenenter"",""1"",""1794""
","
","
","""event"",""trial"",""time""
""fullscreenenter"",""1"",""1794""
","
","","","3127.5999999046326","[""tiger""]","0","17","1122","247","","","","","","","","","","","","","","","","","","","",""
"pit-instructions","6","16801","0.0-2.0-2.0-1.0","battery-v0.2","","""event"",""trial"",""time""
""fullscreenenter"",""1"",""1794""
","
","
","""event"",""trial"",""time""
""fullscreenenter"",""1"",""1794""
","
","","[{""page_index"":0,""viewing_time"":824.2000000476837}]","824.9000000953674","","","","","","","","","","","","","","","","","","","","","","","","",""
"pit-instructions","7","140041","0.0-2.0-3.0","battery-v0.2","","""event"",""trial"",""time""
""fullscreenenter"",""1"",""1794""
","
","
","""event"",""trial"",""time""
""fullscreenenter"",""1"",""1794""
","
","","[{""page_index"":0,""viewing_time"":33649.5},{""page_index"":1,""viewing_time"":5936},{""page_index"":2,""viewing_time"":6367.100000143051},{""page_index"":3,""viewing_time"":5360.5},{""page_index"":4,""viewing_time"":5736.699999809265},{""page_index"":5,""viewing_time"":5394.600000143051},{""page_index"":6,""viewing_time"":6349.099999904633},{""page_index"":7,""viewing_time"":6277.5},{""page_index"":8,""viewing_time"":6165.100000143051},{""page_index"":9,""viewing_time"":9568.899999856949},{""page_index"":10,""viewing_time"":7304.5},{""page_index"":11,""viewing_time"":8907.5},{""page_index"":12,""viewing_time"":6844.299999952316},{""page_index"":13,""viewing_time"":9373.200000047684}]","123235.40000009537","","","","","","","","","","","","","","","","","","","","","","","","",""
"pit-trial","8","143453","0.0-2.0-4.0-0.0","battery-v0.2","","""event"",""trial"",""time""
""fullscreenenter"",""1"",""1794""
","
","
","""event"",""trial"",""time""
""fullscreenenter"",""1"",""1794""
","
","","","548.4000000953674","","","17","1122","247","&#9784;","elianto","#FFFFF080"," "," ","1","&#10004","[1400.2000000476837]","1","0","0","","","","","","","","",""
"pit-trial","9","146774","0.0-2.0-4.1-0.1","battery-v0.2","","""event"",""trial"",""time""
""fullscreenenter"",""1"",""1794""
","
","
","""event"",""trial"",""time""
""fullscreenenter"",""1"",""1794""
","
","","","457.7000000476837","","","17","1122","247","&#9784;","elianto","#FFFFF080"," "," ","1","&#10004","[1308.5]","1","0","0","","","","","","","","",""
"pit-trial","10","150029","0.0-2.0-4.2-0.2","battery-v0.2","","""event"",""trial"",""time""
""fullscreenenter"",""1"",""1794""
","
","
","""event"",""trial"",""time""
""fullscreenenter"",""1"",""1794""
","
","","","390.7000000476837","","","17","1122","247","&#9784;","elianto","#FFFFF080"," "," ","1","&#10004","[1242.2999999523163]","1","0","0","","","","","","","","",""
"pit-trial","11","153324","0.0-2.0-4.3-0.3","battery-v0.2","","""event"",""trial"",""time""
""fullscreenenter"",""1"",""1794""
","
","
","""event"",""trial"",""time""
""fullscreenenter"",""1"",""1794""
","
","","","430.10000014305115","","","17","1122","247","&#9784;","elianto","#FFFFF080"," "," ","1","&#10004","[1281.9000000953674]","1","0","0","","","","","","","","",""
"pit-trial","12","156563","0.0-2.0-4.4-0.4","battery-v0.2","","""event"",""trial"",""time""
""fullscreenenter"",""1"",""1794""
","
","
","""event"",""trial"",""time""
""fullscreenenter"",""1"",""1794""
","
","","","378","","","17","1122","247","&#9784;","elianto","#FFFFF080"," "," ","1","&#10004","[1229]","1","0","0","","","","","","","","",""
"pit-instructions","13","176144","0.0-2.0-5.0","battery-v0.2","","""event"",""trial"",""time""
""fullscreenenter"",""1"",""1794""
","
","
","""event"",""trial"",""time""
""fullscreenenter"",""1"",""1794""
","
","","[{""page_index"":0,""viewing_time"":4836.600000143051},{""page_index"":1,""viewing_time"":5298.700000047684},{""page_index"":2,""viewing_time"":4330.5},{""page_index"":3,""viewing_time"":5106.099999904633}]","19573.10000014305","","","","","","","","","","","","","","","","","","","","","","","","",""
"pit-trial","14","181003","0.0-2.0-6.0-0.0","battery-v0.2","","""event"",""trial"",""time""
""fullscreenenter"",""1"",""1794""
","
","
","""event"",""trial"",""time""
""fullscreenenter"",""1"",""1794""
","
","","","-1","","","17","1122","247","&#9854;","elianto","#FFFFF080","-1","-1","1","&#10004","[]","0","0","1","","","","","","","","",""
"pit-trial","15","185866","0.0-2.0-6.1-0.1","battery-v0.2","","""event"",""trial"",""time""
""fullscreenenter"",""1"",""1794""
","
","
","""event"",""trial"",""time""
""fullscreenenter"",""1"",""1794""
","
","","","-1","","","17","1122","247","&#9854;","elianto","#FFFFF080","-1","-1","1","&#10004","[]","0","0","1","","","","","","","","",""
"pit-trial","16","190728","0.0-2.0-6.2-0.2","battery-v0.2","","""event"",""trial"",""time""
""fullscreenenter"",""1"",""1794""
","
","
","""event"",""trial"",""time""
""fullscreenenter"",""1"",""1794""
","
","","","-1","","","17","1122","247","&#9854;","elianto","#FFFFF080","-1","-1","1","&#10004","[]","0","0","1","","","","","","","","",""
"pit-trial","17","195589","0.0-2.0-6.3-0.3","battery-v0.2","","""event"",""trial"",""time""
""fullscreenenter"",""1"",""1794""
","
","
","""event"",""trial"",""time""
""fullscreenenter"",""1"",""1794""
","
","","","-1","","","17","1122","247","&#9854;","elianto","#FFFFF080","-1","-1","1","&#10004","[]","0","0","1","","","","","","","","",""
"pit-trial","18","200449","0.0-2.0-6.4-0.4","battery-v0.2","","""event"",""trial"",""time""
""fullscreenenter"",""1"",""1794""
","
","
","""event"",""trial"",""time""
""fullscreenenter"",""1"",""1794""
","
","","","-1","","","17","1122","247","&#9854;","elianto","#FFFFF080","-1","-1","1","&#10004","[]","0","0","1","","","","","","","","",""
"pit-instructions","19","349469","0.0-2.0-7.0","battery-v0.2","","""event"",""trial"",""time""
""fullscreenenter"",""1"",""1794""
","
","
","""event"",""trial"",""time""
""fullscreenenter"",""1"",""1794""
","
","","[{""page_index"":0,""viewing_time"":8098.899999856949},{""page_index"":1,""viewing_time"":7360.900000095367},{""page_index"":2,""viewing_time"":8508.599999904633},{""page_index"":3,""viewing_time"":7441.400000095367},{""page_index"":4,""viewing_time"":5164.700000047684},{""page_index"":5,""viewing_time"":5077},{""page_index"":6,""viewing_time"":4511.299999952316},{""page_index"":7,""viewing_time"":21253.799999952316},{""page_index"":8,""viewing_time"":6311.200000047684},{""page_index"":9,""viewing_time"":13192.700000047684},{""page_index"":10,""viewing_time"":7026.799999952316},{""page_index"":11,""viewing_time"":9511.799999952316},{""page_index"":12,""viewing_time"":7709.100000143051},{""page_index"":13,""viewing_time"":6157.699999809265},{""page_index"":14,""viewing_time"":6080.400000095367},{""page_index"":15,""viewing_time"":6454.299999952316},{""page_index"":16,""viewing_time"":13108.200000047684},{""page_index"":17,""viewing_time"":6041.200000047684}]","149010.70000004768","","","","","","","","","","","","","","","","","","","","","","","","",""
"pit-trial","20","352967","0.0-2.0-8.0-0.0","battery-v0.2","","""event"",""trial"",""time""
""fullscreenenter"",""1"",""1794""
","
","
","""event"",""trial"",""time""
""fullscreenenter"",""1"",""1794""
","
","","","637.7999999523163","","","17","1122","247","&#9776;","elianto","#3366ff99"," "," ","1","+10","[1488.0999999046326]","1","0","1","","","","","","","","",""
"pit-trial","21","356118","0.0-2.0-8.0-1.0","battery-v0.2","","""event"",""trial"",""time""
""fullscreenenter"",""1"",""1794""
","
","
","""event"",""trial"",""time""
""fullscreenenter"",""1"",""1794""
","
","","","289","","","17","1122","247","&#9776;","elianto","#3366ff99"," "," ","1","+10","[1139.6000001430511]","1","0","1","","","","","","","","",""
"pit-trial","22","359201","0.0-2.0-8.0-2.0","battery-v0.2","","""event"",""trial"",""time""
""fullscreenenter"",""1"",""1794""
","
","
","""event"",""trial"",""time""
""fullscreenenter"",""1"",""1794""
","
","","","218.60000014305115","","","17","1122","247","&#9776;","elianto","#3366ff99"," "," ","1","+10","[1068.8999998569489]","1","0","1","","","","","","","","",""
"pit-trial","23","362267","0.0-2.0-8.0-3.0","battery-v0.2","","""event"",""trial"",""time""
""fullscreenenter"",""1"",""1794""
","
","
","""event"",""trial"",""time""
""fullscreenenter"",""1"",""1794""
","
","","","201.90000009536743","","","17","1122","247","&#9776;","elianto","#3366ff99"," "," ","1","0","[1052.9000000953674]","1","0","1","","","","","","","","",""
"pit-trial","24","365344","0.0-2.0-8.0-4.0","battery-v0.2","","""event"",""trial"",""time""
""fullscreenenter"",""1"",""1794""
","
","
","""event"",""trial"",""time""
""fullscreenenter"",""1"",""1794""
","
","","","213.60000014305115","","","17","1122","247","&#9776;","elianto","#3366ff99"," "," ","1","+10","[1064.0999999046326]","1","0","1","","","","","","","","",""
"call-function","25","365353","0.0-2.0-9.0","battery-v0.2","","""event"",""trial"",""time""
""fullscreenenter"",""1"",""1794""
","
","
","""event"",""trial"",""time""
""fullscreenenter"",""1"",""1794""
","
","","","","","","","","","","","","","","","","","","","","","","","","","","","",""
"pit-instructions","26","402261","0.0-2.0-10.0","battery-v0.2","","""event"",""trial"",""time""
""fullscreenenter"",""1"",""1794""
","
","
","""event"",""trial"",""time""
""fullscreenenter"",""1"",""1794""
","
","","[{""page_index"":0,""viewing_time"":5164.700000047684},{""page_index"":1,""viewing_time"":6526},{""page_index"":2,""viewing_time"":9122.5},{""page_index"":3,""viewing_time"":9007.799999952316},{""page_index"":4,""viewing_time"":7085.300000190735}]","36907.200000047684","","","","","","","","","","","","","","","","","","","","","","","","",""
"pit-trial","27","407121","0.0-2.0-11.0-0.0","battery-v0.2","","""event"",""trial"",""time""
""fullscreenenter"",""1"",""1794""
","
","
","""event"",""trial"",""time""
""fullscreenenter"",""1"",""1794""
","
","","","-1","","","17","1122","247","&#9761;","elianto","#3366ff99","-1","-1","1","+10","[53.10000014305115]","1","0","2","","","","","","","","",""
"pit-trial","28","411987","0.0-2.0-11.0-1.0","battery-v0.2","","""event"",""trial"",""time""
""fullscreenenter"",""1"",""1794""
","
","
","""event"",""trial"",""time""
""fullscreenenter"",""1"",""1794""
","
","","","-1","","","17","1122","247","&#9761;","elianto","#3366ff99","-1","-1","1","+10","[]","0","0","2","","","","","","","","",""
"pit-trial","29","416857","0.0-2.0-11.0-2.0","battery-v0.2","","""event"",""trial"",""time""
""fullscreenenter"",""1"",""1794""
","
","
","""event"",""trial"",""time""
""fullscreenenter"",""1"",""1794""
","
","","","-1","","","17","1122","247","&#9761;","elianto","#3366ff99","-1","-1","1","+10","[]","0","0","2","","","","","","","","",""
"pit-trial","30","421722","0.0-2.0-11.0-3.0","battery-v0.2","","""event"",""trial"",""time""
""fullscreenenter"",""1"",""1794""
","
","
","""event"",""trial"",""time""
""fullscreenenter"",""1"",""1794""
","
","","","-1","","","17","1122","247","&#9761;","elianto","#3366ff99","-1","-1","1","0","[]","0","0","2","","","","","","","","",""
"pit-trial","31","426586","0.0-2.0-11.0-4.0","battery-v0.2","","""event"",""trial"",""time""
""fullscreenenter"",""1"",""1794""
","
","
","""event"",""trial"",""time""
""fullscreenenter"",""1"",""1794""
","
","","","-1","","","17","1122","247","&#9761;","elianto","#3366ff99","-1","-1","1","+10","[]","0","0","2","","","","","","","","",""
"call-function","32","426594","0.0-2.0-12.0","battery-v0.2","","""event"",""trial"",""time""
""fullscreenenter"",""1"",""1794""
","
","
","""event"",""trial"",""time""
""fullscreenenter"",""1"",""1794""
","
","","","","","","","","","","","","","","","","","","","","","","","","","","","",""
"pit-instructions","33","465482","0.0-2.0-13.0","battery-v0.2","","""event"",""trial"",""time""
""fullscreenenter"",""1"",""1794""
","
","
","""event"",""trial"",""time""
""fullscreenenter"",""1"",""1794""
","
","","[{""page_index"":0,""viewing_time"":5813.200000047684},{""page_index"":1,""viewing_time"":14721.299999952316},{""page_index"":2,""viewing_time"":3421},{""page_index"":3,""viewing_time"":10121.799999952316},{""page_index"":4,""viewing_time"":4809.200000047684}]","38887.59999990463","","","","","","","","","","","","","","","","","","","","","","","","",""
"pit-trial","34","468843","0.0-2.0-14.0-0.0","battery-v0.2","","""event"",""trial"",""time""
""fullscreenenter"",""1"",""1794""
","
","
","""event"",""trial"",""time""
""fullscreenenter"",""1"",""1794""
","
","","","500.40000009536743","","","17","1122","247","&#9826;","elianto","#f73b6a7A","-1"," ","0","-10","[1352.2000000476837]","1","0","3","","","","","","","","",""
"pit-trial","35","473712","0.0-2.0-14.0-1.0","battery-v0.2","","""event"",""trial"",""time""
""fullscreenenter"",""1"",""1794""
","
","
","""event"",""trial"",""time""
""fullscreenenter"",""1"",""1794""
","
","","","-1","","","17","1122","247","&#9826;","elianto","#f73b6a7A","-1","-1","1","0","[]","0","0","3","","","","","","","","",""
"pit-trial","36","478579","0.0-2.0-14.0-2.0","battery-v0.2","","""event"",""trial"",""time""
""fullscreenenter"",""1"",""1794""
","
","
","""event"",""trial"",""time""
""fullscreenenter"",""1"",""1794""
","
","","","-1","","","17","1122","247","&#9826;","elianto","#f73b6a7A","-1","-1","1","0","[]","0","0","3","","","","","","","","",""
"pit-trial","37","482196","0.0-2.0-14.0-3.0","battery-v0.2","","""event"",""trial"",""time""
""fullscreenenter"",""1"",""1794""
","
","
","""event"",""trial"",""time""
""fullscreenenter"",""1"",""1794""
","
","","","753.7000000476837","","","17","1122","247","&#9826;","elianto","#f73b6a7A","-1"," ","0","0","[1603.7999999523163]","1","0","3","","","","","","","","",""
"pit-trial","38","487065","0.0-2.0-14.0-4.0","battery-v0.2","","""event"",""trial"",""time""
""fullscreenenter"",""1"",""1794""
","
","
","""event"",""trial"",""time""
""fullscreenenter"",""1"",""1794""
","
","","","-1","","","17","1122","247","&#9826;","elianto","#f73b6a7A","-1","-1","1","0","[]","0","0","3","","","","","","","","",""
"pit-trial","39","490840","0.0-2.0-14.1-0.1","battery-v0.2","","""event"",""trial"",""time""
""fullscreenenter"",""1"",""1794""
","
","
","""event"",""trial"",""time""
""fullscreenenter"",""1"",""1794""
","
","","","910.9000000953674","","","17","1122","247","&#9826;","elianto","#f73b6a7A","-1"," ","0","-10","[1760.7999999523163]","1","0","3","","","","","","","","",""
"pit-trial","40","495706","0.0-2.0-14.1-1.1","battery-v0.2","","""event"",""trial"",""time""
""fullscreenenter"",""1"",""1794""
","
","
","""event"",""trial"",""time""
""fullscreenenter"",""1"",""1794""
","
","","","-1","","","17","1122","247","&#9826;","elianto","#f73b6a7A","-1","-1","1","0","[]","0","0","3","","","","","","","","",""
"pit-trial","41","500570","0.0-2.0-14.1-2.1","battery-v0.2","","""event"",""trial"",""time""
""fullscreenenter"",""1"",""1794""
","
","
","""event"",""trial"",""time""
""fullscreenenter"",""1"",""1794""
","
","","","-1","","","17","1122","247","&#9826;","elianto","#f73b6a7A","-1","-1","1","0","[]","0","0","3","","","","","","","","",""
"pit-trial","42","505440","0.0-2.0-14.1-3.1","battery-v0.2","","""event"",""trial"",""time""
""fullscreenenter"",""1"",""1794""
","
","
","""event"",""trial"",""time""
""fullscreenenter"",""1"",""1794""
","
","","","-1","","","17","1122","247","&#9826;","elianto","#f73b6a7A","-1","-1","1","-10","[]","0","0","3","","","","","","","","",""
"pit-trial","43","510304","0.0-2.0-14.1-4.1","battery-v0.2","","""event"",""trial"",""time""
""fullscreenenter"",""1"",""1794""
","
","
","""event"",""trial"",""time""
""fullscreenenter"",""1"",""1794""
","
","","","-1","","","17","1122","247","&#9826;","elianto","#f73b6a7A","-1","-1","1","0","[]","0","0","3","","","","","","","","",""
"call-function","44","510311","0.0-2.0-15.0","battery-v0.2","","""event"",""trial"",""time""
""fullscreenenter"",""1"",""1794""
","
","
","""event"",""trial"",""time""
""fullscreenenter"",""1"",""1794""
","
","","","","","","","","","","","","","","","","","","","","","","","","","","","",""
"pit-instructions","45","534053","0.0-2.0-16.0","battery-v0.2","","""event"",""trial"",""time""
""fullscreenenter"",""1"",""1794""
","
","
","""event"",""trial"",""time""
""fullscreenenter"",""1"",""1794""
","
","","[{""page_index"":0,""viewing_time"":6151.300000190735},{""page_index"":1,""viewing_time"":8373.099999904633},{""page_index"":2,""viewing_time"":4085.0999999046326},{""page_index"":3,""viewing_time"":5130.200000047684}]","23740.5","","","","","","","","","","","","","","","","","","","","","","","","",""
"pit-trial","46","537098","0.0-2.0-17.0-0.0","battery-v0.2","","""event"",""trial"",""time""
""fullscreenenter"",""1"",""1794""
","
","
","""event"",""trial"",""time""
""fullscreenenter"",""1"",""1794""
","
","","","186.39999985694885","","","17","1122","247","&#9789;","elianto","#f73b6a7A"," "," ","1","0","[1037.5]","1","0","4","","","","","","","","",""
"pit-trial","47","540323","0.0-2.0-17.0-1.0","battery-v0.2","","""event"",""trial"",""time""
""fullscreenenter"",""1"",""1794""
","
","
","""event"",""trial"",""time""
""fullscreenenter"",""1"",""1794""
","
","","","360.7999999523163","","","17","1122","247","&#9789;","elianto","#f73b6a7A"," "," ","1","0","[1211]","1","0","4","","","","","","","","",""
"pit-trial","48","543380","0.0-2.0-17.0-2.0","battery-v0.2","","""event"",""trial"",""time""
""fullscreenenter"",""1"",""1794""
","
","
","""event"",""trial"",""time""
""fullscreenenter"",""1"",""1794""
","
","","","195.09999990463257","","","17","1122","247","&#9789;","elianto","#f73b6a7A"," "," ","1","0","[495,1047.5]","2","0","4","","","","","","","","",""
"pit-trial","49","546552","0.0-2.0-17.0-3.0","battery-v0.2","","""event"",""trial"",""time""
""fullscreenenter"",""1"",""1794""
","
","
","""event"",""trial"",""time""
""fullscreenenter"",""1"",""1794""
","
","","","308.7999999523163","","","17","1122","247","&#9789;","elianto","#f73b6a7A"," "," ","1","-10","[1159.5]","1","0","4","","","","","","","","",""
"pit-trial","50","549553","0.0-2.0-17.0-4.0","battery-v0.2","","""event"",""trial"",""time""
""fullscreenenter"",""1"",""1794""
","
","
","""event"",""trial"",""time""
""fullscreenenter"",""1"",""1794""
","
","","","140","","","17","1122","247","&#9789;","elianto","#f73b6a7A"," "," ","1","0","[990.5]","1","0","4","","","","","","","","",""
"call-function","51","549561","0.0-2.0-18.0","battery-v0.2","","""event"",""trial"",""time""
""fullscreenenter"",""1"",""1794""
","
","
","""event"",""trial"",""time""
""fullscreenenter"",""1"",""1794""
","
","","","","","","","","","","","","","","","","","","","","","","","","","","","",""
"pit-instructions","52","616288","0.0-2.0-19.0","battery-v0.2","","""event"",""trial"",""time""
""fullscreenenter"",""1"",""1794""
","
","
","""event"",""trial"",""time""
""fullscreenenter"",""1"",""1794""
","
","","[{""page_index"":0,""viewing_time"":6165.200000047684},{""page_index"":1,""viewing_time"":4337},{""page_index"":2,""viewing_time"":8179.099999904633},{""page_index"":3,""viewing_time"":5647.100000143051},{""page_index"":4,""viewing_time"":2046.3999998569489},{""page_index"":3,""viewing_time"":613.8000001907349},{""page_index"":2,""viewing_time"":4241.099999904633},{""page_index"":3,""viewing_time"":4655},{""page_index"":4,""viewing_time"":6660.5},{""page_index"":5,""viewing_time"":8641.799999952316},{""page_index"":6,""viewing_time"":6395.600000143051},{""page_index"":7,""viewing_time"":5389.299999952316},{""page_index"":8,""viewing_time"":3753.5999999046326}]","66726.5","","","","","","","","","","","","","","","","","","","","","","","","",""
"pit-comprehension","53","620674","0.0-2.0-20.0-0.0","battery-v0.2","","""event"",""trial"",""time""
""fullscreenenter"",""1"",""1794""
","
","
","""event"",""trial"",""time""
""fullscreenenter"",""1"",""1794""
","
","","","4380.200000047684","[""SPACE""]","0","17","1122","247","","","","","","","","","","","","","","","","","","","",""
"pit-instructions","54","623053","0.0-2.0-20.0-1.0","battery-v0.2","","""event"",""trial"",""time""
""fullscreenenter"",""1"",""1794""
","
","
","""event"",""trial"",""time""
""fullscreenenter"",""1"",""1794""
","
","","[{""page_index"":0,""viewing_time"":2361.5999999046326}]","2362.7000000476837","","","","","","","","","","","","","","","","","","","","","","","","",""
"pit-comprehension","55","627536","0.0-2.0-21.0-0.0","battery-v0.2","","""event"",""trial"",""time""
""fullscreenenter"",""1"",""1794""
","
","
","""event"",""trial"",""time""
""fullscreenenter"",""1"",""1794""
","
","","","4474.799999952316","[""10""]","0","17","1122","247","","","","","","","","","","","","","","","","","","","",""
"pit-instructions","56","628635","0.0-2.0-21.0-1.0","battery-v0.2","","""event"",""trial"",""time""
""fullscreenenter"",""1"",""1794""
","
","
","""event"",""trial"",""time""
""fullscreenenter"",""1"",""1794""
","
","","[{""page_index"":0,""viewing_time"":1081.2000000476837}]","1081.4000000953674","","","","","","","","","","","","","","","","","","","","","","","","",""
"pit-comprehension","57","635035","0.0-2.0-22.0-0.0","battery-v0.2","","""event"",""trial"",""time""
""fullscreenenter"",""1"",""1794""
","
","
","""event"",""trial"",""time""
""fullscreenenter"",""1"",""1794""
","
","","","6392.700000047684","[""0""]","0","17","1122","247","","","","","","","","","","","","","","","","","","","",""
"pit-instructions","58","636231","0.0-2.0-22.0-1.0","battery-v0.2","","""event"",""trial"",""time""
""fullscreenenter"",""1"",""1794""
","
","
","""event"",""trial"",""time""
""fullscreenenter"",""1"",""1794""
","
","","[{""page_index"":0,""viewing_time"":1179.5999999046326}]","1180.5","","","","","","","","","","","","","","","","","","","","","","","","",""
"pit-comprehension","59","644603","0.0-2.0-23.0-0.0","battery-v0.2","","""event"",""trial"",""time""
""fullscreenenter"",""1"",""1794""
","
","
","""event"",""trial"",""time""
""fullscreenenter"",""1"",""1794""
","
","","","8364.700000047684","[""True""]","0","17","1122","247","","","","","","","","","","","","","","","","","","","",""
"pit-instructions","60","646159","0.0-2.0-23.0-1.0","battery-v0.2","","""event"",""trial"",""time""
""fullscreenenter"",""1"",""1794""
","
","
","""event"",""trial"",""time""
""fullscreenenter"",""1"",""1794""
","
","","[{""page_index"":0,""viewing_time"":1535.8999998569489}]","1536.7999999523163","","","","","","","","","","","","","","","","","","","","","","","","",""
"pit-comprehension","61","653532","0.0-2.0-24.0-0.0","battery-v0.2","","""event"",""trial"",""time""
""fullscreenenter"",""1"",""1794""
","
","
","""event"",""trial"",""time""
""fullscreenenter"",""1"",""1794""
","
","","","7363.399999856949","[""True""]","0","17","1122","247","","","","","","","","","","","","","","","","","","","",""
"pit-instructions","62","654946","0.0-2.0-24.0-1.0","battery-v0.2","","""event"",""trial"",""time""
""fullscreenenter"",""1"",""1794""
","
","
","""event"",""trial"",""time""
""fullscreenenter"",""1"",""1794""
","
","","[{""page_index"":0,""viewing_time"":1396.4000000953674}]","1397.5","","","","","","","","","","","","","","","","","","","","","","","","",""
"pit-comprehension","63","661348","0.0-2.0-25.0-0.0","battery-v0.2","","""event"",""trial"",""time""
""fullscreenenter"",""1"",""1794""
","
","
","""event"",""trial"",""time""
""fullscreenenter"",""1"",""1794""
","
","","","6394.5","[""True""]","0","17","1122","247","","","","","","","","","","","","","","","","","","","",""
"pit-instructions","64","662848","0.0-2.0-25.0-1.0","battery-v0.2","","""event"",""trial"",""time""
""fullscreenenter"",""1"",""1794""
","
","
","""event"",""trial"",""time""
""fullscreenenter"",""1"",""1794""
","
","","[{""page_index"":0,""viewing_time"":1481.3000001907349}]","1482.4000000953674","","","","","","","","","","","","","","","","","","","","","","","","",""
"pit-comprehension","65","668454","0.0-2.0-26.0-0.0","battery-v0.2","","""event"",""trial"",""time""
""fullscreenenter"",""1"",""1794""
","
","
","""event"",""trial"",""time""
""fullscreenenter"",""1"",""1794""
","
","","","5596.599999904633","[""False""]","0","17","1122","247","","","","","","","","","","","","","","","","","","","",""
"pit-instructions","66","669979","0.0-2.0-26.0-1.0","battery-v0.2","","""event"",""trial"",""time""
""fullscreenenter"",""1"",""1794""
","
","
","""event"",""trial"",""time""
""fullscreenenter"",""1"",""1794""
","
","","[{""page_index"":0,""viewing_time"":1505.2999999523163}]","1505.9000000953674","","","","","","","","","","","","","","","","","","","","","","","","",""
"pit-instructions","67","686293","0.0-3.0","battery-v0.2","","""event"",""trial"",""time""
""fullscreenenter"",""1"",""1794""
","
","
","""event"",""trial"",""time""
""fullscreenenter"",""1"",""1794""
","
","","[{""page_index"":0,""viewing_time"":4530.299999952316},{""page_index"":1,""viewing_time"":5447.099999904633},{""page_index"":2,""viewing_time"":6326.799999952316}]","16305","","","","","","","","","","","","","","","","","","","","","","","","",""
"pit-trial","68","689832","0.0-4.0","battery-v0.2","","""event"",""trial"",""time""
""fullscreenenter"",""1"",""1794""
","
","
","""event"",""trial"",""time""
""fullscreenenter"",""1"",""1794""
","
","","","680.5999999046326","","","17","1122","247","&#9730;","elianto","#3366ff99"," "," ","1","+10","[1531.5]","1","1","","","1122","1","1","1","win","go","0","[]"
"pit-trial","69","694695","0.0-5.0","battery-v0.2","","""event"",""trial"",""time""
""fullscreenenter"",""1"",""1794""
","
","
","""event"",""trial"",""time""
""fullscreenenter"",""1"",""1794""
","
","","","-1","","","17","1122","247","&#9733;","elianto","#3366ff99","-1","-1","1","0","[]","0","1","","","1122","2","2","2","win","no-go","1","0"
"pit-trial","70","698700","0.0-6.0","battery-v0.2","","""event"",""trial"",""time""
""fullscreenenter"",""1"",""1794""
","
","
","""event"",""trial"",""time""
""fullscreenenter"",""1"",""1794""
","
","","","1144.5999999046326","","","17","1122","247","&#9752;","elianto","#f73b6a7A"," "," ","1","0","[1995.0999999046326]","1","1","","","1122","3","3","3","lose","go","0","0"
"pit-trial","71","703569","0.0-7.0","battery-v0.2","","""event"",""trial"",""time""
""fullscreenenter"",""1"",""1794""
","
","
","""event"",""trial"",""time""
""fullscreenenter"",""1"",""1794""
","
","","","-1","","","17","1122","247","&#9728;","elianto","#f73b6a7A","-1","-1","1","0","[]","0","1","","","1122","4","0","4","lose","no-go","0","0"
"pit-trial","72","708434","0.0-8.0","battery-v0.2","","""event"",""trial"",""time""
""fullscreenenter"",""1"",""1794""
","
","
","""event"",""trial"",""time""
""fullscreenenter"",""1"",""1794""
","
","","","-1","","","17","1122","247","&#9728;","elianto","#f73b6a7A","-1","-1","1","0","[]","0","1","","","1122","5","0","4","lose","no-go","0","0"
"pit-trial","73","711876","0.0-9.0","battery-v0.2","","""event"",""trial"",""time""
""fullscreenenter"",""1"",""1794""
","
","
","""event"",""trial"",""time""
""fullscreenenter"",""1"",""1794""
","
","","","579.7000000476837","","","17","1122","247","&#9730;","elianto","#3366ff99"," "," ","1","+10","[1432]","1","1","","","1122","6","1","1","win","go","0","0"
"pit-trial","74","716471","0.0-10.0","battery-v0.2","","""event"",""trial"",""time""
""fullscreenenter"",""1"",""1794""
","
","
","""event"",""trial"",""time""
""fullscreenenter"",""1"",""1794""
","
","","","1729.7999999523163","","","17","1122","247","&#9733;","elianto","#3366ff99","-1"," ","0","0","[2580.5]","1","1","","","1122","7","2","2","win","no-go","0","0"
"pit-trial","75","720647","0.0-11.0","battery-v0.2","","""event"",""trial"",""time""
""fullscreenenter"",""1"",""1794""
","
","
","""event"",""trial"",""time""
""fullscreenenter"",""1"",""1794""
","
","","","1311.2999999523163","","","17","1122","247","&#9752;","elianto","#f73b6a7A"," "," ","1","0","[2163.399999856949]","1","1","","","1122","8","3","3","lose","go","0","0"
"pit-trial","76","724364","0.0-12.0","battery-v0.2","","""event"",""trial"",""time""
""fullscreenenter"",""1"",""1794""
","
","
","""event"",""trial"",""time""
""fullscreenenter"",""1"",""1794""
","
","","","855.9000000953674","","","17","1122","247","&#9730;","elianto","#3366ff99"," "," ","1","+10","[1707]","1","1","","","1122","9","1","1","win","go","0","0"
"pit-trial","77","728150","0.0-13.0","battery-v0.2","","""event"",""trial"",""time""
""fullscreenenter"",""1"",""1794""
","
","
","""event"",""trial"",""time""
""fullscreenenter"",""1"",""1794""
","
","","","924.1999998092651","","","17","1122","247","&#9752;","elianto","#f73b6a7A"," "," ","1","0","[1774.7999999523163]","1","1","","","1122","10","3","3","lose","go","0","0"
"pit-trial","78","733009","0.0-14.0","battery-v0.2","","""event"",""trial"",""time""
""fullscreenenter"",""1"",""1794""
","
","
","""event"",""trial"",""time""
""fullscreenenter"",""1"",""1794""
","
","","","-1","","","17","1122","247","&#9728;","elianto","#f73b6a7A","-1","-1","1","0","[]","0","1","","","1122","11","0","4","lose","no-go","0","0"
"pit-trial","79","736519","0.0-15.0","battery-v0.2","","""event"",""trial"",""time""
""fullscreenenter"",""1"",""1794""
","
","
","""event"",""trial"",""time""
""fullscreenenter"",""1"",""1794""
","
","","","647.5999999046326","","","17","1122","247","&#9733;","elianto","#3366ff99","-1"," ","0","0","[1497.8000001907349]","1","1","","","1122","12","2","2","win","no-go","0","0"
"pit-trial","80","740198","0.0-16.0","battery-v0.2","","""event"",""trial"",""time""
""fullscreenenter"",""1"",""1794""
","
","
","""event"",""trial"",""time""
""fullscreenenter"",""1"",""1794""
","
","","","816.5","","","17","1122","247","&#9730;","elianto","#3366ff99"," "," ","1","0","[1666.8000001907349]","1","1","","","1122","13","1","1","win","go","1","0"
"pit-trial","81","744326","0.0-17.0","battery-v0.2","","""event"",""trial"",""time""
""fullscreenenter"",""1"",""1794""
","
","
","""event"",""trial"",""time""
""fullscreenenter"",""1"",""1794""
","
","","","1264.5999999046326","","","17","1122","247","&#9752;","elianto","#f73b6a7A"," "," ","1","-10","[2114.7000000476837]","1","1","","","1122","14","3","3","lose","go","1","0"
"pit-trial","82","749196","0.0-18.0","battery-v0.2","","""event"",""trial"",""time""
""fullscreenenter"",""1"",""1794""
","
","
","""event"",""trial"",""time""
""fullscreenenter"",""1"",""1794""
","
","","","-1","","","17","1122","247","&#9728;","elianto","#f73b6a7A","-1","-1","1","0","[]","0","1","","","1122","15","0","4","lose","no-go","0","0"
"pit-trial","83","754065","0.0-19.0","battery-v0.2","","""event"",""trial"",""time""
""fullscreenenter"",""1"",""1794""
","
","
","""event"",""trial"",""time""
""fullscreenenter"",""1"",""1794""
","
","","","-1","","","17","1122","247","&#9733;","elianto","#3366ff99","-1","-1","1","0","[]","0","1","","","1122","16","2","2","win","no-go","1","0"
"pit-trial","84","757851","0.0-20.0","battery-v0.2","","""event"",""trial"",""time""
""fullscreenenter"",""1"",""1794""
","
","
","""event"",""trial"",""time""
""fullscreenenter"",""1"",""1794""
","
","","","923.4000000953674","","","17","1122","247","&#9752;","elianto","#f73b6a7A"," "," ","1","0","[1775.2999999523163]","1","1","","","1122","17","3","3","lose","go","0","0"
"pit-trial","85","762716","0.0-21.0","battery-v0.2","","""event"",""trial"",""time""
""fullscreenenter"",""1"",""1794""
","
","
","""event"",""trial"",""time""
""fullscreenenter"",""1"",""1794""
","
","","","-1","","","17","1122","247","&#9728;","elianto","#f73b6a7A","-1","-1","1","0","[]","0","1","","","1122","18","0","4","lose","no-go","0","0"
"pit-trial","86","766929","0.0-22.0","battery-v0.2","","""event"",""trial"",""time""
""fullscreenenter"",""1"",""1794""
","
","
","""event"",""trial"",""time""
""fullscreenenter"",""1"",""1794""
","
","","","1350.6000001430511","","","17","1122","247","&#9733;","elianto","#3366ff99","-1"," ","0","0","[2202.2000000476837]","1","1","","","1122","19","2","2","win","no-go","0","0"
"pit-trial","87","770423","0.0-23.0","battery-v0.2","","""event"",""trial"",""time""
""fullscreenenter"",""1"",""1794""
","
","
","""event"",""trial"",""time""
""fullscreenenter"",""1"",""1794""
","
","","","631.2999999523163","","","17","1122","247","&#9730;","elianto","#3366ff99"," "," ","1","+10","[1482.4000000953674]","1","1","","","1122","20","1","1","win","go","0","0"
"pit-instructions","88","781919","0.0-24.0","battery-v0.2","","""event"",""trial"",""time""
""fullscreenenter"",""1"",""1794""
","
","
","""event"",""trial"",""time""
""fullscreenenter"",""1"",""1794""
","
","","[{""page_index"":0,""viewing_time"":5455.900000095367},{""page_index"":1,""viewing_time"":6031.5}]","11488.299999952316","","","","","","","","","","","","","","","","","","","","","","","","",""
"pit-trial","89","785407","0.0-25.0","battery-v0.2","","""event"",""trial"",""time""
""fullscreenenter"",""1"",""1794""
","
","
","""event"",""trial"",""time""
""fullscreenenter"",""1"",""1794""
","
","","","625.5","","","17","1122","247","m","elianto","#3366ff99","-1"," ","0","0","[1477.9000000953674]","1","2","","","1122","21","0","2","win","no-go","0","0"
"pit-trial","90","789026","0.0-26.0","battery-v0.2","","""event"",""trial"",""time""
""fullscreenenter"",""1"",""1794""
","
","
","""event"",""trial"",""time""
""fullscreenenter"",""1"",""1794""
","
","","","758.7000000476837","","","17","1122","247","y","elianto","#f73b6a7A","-1"," ","0","-10","[1609.5]","1","2","","","1122","22","2","4","lose","no-go","0","0"
"pit-trial","91","793264","0.0-27.0","battery-v0.2","","""event"",""trial"",""time""
""fullscreenenter"",""1"",""1794""
","
","
","""event"",""trial"",""time""
""fullscreenenter"",""1"",""1794""
","
","","","1374.5999999046326","","","17","1122","247","r","elianto","#f73b6a7A"," "," ","1","0","[2225.2000000476837]","1","2","","","1122","23","1","3","lose","go","0","0"
"pit-trial","92","797075","0.0-28.0","battery-v0.2","","""event"",""trial"",""time""
""fullscreenenter"",""1"",""1794""
","
","
","""event"",""trial"",""time""
""fullscreenenter"",""1"",""1794""
","
","","","948.2999999523163","","","17","1122","247","h","elianto","#3366ff99"," "," ","1","+10","[1799.0999999046326]","1","2","","","1122","24","3","1","win","go","0","0"
"pit-trial","93","801943","0.0-29.0","battery-v0.2","","""event"",""trial"",""time""
""fullscreenenter"",""1"",""1794""
","
","
","""event"",""trial"",""time""
""fullscreenenter"",""1"",""1794""
","
","","","-1","","","17","1122","247","m","elianto","#3366ff99","-1","-1","1","+10","[]","0","2","","","1122","25","0","2","win","no-go","0","0"
"pit-trial","94","806804","0.0-30.0","battery-v0.2","","""event"",""trial"",""time""
""fullscreenenter"",""1"",""1794""
","
","
","""event"",""trial"",""time""
""fullscreenenter"",""1"",""1794""
","
","","","-1","","","17","1122","247","y","elianto","#f73b6a7A","-1","-1","1","0","[]","0","2","","","1122","26","2","4","lose","no-go","0","0"
"pit-trial","95","810204","0.0-31.0","battery-v0.2","","""event"",""trial"",""time""
""fullscreenenter"",""1"",""1794""
","
","
","""event"",""trial"",""time""
""fullscreenenter"",""1"",""1794""
","
","","","538.5","","","17","1122","247","h","elianto","#3366ff99"," "," ","1","+10","[1391.1000001430511]","1","2","","","1122","27","3","1","win","go","0","0"
"pit-trial","96","813628","0.0-32.0","battery-v0.2","","""event"",""trial"",""time""
""fullscreenenter"",""1"",""1794""
","
","
","""event"",""trial"",""time""
""fullscreenenter"",""1"",""1794""
","
","","","561.8999998569489","","","17","1122","247","r","elianto","#f73b6a7A"," "," ","1","0","[1414.2999999523163]","1","2","","","1122","28","1","3","lose","go","0","0"
"pit-trial","97","817281","0.0-33.0","battery-v0.2","","""event"",""trial"",""time""
""fullscreenenter"",""1"",""1794""
","
","
","""event"",""trial"",""time""
""fullscreenenter"",""1"",""1794""
","
","","","794.2999999523163","","","17","1122","247","h","elianto","#3366ff99"," "," ","1","+10","[1645.1000001430511]","1","2","","","1122","29","3","1","win","go","0","0"
"pit-trial","98","820678","0.0-34.0","battery-v0.2","","""event"",""trial"",""time""
""fullscreenenter"",""1"",""1794""
","
","
","""event"",""trial"",""time""
""fullscreenenter"",""1"",""1794""
","
","","","534.3999998569489","","","17","1122","247","r","elianto","#f73b6a7A"," "," ","1","0","[1385.5]","1","2","","","1122","30","1","3","lose","go","0","0"
"pit-trial","99","825542","0.0-35.0","battery-v0.2","","""event"",""trial"",""time""
""fullscreenenter"",""1"",""1794""
","
","
","""event"",""trial"",""time""
""fullscreenenter"",""1"",""1794""
","
","","","-1","","","17","1122","247","y","elianto","#f73b6a7A","-1","-1","1","0","[]","0","2","","","1122","31","2","4","lose","no-go","0","0"
"pit-trial","100","830408","0.0-36.0","battery-v0.2","","""event"",""trial"",""time""
""fullscreenenter"",""1"",""1794""
","
","
","""event"",""trial"",""time""
""fullscreenenter"",""1"",""1794""
","
","","","-1","","","17","1122","247","m","elianto","#3366ff99","-1","-1","1","+10","[]","0","2","","","1122","32","0","2","win","no-go","0","0"
"pit-trial","101","834060","0.0-37.0","battery-v0.2","","""event"",""trial"",""time""
""fullscreenenter"",""1"",""1794""
","
","
","""event"",""trial"",""time""
""fullscreenenter"",""1"",""1794""
","
","","","788.2999999523163","","","17","1122","247","r","elianto","#f73b6a7A"," "," ","1","0","[1639.2999999523163]","1","2","","","1122","33","1","3","lose","go","0","0"
"pit-trial","102","838929","0.0-38.0","battery-v0.2","","""event"",""trial"",""time""
""fullscreenenter"",""1"",""1794""
","
","
","""event"",""trial"",""time""
""fullscreenenter"",""1"",""1794""
","
","","","-1","","","17","1122","247","y","elianto","#f73b6a7A","-1","-1","1","0","[]","0","2","","","1122","34","2","4","lose","no-go","0","0"
"pit-trial","103","842385","0.0-39.0","battery-v0.2","","""event"",""trial"",""time""
""fullscreenenter"",""1"",""1794""
","
","
","""event"",""trial"",""time""
""fullscreenenter"",""1"",""1794""
","
","","","594.5","","","17","1122","247","h","elianto","#3366ff99"," "," ","1","+10","[1445.4000000953674]","1","2","","","1122","35","3","1","win","go","0","0"
"pit-trial","104","847254","0.0-40.0","battery-v0.2","","""event"",""trial"",""time""
""fullscreenenter"",""1"",""1794""
","
","
","""event"",""trial"",""time""
""fullscreenenter"",""1"",""1794""
","
","","","-1","","","17","1122","247","m","elianto","#3366ff99","-1","-1","1","0","[]","0","2","","","1122","36","0","2","win","no-go","1","0"
"pit-trial","105","852123","0.0-41.0","battery-v0.2","","""event"",""trial"",""time""
""fullscreenenter"",""1"",""1794""
","
","
","""event"",""trial"",""time""
""fullscreenenter"",""1"",""1794""
","
","","","-1","","","17","1122","247","m","elianto","#3366ff99","-1","-1","1","+10","[]","0","2","","","1122","37","0","2","win","no-go","0","0"
"pit-trial","106","856988","0.0-42.0","battery-v0.2","","""event"",""trial"",""time""
""fullscreenenter"",""1"",""1794""
","
","
","""event"",""trial"",""time""
""fullscreenenter"",""1"",""1794""
","
","","","-1","","","17","1122","247","y","elianto","#f73b6a7A","-1","-1","1","-10","[]","0","2","","","1122","38","2","4","lose","no-go","1","0"
"pit-trial","107","860529","0.0-43.0","battery-v0.2","","""event"",""trial"",""time""
""fullscreenenter"",""1"",""1794""
","
","
","""event"",""trial"",""time""
""fullscreenenter"",""1"",""1794""
","
","","","678","","","17","1122","247","h","elianto","#3366ff99"," "," ","1","+10","[1528.5]","1","2","","","1122","39","3","1","win","go","0","0"
"pit-trial","108","864108","0.0-44.0","battery-v0.2","","""event"",""trial"",""time""
""fullscreenenter"",""1"",""1794""
","
","
","""event"",""trial"",""time""
""fullscreenenter"",""1"",""1794""
","
","","","717","","","17","1122","247","r","elianto","#f73b6a7A"," "," ","1","-10","[1567.7999999523163]","1","2","","","1122","40","1","3","lose","go","1","0"
"pit-trial","109","867548","0.0-45.0","battery-v0.2","","""event"",""trial"",""time""
""fullscreenenter"",""1"",""1794""
","
","
","""event"",""trial"",""time""
""fullscreenenter"",""1"",""1794""
","
","","","576.7999999523163","","","17","1122","247","h","elianto","#3366ff99"," "," ","1","+10","[1427.2999999523163]","1","2","","","1122","41","3","1","win","go","0","0"
"pit-trial","110","872417","0.0-46.0","battery-v0.2","","""event"",""trial"",""time""
""fullscreenenter"",""1"",""1794""
","
","
","""event"",""trial"",""time""
""fullscreenenter"",""1"",""1794""
","
","","","-1","","","17","1122","247","y","elianto","#f73b6a7A","-1","-1","1","-10","[]","0","2","","","1122","42","2","4","lose","no-go","1","0"
"pit-trial","111","877285","0.0-47.0","battery-v0.2","","""event"",""trial"",""time""
""fullscreenenter"",""1"",""1794""
","
","
","""event"",""trial"",""time""
""fullscreenenter"",""1"",""1794""
","
","","","-1","","","17","1122","247","m","elianto","#3366ff99","-1","-1","1","0","[]","0","2","","","1122","43","0","2","win","no-go","1","0"
"pit-trial","112","880790","0.0-48.0","battery-v0.2","","""event"",""trial"",""time""
""fullscreenenter"",""1"",""1794""
","
","
","""event"",""trial"",""time""
""fullscreenenter"",""1"",""1794""
","
","","","642","","","17","1122","247","r","elianto","#f73b6a7A"," "," ","1","0","[1493.5999999046326]","1","2","","","1122","44","1","3","lose","go","0","0"
"pit-trial","113","885660","0.0-49.0","battery-v0.2","","""event"",""trial"",""time""
""fullscreenenter"",""1"",""1794""
","
","
","""event"",""trial"",""time""
""fullscreenenter"",""1"",""1794""
","
","","","-1","","","17","1122","247","y","elianto","#f73b6a7A","-1","-1","1","0","[]","0","2","","","1122","45","2","4","lose","no-go","0","0"
"pit-trial","114","889153","0.0-50.0","battery-v0.2","","""event"",""trial"",""time""
""fullscreenenter"",""1"",""1794""
","
","
","""event"",""trial"",""time""
""fullscreenenter"",""1"",""1794""
","
","","","628.7999999523163","","","17","1122","247","h","elianto","#3366ff99"," "," ","1","+10","[1479.6000001430511]","1","2","","","1122","46","3","1","win","go","0","0"
"pit-trial","115","894022","0.0-51.0","battery-v0.2","","""event"",""trial"",""time""
""fullscreenenter"",""1"",""1794""
","
","
","""event"",""trial"",""time""
""fullscreenenter"",""1"",""1794""
","
","","","-1","","","17","1122","247","m","elianto","#3366ff99","-1","-1","1","0","[]","0","2","","","1122","47","0","2","win","no-go","1","0"
"pit-trial","116","897792","0.0-52.0","battery-v0.2","","""event"",""trial"",""time""
""fullscreenenter"",""1"",""1794""
","
","
","""event"",""trial"",""time""
""fullscreenenter"",""1"",""1794""
","
","","","906.2000000476837","","","17","1122","247","r","elianto","#f73b6a7A"," "," ","1","0","[1756.4000000953674]","1","2","","","1122","48","1","3","lose","go","0","0"
"pit-trial","117","902662","0.0-53.0","battery-v0.2","","""event"",""trial"",""time""
""fullscreenenter"",""1"",""1794""
","
","
","""event"",""trial"",""time""
""fullscreenenter"",""1"",""1794""
","
","","","-1","","","17","1122","247","y","elianto","#f73b6a7A","-1","-1","1","0","[]","0","2","","","1122","49","2","4","lose","no-go","0","0"
"pit-trial","118","906598","0.0-54.0","battery-v0.2","","""event"",""trial"",""time""
""fullscreenenter"",""1"",""1794""
","
","
","""event"",""trial"",""time""
""fullscreenenter"",""1"",""1794""
","
","","","1076.5","","","17","1122","247","r","elianto","#f73b6a7A"," "," ","1","-10","[1926.7000000476837]","1","2","","","1122","50","1","3","lose","go","1","0"
"pit-trial","119","911467","0.0-55.0","battery-v0.2","","""event"",""trial"",""time""
""fullscreenenter"",""1"",""1794""
","
","
","""event"",""trial"",""time""
""fullscreenenter"",""1"",""1794""
","
","","","-1","","","17","1122","247","m","elianto","#3366ff99","-1","-1","1","+10","[]","0","2","","","1122","51","0","2","win","no-go","0","0"
"pit-trial","120","914891","0.0-56.0","battery-v0.2","","""event"",""trial"",""time""
""fullscreenenter"",""1"",""1794""
","
","
","""event"",""trial"",""time""
""fullscreenenter"",""1"",""1794""
","
","","","560.2999999523163","","","17","1122","247","h","elianto","#3366ff99"," "," ","1","+10","[1411.0999999046326]","1","2","","","1122","52","3","1","win","go","0","0"
"pit-trial","121","919371","0.0-57.0","battery-v0.2","","""event"",""trial"",""time""
""fullscreenenter"",""1"",""1794""
","
","
","""event"",""trial"",""time""
""fullscreenenter"",""1"",""1794""
","
","","","1620","","","17","1122","247","r","elianto","#f73b6a7A"," "," ","1","-10","[2470.2000000476837]","1","2","","","1122","53","1","3","lose","go","1","0"
"pit-trial","122","924240","0.0-58.0","battery-v0.2","","""event"",""trial"",""time""
""fullscreenenter"",""1"",""1794""
","
","
","""event"",""trial"",""time""
""fullscreenenter"",""1"",""1794""
","
","","","-1","","","17","1122","247","y","elianto","#f73b6a7A","-1","-1","1","-10","[]","0","2","","","1122","54","2","4","lose","no-go","1","0"
"pit-trial","123","928683","0.0-59.0","battery-v0.2","","""event"",""trial"",""time""
""fullscreenenter"",""1"",""1794""
","
","
","""event"",""trial"",""time""
""fullscreenenter"",""1"",""1794""
","
","","","1580.7000000476837","","","17","1122","247","z","elianto","#f73b6a7A"," "," ","1","-10","[2431.2999999523163]","1","2","","","1122","55","4","3","lose","go","1","0"
"pit-trial","124","932832","0.0-60.0","battery-v0.2","","""event"",""trial"",""time""
""fullscreenenter"",""1"",""1794""
","
","
","""event"",""trial"",""time""
""fullscreenenter"",""1"",""1794""
","
","","","1285.7999999523163","","","17","1122","247","c","elianto","#f73b6a7A","-1"," ","0","-10","[2135.7999999523163]","1","2","","","1122","56","5","4","lose","no-go","0","0"
"pit-trial","125","937702","0.0-61.0","battery-v0.2","","""event"",""trial"",""time""
""fullscreenenter"",""1"",""1794""
","
","
","""event"",""trial"",""time""
""fullscreenenter"",""1"",""1794""
","
","","","-1","","","17","1122","247","c","elianto","#f73b6a7A","-1","-1","1","0","[]","0","2","","","1122","57","5","4","lose","no-go","0","0"
"pit-trial","126","942571","0.0-62.0","battery-v0.2","","""event"",""trial"",""time""
""fullscreenenter"",""1"",""1794""
","
","
","""event"",""trial"",""time""
""fullscreenenter"",""1"",""1794""
","
","","","-1","","","17","1122","247","z","elianto","#f73b6a7A"," ","-1","0","-10","[]","0","2","","","1122","58","4","3","lose","go","0","0"
"pit-trial","127","946955","0.0-63.0","battery-v0.2","","""event"",""trial"",""time""
""fullscreenenter"",""1"",""1794""
","
","
","""event"",""trial"",""time""
""fullscreenenter"",""1"",""1794""
","
","","","1521.5","","","17","1122","247","y","elianto","#f73b6a7A","-1"," ","0","-10","[2372.4000000953674]","1","2","","","1122","59","2","4","lose","no-go","0","0"
"pit-trial","128","950843","0.0-64.0","battery-v0.2","","""event"",""trial"",""time""
""fullscreenenter"",""1"",""1794""
","
","
","""event"",""trial"",""time""
""fullscreenenter"",""1"",""1794""
","
","","","1026.3000001907349","","","17","1122","247","r","elianto","#f73b6a7A"," "," ","1","0","[1876.4000000953674]","1","2","","","1122","60","1","3","lose","go","0","0"
"pit-trial","129","955504","0.0-65.0","battery-v0.2","","""event"",""trial"",""time""
""fullscreenenter"",""1"",""1794""
","
","
","""event"",""trial"",""time""
""fullscreenenter"",""1"",""1794""
","
","","","1799.5","","","17","1122","247","z","elianto","#f73b6a7A"," "," ","1","0","[2650.2999999523163]","1","2","","","1122","61","4","3","lose","go","0","0"
"pit-trial","130","959782","0.0-66.0","battery-v0.2","","""event"",""trial"",""time""
""fullscreenenter"",""1"",""1794""
","
","
","""event"",""trial"",""time""
""fullscreenenter"",""1"",""1794""
","
","","","1410.5","","","17","1122","247","b","elianto","#3366ff99","-1"," ","0","0","[2261.5999999046326]","1","2","","","1122","62","6","2","win","no-go","0","0"
"pit-trial","131","964645","0.0-67.0","battery-v0.2","","""event"",""trial"",""time""
""fullscreenenter"",""1"",""1794""
","
","
","""event"",""trial"",""time""
""fullscreenenter"",""1"",""1794""
","
","","","-1","","","17","1122","247","y","elianto","#f73b6a7A","-1","-1","1","0","[]","0","2","","","1122","63","2","4","lose","no-go","0","0"
"pit-trial","132","969510","0.0-68.0","battery-v0.2","","""event"",""trial"",""time""
""fullscreenenter"",""1"",""1794""
","
","
","""event"",""trial"",""time""
""fullscreenenter"",""1"",""1794""
","
","","","-1","","","17","1122","247","c","elianto","#f73b6a7A","-1","-1","1","0","[]","0","2","","","1122","64","5","4","lose","no-go","0","0"
"pit-trial","133","974085","0.0-69.0","battery-v0.2","","""event"",""trial"",""time""
""fullscreenenter"",""1"",""1794""
","
","
","""event"",""trial"",""time""
""fullscreenenter"",""1"",""1794""
","
","","","1710.2999999523163","","","17","1122","247","z","elianto","#f73b6a7A"," "," ","1","0","[2561.199999809265]","1","2","","","1122","65","4","3","lose","go","0","0"
"pit-trial","134","978955","0.0-70.0","battery-v0.2","","""event"",""trial"",""time""
""fullscreenenter"",""1"",""1794""
","
","
","""event"",""trial"",""time""
""fullscreenenter"",""1"",""1794""
","
","","","-1","","","17","1122","247","c","elianto","#f73b6a7A","-1","-1","1","0","[]","0","2","","","1122","66","5","4","lose","no-go","0","0"
"pit-trial","135","983824","0.0-71.0","battery-v0.2","","""event"",""trial"",""time""
""fullscreenenter"",""1"",""1794""
","
","
","""event"",""trial"",""time""
""fullscreenenter"",""1"",""1794""
","
","","","-1","","","17","1122","247","y","elianto","#f73b6a7A","-1","-1","1","0","[]","0","2","","","1122","67","2","4","lose","no-go","0","0"
"pit-trial","136","988693","0.0-72.0","battery-v0.2","","""event"",""trial"",""time""
""fullscreenenter"",""1"",""1794""
","
","
","""event"",""trial"",""time""
""fullscreenenter"",""1"",""1794""
","
","","","-1","","","17","1122","247","b","elianto","#3366ff99","-1","-1","1","+10","[]","0","2","","","1122","68","6","2","win","no-go","0","0"
"pit-trial","137","992635","0.0-73.0","battery-v0.2","","""event"",""trial"",""time""
""fullscreenenter"",""1"",""1794""
","
","
","""event"",""trial"",""time""
""fullscreenenter"",""1"",""1794""
","
","","","1074.7000000476837","","","17","1122","247","z","elianto","#f73b6a7A"," "," ","1","0","[1926.1000001430511]","1","2","","","1122","69","4","3","lose","go","0","0"
"pit-trial","138","997504","0.0-74.0","battery-v0.2","","""event"",""trial"",""time""
""fullscreenenter"",""1"",""1794""
","
","
","""event"",""trial"",""time""
""fullscreenenter"",""1"",""1794""
","
","","","-1","","","17","1122","247","b","elianto","#3366ff99","-1","-1","1","+10","[]","0","2","","","1122","70","6","2","win","no-go","0","0"
"pit-trial","139","1002373","0.0-75.0","battery-v0.2","","""event"",""trial"",""time""
""fullscreenenter"",""1"",""1794""
","
","
","""event"",""trial"",""time""
""fullscreenenter"",""1"",""1794""
","
","","","-1","","","17","1122","247","c","elianto","#f73b6a7A","-1","-1","1","0","[]","0","2","","","1122","71","5","4","lose","no-go","0","0"
"pit-trial","140","1006298","0.0-76.0","battery-v0.2","","""event"",""trial"",""time""
""fullscreenenter"",""1"",""1794""
","
","
","""event"",""trial"",""time""
""fullscreenenter"",""1"",""1794""
","
","","","1063.2999999523163","","","17","1122","247","t","elianto","#3366ff99"," "," ","1","+10","[1912.8999998569489]","1","2","","","1122","72","7","1","win","go","0","0"
"pit-trial","141","1011168","0.0-77.0","battery-v0.2","","""event"",""trial"",""time""
""fullscreenenter"",""1"",""1794""
","
","
","""event"",""trial"",""time""
""fullscreenenter"",""1"",""1794""
","
","","","-1","","","17","1122","247","b","elianto","#3366ff99","-1","-1","1","+10","[]","0","2","","","1122","73","6","2","win","no-go","0","0"
"pit-trial","142","1016031","0.0-78.0","battery-v0.2","","""event"",""trial"",""time""
""fullscreenenter"",""1"",""1794""
","
","
","""event"",""trial"",""time""
""fullscreenenter"",""1"",""1794""
","
","","","-1","","","17","1122","247","c","elianto","#f73b6a7A","-1","-1","1","0","[]","0","2","","","1122","74","5","4","lose","no-go","0","0"
"pit-trial","143","1019855","0.0-79.0","battery-v0.2","","""event"",""trial"",""time""
""fullscreenenter"",""1"",""1794""
","
","
","""event"",""trial"",""time""
""fullscreenenter"",""1"",""1794""
","
","","","955.6000001430511","","","17","1122","247","z","elianto","#f73b6a7A"," "," ","1","0","[1808.2000000476837]","1","2","","","1122","75","4","3","lose","go","0","0"
"pit-trial","144","1023568","0.0-80.0","battery-v0.2","","""event"",""trial"",""time""
""fullscreenenter"",""1"",""1794""
","
","
","""event"",""trial"",""time""
""fullscreenenter"",""1"",""1794""
","
","","","849.1000001430511","","","17","1122","247","t","elianto","#3366ff99"," "," ","1","+10","[1698.9000000953674]","1","2","","","1122","76","7","1","win","go","0","0"
"pit-trial","145","1027205","0.0-81.0","battery-v0.2","","""event"",""trial"",""time""
""fullscreenenter"",""1"",""1794""
","
","
","""event"",""trial"",""time""
""fullscreenenter"",""1"",""1794""
","
","","","771.3999998569489","","","17","1122","247","t","elianto","#3366ff99"," "," ","1","+10","[1622.5999999046326]","1","2","","","1122","77","7","1","win","go","0","0"
"pit-trial","146","1031072","0.0-82.0","battery-v0.2","","""event"",""trial"",""time""
""fullscreenenter"",""1"",""1794""
","
","
","""event"",""trial"",""time""
""fullscreenenter"",""1"",""1794""
","
","","","1005.3999998569489","","","17","1122","247","z","elianto","#f73b6a7A"," "," ","1","-10","[1855.5]","1","2","","","1122","78","4","3","lose","go","1","0"
"pit-trial","147","1035941","0.0-83.0","battery-v0.2","","""event"",""trial"",""time""
""fullscreenenter"",""1"",""1794""
","
","
","""event"",""trial"",""time""
""fullscreenenter"",""1"",""1794""
","
","","","-1","","","17","1122","247","c","elianto","#f73b6a7A","-1","-1","1","0","[]","0","2","","","1122","79","5","4","lose","no-go","0","0"
"pit-trial","148","1040810","0.0-84.0","battery-v0.2","","""event"",""trial"",""time""
""fullscreenenter"",""1"",""1794""
","
","
","""event"",""trial"",""time""
""fullscreenenter"",""1"",""1794""
","
","","","-1","","","17","1122","247","b","elianto","#3366ff99","-1","-1","1","+10","[]","0","2","","","1122","80","6","2","win","no-go","0","0"
"pit-trial","149","1044463","0.0-85.0","battery-v0.2","","""event"",""trial"",""time""
""fullscreenenter"",""1"",""1794""
","
","
","""event"",""trial"",""time""
""fullscreenenter"",""1"",""1794""
","
","","","790.5","","","17","1122","247","z","elianto","#f73b6a7A"," "," ","1","0","[1641.9000000953674]","1","2","","","1122","81","4","3","lose","go","0","0"
"pit-trial","150","1049333","0.0-86.0","battery-v0.2","","""event"",""trial"",""time""
""fullscreenenter"",""1"",""1794""
","
","
","""event"",""trial"",""time""
""fullscreenenter"",""1"",""1794""
","
","","","-1","","","17","1122","247","b","elianto","#3366ff99","-1","-1","1","+10","[]","0","2","","","1122","82","6","2","win","no-go","0","0"
"pit-trial","151","1054202","0.0-87.0","battery-v0.2","","""event"",""trial"",""time""
""fullscreenenter"",""1"",""1794""
","
","
","""event"",""trial"",""time""
""fullscreenenter"",""1"",""1794""
","
","","","-1","","","17","1122","247","c","elianto","#f73b6a7A","-1","-1","1","0","[]","0","2","","","1122","83","5","4","lose","no-go","0","0"
"pit-trial","152","1057808","0.0-88.0","battery-v0.2","","""event"",""trial"",""time""
""fullscreenenter"",""1"",""1794""
","
","
","""event"",""trial"",""time""
""fullscreenenter"",""1"",""1794""
","
","","","740.2000000476837","","","17","1122","247","t","elianto","#3366ff99"," "," ","1","+10","[1590.9000000953674]","1","2","","","1122","84","7","1","win","go","0","0"
"pit-trial","153","1062677","0.0-89.0","battery-v0.2","","""event"",""trial"",""time""
""fullscreenenter"",""1"",""1794""
","
","
","""event"",""trial"",""time""
""fullscreenenter"",""1"",""1794""
","
","","","-1","","","17","1122","247","c","elianto","#f73b6a7A","-1","-1","1","-10","[]","0","2","","","1122","85","5","4","lose","no-go","1","0"
"pit-trial","154","1067545","0.0-90.0","battery-v0.2","","""event"",""trial"",""time""
""fullscreenenter"",""1"",""1794""
","
","
","""event"",""trial"",""time""
""fullscreenenter"",""1"",""1794""
","
","","","-1","","","17","1122","247","b","elianto","#3366ff99","-1","-1","1","+10","[]","0","2","","","1122","86","6","2","win","no-go","0","0"
"pit-trial","155","1071247","0.0-91.0","battery-v0.2","","""event"",""trial"",""time""
""fullscreenenter"",""1"",""1794""
","
","
","""event"",""trial"",""time""
""fullscreenenter"",""1"",""1794""
","
","","","845.7000000476837","","","17","1122","247","t","elianto","#3366ff99"," "," ","1","+10","[1695.8000001907349]","1","2","","","1122","87","7","1","win","go","0","0"
"pit-trial","156","1075503","0.0-92.0","battery-v0.2","","""event"",""trial"",""time""
""fullscreenenter"",""1"",""1794""
","
","
","""event"",""trial"",""time""
""fullscreenenter"",""1"",""1794""
","
","","","1391.7999999523163","","","17","1122","247","z","elianto","#f73b6a7A"," "," ","1","0","[2244.5]","1","2","","","1122","88","4","3","lose","go","0","0"
"pit-trial","157","1080368","0.0-93.0","battery-v0.2","","""event"",""trial"",""time""
""fullscreenenter"",""1"",""1794""
","
","
","""event"",""trial"",""time""
""fullscreenenter"",""1"",""1794""
","
","","","-1","","","17","1122","247","b","elianto","#3366ff99","-1","-1","1","0","[]","0","2","","","1122","89","6","2","win","no-go","1","0"
"pit-trial","158","1084181","0.0-94.0","battery-v0.2","","""event"",""trial"",""time""
""fullscreenenter"",""1"",""1794""
","
","
","""event"",""trial"",""time""
""fullscreenenter"",""1"",""1794""
","
","","","951.2000000476837","","","17","1122","247","z","elianto","#f73b6a7A"," "," ","1","0","[1802.7999999523163]","1","2","","","1122","90","4","3","lose","go","0","0"
"pit-trial","159","1087845","0.0-95.0","battery-v0.2","","""event"",""trial"",""time""
""fullscreenenter"",""1"",""1794""
","
","
","""event"",""trial"",""time""
""fullscreenenter"",""1"",""1794""
","
","","","797.7999999523163","","","17","1122","247","t","elianto","#3366ff99"," "," ","1","+10","[1649.8999998569489]","1","2","","","1122","91","7","1","win","go","0","0"
"pit-trial","160","1092714","0.0-96.0","battery-v0.2","","""event"",""trial"",""time""
""fullscreenenter"",""1"",""1794""
","
","
","""event"",""trial"",""time""
""fullscreenenter"",""1"",""1794""
","
","","","-1","","","17","1122","247","c","elianto","#f73b6a7A","-1","-1","1","0","[]","0","2","","","1122","92","5","4","lose","no-go","0","0"
"pit-trial","161","1096501","0.0-97.0","battery-v0.2","","""event"",""trial"",""time""
""fullscreenenter"",""1"",""1794""
","
","
","""event"",""trial"",""time""
""fullscreenenter"",""1"",""1794""
","
","","","921.6999998092651","","","17","1122","247","z","elianto","#f73b6a7A"," "," ","1","-10","[1774.3999998569489]","1","2","","","1122","93","4","3","lose","go","1","0"
"pit-trial","162","1100021","0.0-98.0","battery-v0.2","","""event"",""trial"",""time""
""fullscreenenter"",""1"",""1794""
","
","
","""event"",""trial"",""time""
""fullscreenenter"",""1"",""1794""
","
","","","653.2000000476837","","","17","1122","247","t","elianto","#3366ff99"," "," ","1","+10","[1504.7999999523163]","1","2","","","1122","94","7","1","win","go","0","0"
"pit-trial","163","1104890","0.0-99.0","battery-v0.2","","""event"",""trial"",""time""
""fullscreenenter"",""1"",""1794""
","
","
","""event"",""trial"",""time""
""fullscreenenter"",""1"",""1794""
","
","","","-1","","","17","1122","247","b","elianto","#3366ff99","-1","-1","1","+10","[]","0","2","","","1122","95","6","2","win","no-go","0","0"
"pit-trial","164","1109333","0.0-100.0","battery-v0.2","","""event"",""trial"",""time""
""fullscreenenter"",""1"",""1794""
","
","
","""event"",""trial"",""time""
""fullscreenenter"",""1"",""1794""
","
","","","1579.7999999523163","","","17","1122","247","x","elianto","#3366ff99"," "," ","1","+10","[2429.7000000476837]","1","2","","","1122","96","8","1","win","go","0","0"
"pit-trial","165","1112955","0.0-101.0","battery-v0.2","","""event"",""trial"",""time""
""fullscreenenter"",""1"",""1794""
","
","
","""event"",""trial"",""time""
""fullscreenenter"",""1"",""1794""
","
","","","756.1000001430511","","","17","1122","247","x","elianto","#3366ff99"," "," ","1","+10","[1608.5]","1","2","","","1122","97","8","1","win","go","0","0"
"pit-trial","166","1116585","0.0-102.0","battery-v0.2","","""event"",""trial"",""time""
""fullscreenenter"",""1"",""1794""
","
","
","""event"",""trial"",""time""
""fullscreenenter"",""1"",""1794""
","
","","","768.8000001907349","","","17","1122","247","t","elianto","#3366ff99"," "," ","1","+10","[1618.8999998569489]","1","2","","","1122","98","7","1","win","go","0","0"
"pit-trial","167","1120537","0.0-103.0","battery-v0.2","","""event"",""trial"",""time""
""fullscreenenter"",""1"",""1794""
","
","
","""event"",""trial"",""time""
""fullscreenenter"",""1"",""1794""
","
","","","1089.5","","","17","1122","247","z","elianto","#f73b6a7A"," "," ","1","0","[1940.5999999046326]","1","2","","","1122","99","4","3","lose","go","0","0"
"pit-trial","168","1125407","0.0-104.0","battery-v0.2","","""event"",""trial"",""time""
""fullscreenenter"",""1"",""1794""
","
","
","""event"",""trial"",""time""
""fullscreenenter"",""1"",""1794""
","
","","","-1","","","17","1122","247","b","elianto","#3366ff99","-1","-1","1","+10","[]","0","2","","","1122","100","6","2","win","no-go","0","0"
"pit-trial","169","1129051","0.0-105.0","battery-v0.2","","""event"",""trial"",""time""
""fullscreenenter"",""1"",""1794""
","
","
","""event"",""trial"",""time""
""fullscreenenter"",""1"",""1794""
","
","","","777.4000000953674","","","17","1122","247","t","elianto","#3366ff99"," "," ","1","+10","[1628.5]","1","2","","","1122","101","7","1","win","go","0","0"
"pit-trial","170","1133919","0.0-106.0","battery-v0.2","","""event"",""trial"",""time""
""fullscreenenter"",""1"",""1794""
","
","
","""event"",""trial"",""time""
""fullscreenenter"",""1"",""1794""
","
","","","-1","","","17","1122","247","f","elianto","#3366ff99","-1","-1","1","0","[]","0","2","","","1122","102","9","2","win","no-go","1","0"
"pit-trial","171","1138788","0.0-107.0","battery-v0.2","","""event"",""trial"",""time""
""fullscreenenter"",""1"",""1794""
","
","
","""event"",""trial"",""time""
""fullscreenenter"",""1"",""1794""
","
","","","-1","","","17","1122","247","b","elianto","#3366ff99","-1","-1","1","+10","[]","0","2","","","1122","103","6","2","win","no-go","0","0"
"pit-trial","172","1142382","0.0-108.0","battery-v0.2","","""event"",""trial"",""time""
""fullscreenenter"",""1"",""1794""
","
","
","""event"",""trial"",""time""
""fullscreenenter"",""1"",""1794""
","
","","","730.2000000476837","","","17","1122","247","x","elianto","#3366ff99"," "," ","1","+10","[1580.2999999523163]","1","2","","","1122","104","8","1","win","go","0","0"
"pit-trial","173","1147247","0.0-109.0","battery-v0.2","","""event"",""trial"",""time""
""fullscreenenter"",""1"",""1794""
","
","
","""event"",""trial"",""time""
""fullscreenenter"",""1"",""1794""
","
","","","-1","","","17","1122","247","b","elianto","#3366ff99","-1","-1","1","+10","[]","0","2","","","1122","105","6","2","win","no-go","0","0"
"pit-trial","174","1150900","0.0-110.0","battery-v0.2","","""event"",""trial"",""time""
""fullscreenenter"",""1"",""1794""
","
","
","""event"",""trial"",""time""
""fullscreenenter"",""1"",""1794""
","
","","","789.5999999046326","","","17","1122","247","x","elianto","#3366ff99"," "," ","1","0","[1641.8999998569489]","1","2","","","1122","106","8","1","win","go","1","0"
"pit-trial","175","1154601","0.0-111.0","battery-v0.2","","""event"",""trial"",""time""
""fullscreenenter"",""1"",""1794""
","
","
","""event"",""trial"",""time""
""fullscreenenter"",""1"",""1794""
","
","","","835.3000001907349","","","17","1122","247","t","elianto","#3366ff99"," "," ","1","0","[1688.2000000476837]","1","2","","","1122","107","7","1","win","go","1","0"
"pit-trial","176","1159471","0.0-112.0","battery-v0.2","","""event"",""trial"",""time""
""fullscreenenter"",""1"",""1794""
","
","
","""event"",""trial"",""time""
""fullscreenenter"",""1"",""1794""
","
","","","-1","","","17","1122","247","f","elianto","#3366ff99","-1","-1","1","+10","[]","0","2","","","1122","108","9","2","win","no-go","0","0"
"pit-trial","177","1163918","0.0-113.0","battery-v0.2","","""event"",""trial"",""time""
""fullscreenenter"",""1"",""1794""
","
","
","""event"",""trial"",""time""
""fullscreenenter"",""1"",""1794""
","
","","","1579.7999999523163","","","17","1122","247","q","elianto","#f73b6a7A","-1"," ","0","-10","[2430.5]","1","2","","","1122","109","11","4","lose","no-go","0","0"
"pit-trial","178","1168783","0.0-114.0","battery-v0.2","","""event"",""trial"",""time""
""fullscreenenter"",""1"",""1794""
","
","
","""event"",""trial"",""time""
""fullscreenenter"",""1"",""1794""
","
","","","-1","","","17","1122","247","n","elianto","#f73b6a7A"," ","-1","0","-10","[]","0","2","","","1122","110","10","3","lose","go","0","0"
"pit-trial","179","1173647","0.0-115.0","battery-v0.2","","""event"",""trial"",""time""
""fullscreenenter"",""1"",""1794""
","
","
","""event"",""trial"",""time""
""fullscreenenter"",""1"",""1794""
","
","","","-1","","","17","1122","247","f","elianto","#3366ff99","-1","-1","1","+10","[]","0","2","","","1122","111","9","2","win","no-go","0","0"
"pit-trial","180","1177417","0.0-116.0","battery-v0.2","","""event"",""trial"",""time""
""fullscreenenter"",""1"",""1794""
","
","
","""event"",""trial"",""time""
""fullscreenenter"",""1"",""1794""
","
","","","903.2999999523163","","","17","1122","247","x","elianto","#3366ff99"," "," ","1","+10","[1756]","1","2","","","1122","112","8","1","win","go","0","0"
"pit-trial","181","1181279","0.0-117.0","battery-v0.2","","""event"",""trial"",""time""
""fullscreenenter"",""1"",""1794""
","
","
","""event"",""trial"",""time""
""fullscreenenter"",""1"",""1794""
","
","","","995.7999999523163","","","17","1122","247","x","elianto","#3366ff99"," "," ","1","+10","[1846]","1","2","","","1122","113","8","1","win","go","0","0"
"pit-trial","182","1186142","0.0-118.0","battery-v0.2","","""event"",""trial"",""time""
""fullscreenenter"",""1"",""1794""
","
","
","""event"",""trial"",""time""
""fullscreenenter"",""1"",""1794""
","
","","","-1","","","17","1122","247","f","elianto","#3366ff99","-1","-1","1","+10","[]","0","2","","","1122","114","9","2","win","no-go","0","0"
"pit-trial","183","1191007","0.0-119.0","battery-v0.2","","""event"",""trial"",""time""
""fullscreenenter"",""1"",""1794""
","
","
","""event"",""trial"",""time""
""fullscreenenter"",""1"",""1794""
","
","","","-1","","","17","1122","247","q","elianto","#f73b6a7A","-1","-1","1","0","[]","0","2","","","1122","115","11","4","lose","no-go","0","0"
"pit-trial","184","1194623","0.0-120.0","battery-v0.2","","""event"",""trial"",""time""
""fullscreenenter"",""1"",""1794""
","
","
","""event"",""trial"",""time""
""fullscreenenter"",""1"",""1794""
","
","","","752.0999999046326","","","17","1122","247","n","elianto","#f73b6a7A"," "," ","1","-10","[1602.5]","1","2","","","1122","116","10","3","lose","go","1","0"
"pit-trial","185","1198441","0.0-121.0","battery-v0.2","","""event"",""trial"",""time""
""fullscreenenter"",""1"",""1794""
","
","
","""event"",""trial"",""time""
""fullscreenenter"",""1"",""1794""
","
","","","953.4000000953674","","","17","1122","247","n","elianto","#f73b6a7A"," "," ","1","0","[1804.2000000476837]","1","2","","","1122","117","10","3","lose","go","0","0"
"pit-trial","186","1203310","0.0-122.0","battery-v0.2","","""event"",""trial"",""time""
""fullscreenenter"",""1"",""1794""
","
","
","""event"",""trial"",""time""
""fullscreenenter"",""1"",""1794""
","
","","","-1","","","17","1122","247","f","elianto","#3366ff99","-1","-1","1","+10","[]","0","2","","","1122","118","9","2","win","no-go","0","0"
"pit-trial","187","1207119","0.0-123.0","battery-v0.2","","""event"",""trial"",""time""
""fullscreenenter"",""1"",""1794""
","
","
","""event"",""trial"",""time""
""fullscreenenter"",""1"",""1794""
","
","","","941.5999999046326","","","17","1122","247","x","elianto","#3366ff99"," "," ","1","+10","[1793.5999999046326]","1","2","","","1122","119","8","1","win","go","0","0"
"pit-trial","188","1211988","0.0-124.0","battery-v0.2","","""event"",""trial"",""time""
""fullscreenenter"",""1"",""1794""
","
","
","""event"",""trial"",""time""
""fullscreenenter"",""1"",""1794""
","
","","","-1","","","17","1122","247","q","elianto","#f73b6a7A","-1","-1","1","0","[]","0","2","","","1122","120","11","4","lose","no-go","0","0"
"pit-trial","189","1216079","0.0-125.0","battery-v0.2","","""event"",""trial"",""time""
""fullscreenenter"",""1"",""1794""
","
","
","""event"",""trial"",""time""
""fullscreenenter"",""1"",""1794""
","
","","","1225.4000000953674","","","17","1122","247","n","elianto","#f73b6a7A"," "," ","1","-10","[2075.5999999046326]","1","2","","","1122","121","10","3","lose","go","1","0"
"pit-trial","190","1219663","0.0-126.0","battery-v0.2","","""event"",""trial"",""time""
""fullscreenenter"",""1"",""1794""
","
","
","""event"",""trial"",""time""
""fullscreenenter"",""1"",""1794""
","
","","","716.5","","","17","1122","247","x","elianto","#3366ff99"," "," ","1","+10","[1569.0999999046326]","1","2","","","1122","122","8","1","win","go","0","0"
"pit-trial","191","1224531","0.0-127.0","battery-v0.2","","""event"",""trial"",""time""
""fullscreenenter"",""1"",""1794""
","
","
","""event"",""trial"",""time""
""fullscreenenter"",""1"",""1794""
","
","","","-1","","","17","1122","247","f","elianto","#3366ff99","-1","-1","1","+10","[]","0","2","","","1122","123","9","2","win","no-go","0","0"
"pit-trial","192","1229395","0.0-128.0","battery-v0.2","","""event"",""trial"",""time""
""fullscreenenter"",""1"",""1794""
","
","
","""event"",""trial"",""time""
""fullscreenenter"",""1"",""1794""
","
","","","-1","","","17","1122","247","q","elianto","#f73b6a7A","-1","-1","1","0","[]","0","2","","","1122","124","11","4","lose","no-go","0","0"
"pit-trial","193","1233086","0.0-129.0","battery-v0.2","","""event"",""trial"",""time""
""fullscreenenter"",""1"",""1794""
","
","
","""event"",""trial"",""time""
""fullscreenenter"",""1"",""1794""
","
","","","825.5","","","17","1122","247","x","elianto","#3366ff99"," "," ","1","0","[1678.1000001430511]","1","2","","","1122","125","8","1","win","go","1","0"
"pit-trial","194","1236889","0.0-130.0","battery-v0.2","","""event"",""trial"",""time""
""fullscreenenter"",""1"",""1794""
","
","
","""event"",""trial"",""time""
""fullscreenenter"",""1"",""1794""
","
","","","939.3999998569489","","","17","1122","247","n","elianto","#f73b6a7A"," "," ","1","0","[1790]","1","2","","","1122","126","10","3","lose","go","0","0"
"pit-trial","195","1241758","0.0-131.0","battery-v0.2","","""event"",""trial"",""time""
""fullscreenenter"",""1"",""1794""
","
","
","""event"",""trial"",""time""
""fullscreenenter"",""1"",""1794""
","
","","","-1","","","17","1122","247","f","elianto","#3366ff99","-1","-1","1","+10","[]","0","2","","","1122","127","9","2","win","no-go","0","0"
"pit-trial","196","1246627","0.0-132.0","battery-v0.2","","""event"",""trial"",""time""
""fullscreenenter"",""1"",""1794""
","
","
","""event"",""trial"",""time""
""fullscreenenter"",""1"",""1794""
","
","","","-1","","","17","1122","247","q","elianto","#f73b6a7A","-1","-1","1","0","[]","0","2","","","1122","128","11","4","lose","no-go","0","0"
"pit-trial","197","1251497","0.0-133.0","battery-v0.2","","""event"",""trial"",""time""
""fullscreenenter"",""1"",""1794""
","
","
","""event"",""trial"",""time""
""fullscreenenter"",""1"",""1794""
","
","","","-1","","","17","1122","247","f","elianto","#3366ff99","-1","-1","1","+10","[]","0","2","","","1122","129","9","2","win","no-go","0","0"
"pit-trial","198","1255331","0.0-134.0","battery-v0.2","","""event"",""trial"",""time""
""fullscreenenter"",""1"",""1794""
","
","
","""event"",""trial"",""time""
""fullscreenenter"",""1"",""1794""
","
","","","968.7000000476837","","","17","1122","247","n","elianto","#f73b6a7A"," "," ","1","0","[1821.6000001430511]","1","2","","","1122","130","10","3","lose","go","0","0"
"pit-trial","199","1260201","0.0-135.0","battery-v0.2","","""event"",""trial"",""time""
""fullscreenenter"",""1"",""1794""
","
","
","""event"",""trial"",""time""
""fullscreenenter"",""1"",""1794""
","
","","","-1","","","17","1122","247","q","elianto","#f73b6a7A","-1","-1","1","0","[]","0","2","","","1122","131","11","4","lose","no-go","0","0"
"pit-trial","200","1263859","0.0-136.0","battery-v0.2","","""event"",""trial"",""time""
""fullscreenenter"",""1"",""1794""
","
","
","""event"",""trial"",""time""
""fullscreenenter"",""1"",""1794""
","
","","","795.3999998569489","","","17","1122","247","x","elianto","#3366ff99"," "," ","1","0","[1646]","1","2","","","1122","132","8","1","win","go","1","0"
"pit-trial","201","1268729","0.0-137.0","battery-v0.2","","""event"",""trial"",""time""
""fullscreenenter"",""1"",""1794""
","
","
","""event"",""trial"",""time""
""fullscreenenter"",""1"",""1794""
","
","","","-1","","","17","1122","247","q","elianto","#f73b6a7A","-1","-1","1","0","[]","0","2","","","1122","133","11","4","lose","no-go","0","0"
"pit-trial","202","1273598","0.0-138.0","battery-v0.2","","""event"",""trial"",""time""
""fullscreenenter"",""1"",""1794""
","
","
","""event"",""trial"",""time""
""fullscreenenter"",""1"",""1794""
","
","","","-1","","","17","1122","247","f","elianto","#3366ff99","-1","-1","1","0","[]","0","2","","","1122","134","9","2","win","no-go","1","0"
"pit-trial","203","1277331","0.0-139.0","battery-v0.2","","""event"",""trial"",""time""
""fullscreenenter"",""1"",""1794""
","
","
","""event"",""trial"",""time""
""fullscreenenter"",""1"",""1794""
","
","","","868.5","","","17","1122","247","n","elianto","#f73b6a7A"," "," ","1","0","[1719.5999999046326]","1","2","","","1122","135","10","3","lose","go","0","0"
"pit-trial","204","1281470","0.0-140.0","battery-v0.2","","""event"",""trial"",""time""
""fullscreenenter"",""1"",""1794""
","
","
","""event"",""trial"",""time""
""fullscreenenter"",""1"",""1794""
","
","","","1278.6000001430511","","","17","1122","247","x","elianto","#3366ff99"," "," ","1","+10","[2131]","1","2","","","1122","136","8","1","win","go","0","0"
"pit-trial","205","1285411","0.0-141.0","battery-v0.2","","""event"",""trial"",""time""
""fullscreenenter"",""1"",""1794""
","
","
","""event"",""trial"",""time""
""fullscreenenter"",""1"",""1794""
","
","","","1074.8999998569489","","","17","1122","247","x","elianto","#3366ff99"," "," ","1","0","[1925.6999998092651]","1","2","","","1122","137","8","1","win","go","1","0"
"pit-trial","206","1289198","0.0-142.0","battery-v0.2","","""event"",""trial"",""time""
""fullscreenenter"",""1"",""1794""
","
","
","""event"",""trial"",""time""
""fullscreenenter"",""1"",""1794""
","
","","","917.1999998092651","","","17","1122","247","n","elianto","#f73b6a7A"," "," ","1","-10","[1770.0999999046326]","1","2","","","1122","138","10","3","lose","go","1","0"
"pit-trial","207","1294067","0.0-143.0","battery-v0.2","","""event"",""trial"",""time""
""fullscreenenter"",""1"",""1794""
","
","
","""event"",""trial"",""time""
""fullscreenenter"",""1"",""1794""
","
","","","-1","","","17","1122","247","f","elianto","#3366ff99","-1","-1","1","+10","[]","0","2","","","1122","139","9","2","win","no-go","0","0"
"pit-trial","208","1298937","0.0-144.0","battery-v0.2","","""event"",""trial"",""time""
""fullscreenenter"",""1"",""1794""
","
","
","""event"",""trial"",""time""
""fullscreenenter"",""1"",""1794""
","
","","","-1","","","17","1122","247","q","elianto","#f73b6a7A","-1","-1","1","0","[]","0","2","","","1122","140","11","4","lose","no-go","0","0"
"pit-instructions","209","1312688","0.0-145.0","battery-v0.2","","""event"",""trial"",""time""
""fullscreenenter"",""1"",""1794""
","
","
","""event"",""trial"",""time""
""fullscreenenter"",""1"",""1794""
","
","","[{""page_index"":0,""viewing_time"":5731.900000095367},{""page_index"":1,""viewing_time"":8010.599999904633}]","13743.5","","","","","","","","","","","","","","","","","","","","","","","","",""
"pit-trial","210","1316333","0.0-146.0","battery-v0.2","","""event"",""trial"",""time""
""fullscreenenter"",""1"",""1794""
","
","
","""event"",""trial"",""time""
""fullscreenenter"",""1"",""1794""
","
","","","782.5","","","17","1122","247","v","elianto","#3366ff99","-1"," ","0","0","[1632.8999998569489]","1","3","","","1122","141","0","2","win","no-go","0","0"
"pit-trial","211","1320196","0.0-147.0","battery-v0.2","","""event"",""trial"",""time""
""fullscreenenter"",""1"",""1794""
","
","
","""event"",""trial"",""time""
""fullscreenenter"",""1"",""1794""
","
","","","1001.9000000953674","","","17","1122","247","d","elianto","#3366ff99"," "," ","1","+10","[1853.6000001430511]","1","3","","","1122","142","2","1","win","go","0","0"
"pit-trial","212","1324264","0.0-148.0","battery-v0.2","","""event"",""trial"",""time""
""fullscreenenter"",""1"",""1794""
","
","
","""event"",""trial"",""time""
""fullscreenenter"",""1"",""1794""
","
","","","1206.2000000476837","","","17","1122","247","k","elianto","#f73b6a7A"," "," ","1","0","[2057.2999999523163]","1","3","","","1122","143","3","3","lose","go","0","0"
"pit-trial","213","1329127","0.0-149.0","battery-v0.2","","""event"",""trial"",""time""
""fullscreenenter"",""1"",""1794""
","
","
","""event"",""trial"",""time""
""fullscreenenter"",""1"",""1794""
","
","","","-1","","","17","1122","247","j","elianto","#3366ff99","-1","-1","1","+10","[]","0","3","","","1122","144","1","2","win","no-go","0","0"
"pit-trial","214","1333987","0.0-150.0","battery-v0.2","","""event"",""trial"",""time""
""fullscreenenter"",""1"",""1794""
","
","
","""event"",""trial"",""time""
""fullscreenenter"",""1"",""1794""
","
","","","-1","","","17","1122","247","v","elianto","#3366ff99","-1","-1","1","+10","[]","0","3","","","1122","145","0","2","win","no-go","0","0"
"pit-trial","215","1337769","0.0-151.0","battery-v0.2","","""event"",""trial"",""time""
""fullscreenenter"",""1"",""1794""
","
","
","""event"",""trial"",""time""
""fullscreenenter"",""1"",""1794""
","
","","","917.6000001430511","","","17","1122","247","k","elianto","#f73b6a7A"," "," ","1","0","[1768.2999999523163]","1","3","","","1122","146","3","3","lose","go","0","0"
"pit-trial","216","1341270","0.0-152.0","battery-v0.2","","""event"",""trial"",""time""
""fullscreenenter"",""1"",""1794""
","
","
","""event"",""trial"",""time""
""fullscreenenter"",""1"",""1794""
","
","","","636.2999999523163","","","17","1122","247","d","elianto","#3366ff99"," "," ","1","+10","[1486.1999998092651]","1","3","","","1122","147","2","1","win","go","0","0"
"pit-trial","217","1344743","0.0-153.0","battery-v0.2","","""event"",""trial"",""time""
""fullscreenenter"",""1"",""1794""
","
","
","""event"",""trial"",""time""
""fullscreenenter"",""1"",""1794""
","
","","","609.3000001907349","","","17","1122","247","j","elianto","#3366ff99","-1"," ","0","+10","[1459.5999999046326]","1","3","","","1122","148","1","2","win","no-go","1","0"
"pit-trial","218","1349612","0.0-154.0","battery-v0.2","","""event"",""trial"",""time""
""fullscreenenter"",""1"",""1794""
","
","
","""event"",""trial"",""time""
""fullscreenenter"",""1"",""1794""
","
","","","-1","","","17","1122","247","v","elianto","#3366ff99","-1","-1","1","+10","[]","0","3","","","1122","149","0","2","win","no-go","0","0"
"pit-trial","219","1353351","0.0-155.0","battery-v0.2","","""event"",""trial"",""time""
""fullscreenenter"",""1"",""1794""
","
","
","""event"",""trial"",""time""
""fullscreenenter"",""1"",""1794""
","
","","","873.7999999523163","","","17","1122","247","k","elianto","#f73b6a7A"," "," ","1","-10","[1726.5]","1","3","","","1122","150","3","3","lose","go","1","0"
"pit-trial","220","1356914","0.0-156.0","battery-v0.2","","""event"",""trial"",""time""
""fullscreenenter"",""1"",""1794""
","
","
","""event"",""trial"",""time""
""fullscreenenter"",""1"",""1794""
","
","","","697.2999999523163","","","17","1122","247","j","elianto","#3366ff99","-1"," ","0","0","[1547.5999999046326]","1","3","","","1122","151","1","2","win","no-go","0","0"
"pit-trial","221","1360471","0.0-157.0","battery-v0.2","","""event"",""trial"",""time""
""fullscreenenter"",""1"",""1794""
","
","
","""event"",""trial"",""time""
""fullscreenenter"",""1"",""1794""
","
","","","690.3999998569489","","","17","1122","247","d","elianto","#3366ff99"," "," ","1","+10","[1542.3999998569489]","1","3","","","1122","152","2","1","win","go","0","0"
"pit-trial","222","1364438","0.0-158.0","battery-v0.2","","""event"",""trial"",""time""
""fullscreenenter"",""1"",""1794""
","
","
","""event"",""trial"",""time""
""fullscreenenter"",""1"",""1794""
","
","","","1100.6000001430511","","","17","1122","247","j","elianto","#3366ff99","-1"," ","0","0","[1951.5]","1","3","","","1122","153","1","2","win","no-go","0","0"
"pit-trial","223","1369313","0.0-159.0","battery-v0.2","","""event"",""trial"",""time""
""fullscreenenter"",""1"",""1794""
","
","
","""event"",""trial"",""time""
""fullscreenenter"",""1"",""1794""
","
","","","-1","","","17","1122","247","v","elianto","#3366ff99","-1","-1","1","+10","[]","0","3","","","1122","154","0","2","win","no-go","0","0"
"pit-trial","224","1372991","0.0-160.0","battery-v0.2","","""event"",""trial"",""time""
""fullscreenenter"",""1"",""1794""
","
","
","""event"",""trial"",""time""
""fullscreenenter"",""1"",""1794""
","
","","","811","","","17","1122","247","k","elianto","#f73b6a7A"," "," ","1","0","[1661.4000000953674]","1","3","","","1122","155","3","3","lose","go","0","0"
"pit-trial","225","1376374","0.0-161.0","battery-v0.2","","""event"",""trial"",""time""
""fullscreenenter"",""1"",""1794""
","
","
","""event"",""trial"",""time""
""fullscreenenter"",""1"",""1794""
","
","","","516.5","","","17","1122","247","d","elianto","#3366ff99"," "," ","1","+10","[1369.1000001430511]","1","3","","","1122","156","2","1","win","go","0","0"
"pit-trial","226","1379880","0.0-162.0","battery-v0.2","","""event"",""trial"",""time""
""fullscreenenter"",""1"",""1794""
","
","
","""event"",""trial"",""time""
""fullscreenenter"",""1"",""1794""
","
","","","637.8000001907349","","","17","1122","247","d","elianto","#3366ff99"," "," ","1","+10","[1489.7000000476837]","1","3","","","1122","157","2","1","win","go","0","0"
"pit-trial","227","1383508","0.0-163.0","battery-v0.2","","""event"",""trial"",""time""
""fullscreenenter"",""1"",""1794""
","
","
","""event"",""trial"",""time""
""fullscreenenter"",""1"",""1794""
","
","","","763.2999999523163","","","17","1122","247","k","elianto","#f73b6a7A"," "," ","1","-10","[1616.2000000476837]","1","3","","","1122","158","3","3","lose","go","1","0"
"pit-trial","228","1387440","0.0-164.0","battery-v0.2","","""event"",""trial"",""time""
""fullscreenenter"",""1"",""1794""
","
","
","""event"",""trial"",""time""
""fullscreenenter"",""1"",""1794""
","
","","","1066.4000000953674","","","17","1122","247","j","elianto","#3366ff99","-1"," ","0","+10","[1917.5]","1","3","","","1122","159","1","2","win","no-go","1","0"
"pit-trial","229","1392311","0.0-165.0","battery-v0.2","","""event"",""trial"",""time""
""fullscreenenter"",""1"",""1794""
","
","
","""event"",""trial"",""time""
""fullscreenenter"",""1"",""1794""
","
","","","-1","","","17","1122","247","v","elianto","#3366ff99","-1","-1","1","0","[]","0","3","","","1122","160","0","2","win","no-go","1","0"
"pit-trial","230","1397176","0.0-166.0","battery-v0.2","","""event"",""trial"",""time""
""fullscreenenter"",""1"",""1794""
","
","
","""event"",""trial"",""time""
""fullscreenenter"",""1"",""1794""
","
","","","-1","","","17","1122","247","v","elianto","#3366ff99","-1","-1","1","+10","[]","0","3","","","1122","161","0","2","win","no-go","0","0"
"pit-trial","231","1400861","0.0-167.0","battery-v0.2","","""event"",""trial"",""time""
""fullscreenenter"",""1"",""1794""
","
","
","""event"",""trial"",""time""
""fullscreenenter"",""1"",""1794""
","
","","","824.9000000953674","","","17","1122","247","k","elianto","#f73b6a7A"," "," ","1","0","[1675.4000000953674]","1","3","","","1122","162","3","3","lose","go","0","0"
"pit-trial","232","1404350","0.0-168.0","battery-v0.2","","""event"",""trial"",""time""
""fullscreenenter"",""1"",""1794""
","
","
","""event"",""trial"",""time""
""fullscreenenter"",""1"",""1794""
","
","","","626.0999999046326","","","17","1122","247","j","elianto","#3366ff99","-1"," ","0","0","[1476.2999999523163]","1","3","","","1122","163","1","2","win","no-go","0","0"
"pit-trial","233","1407768","0.0-169.0","battery-v0.2","","""event"",""trial"",""time""
""fullscreenenter"",""1"",""1794""
","
","
","""event"",""trial"",""time""
""fullscreenenter"",""1"",""1794""
","
","","","554.7999999523163","","","17","1122","247","d","elianto","#3366ff99"," "," ","1","+10","[1407.2999999523163]","1","3","","","1122","164","2","1","win","go","0","0"
"pit-trial","234","1411470","0.0-170.0","battery-v0.2","","""event"",""trial"",""time""
""fullscreenenter"",""1"",""1794""
","
","
","""event"",""trial"",""time""
""fullscreenenter"",""1"",""1794""
","
","","","835.5","","","17","1122","247","k","elianto","#f73b6a7A"," "," ","1","-10","[1688.6000001430511]","1","3","","","1122","165","3","3","lose","go","1","0"
"pit-trial","235","1414959","0.0-171.0","battery-v0.2","","""event"",""trial"",""time""
""fullscreenenter"",""1"",""1794""
","
","
","""event"",""trial"",""time""
""fullscreenenter"",""1"",""1794""
","
","","","621.8999998569489","","","17","1122","247","d","elianto","#3366ff99"," "," ","1","+10","[1474.2999999523163]","1","3","","","1122","166","2","1","win","go","0","0"
"pit-trial","236","1419828","0.0-172.0","battery-v0.2","","""event"",""trial"",""time""
""fullscreenenter"",""1"",""1794""
","
","
","""event"",""trial"",""time""
""fullscreenenter"",""1"",""1794""
","
","","","-1","","","17","1122","247","v","elianto","#3366ff99","-1","-1","1","+10","[]","0","3","","","1122","167","0","2","win","no-go","0","0"
"pit-trial","237","1423430","0.0-173.0","battery-v0.2","","""event"",""trial"",""time""
""fullscreenenter"",""1"",""1794""
","
","
","""event"",""trial"",""time""
""fullscreenenter"",""1"",""1794""
","
","","","736","","","17","1122","247","j","elianto","#3366ff99","-1"," ","0","0","[1586.7999999523163]","1","3","","","1122","168","1","2","win","no-go","0","0"
"pit-trial","238","1427098","0.0-174.0","battery-v0.2","","""event"",""trial"",""time""
""fullscreenenter"",""1"",""1794""
","
","
","""event"",""trial"",""time""
""fullscreenenter"",""1"",""1794""
","
","","","804.2000000476837","","","17","1122","247","d","elianto","#3366ff99"," "," ","1","0","[1655.0999999046326]","1","3","","","1122","169","2","1","win","go","1","0"
"pit-trial","239","1430601","0.0-175.0","battery-v0.2","","""event"",""trial"",""time""
""fullscreenenter"",""1"",""1794""
","
","
","""event"",""trial"",""time""
""fullscreenenter"",""1"",""1794""
","
","","","639.7999999523163","","","17","1122","247","j","elianto","#3366ff99","-1"," ","0","0","[1491.5]","1","3","","","1122","170","1","2","win","no-go","0","0"
"pit-trial","240","1435471","0.0-176.0","battery-v0.2","","""event"",""trial"",""time""
""fullscreenenter"",""1"",""1794""
","
","
","""event"",""trial"",""time""
""fullscreenenter"",""1"",""1794""
","
","","","-1","","","17","1122","247","v","elianto","#3366ff99","-1","-1","1","+10","[]","0","3","","","1122","171","0","2","win","no-go","0","0"
"pit-trial","241","1439508","0.0-177.0","battery-v0.2","","""event"",""trial"",""time""
""fullscreenenter"",""1"",""1794""
","
","
","""event"",""trial"",""time""
""fullscreenenter"",""1"",""1794""
","
","","","1174.2999999523163","","","17","1122","247","k","elianto","#f73b6a7A"," "," ","1","0","[2026.5]","1","3","","","1122","172","3","3","lose","go","0","0"
"pit-trial","242","1444378","0.0-178.0","battery-v0.2","","""event"",""trial"",""time""
""fullscreenenter"",""1"",""1794""
","
","
","""event"",""trial"",""time""
""fullscreenenter"",""1"",""1794""
","
","","","-1","","","17","1122","247","e","elianto","#f73b6a7A","-1","-1","1","0","[]","0","3","","","1122","173","4","4","lose","no-go","0","0"
"pit-trial","243","1447871","0.0-179.0","battery-v0.2","","""event"",""trial"",""time""
""fullscreenenter"",""1"",""1794""
","
","
","""event"",""trial"",""time""
""fullscreenenter"",""1"",""1794""
","
","","","628.5","","","17","1122","247","d","elianto","#3366ff99"," "," ","1","+10","[1479.6000001430511]","1","3","","","1122","174","2","1","win","go","0","0"
"pit-trial","244","1452740","0.0-180.0","battery-v0.2","","""event"",""trial"",""time""
""fullscreenenter"",""1"",""1794""
","
","
","""event"",""trial"",""time""
""fullscreenenter"",""1"",""1794""
","
","","","-1","","","17","1122","247","v","elianto","#3366ff99","-1","-1","1","0","[]","0","3","","","1122","175","0","2","win","no-go","1","0"
"pit-trial","245","1457610","0.0-181.0","battery-v0.2","","""event"",""trial"",""time""
""fullscreenenter"",""1"",""1794""
","
","
","""event"",""trial"",""time""
""fullscreenenter"",""1"",""1794""
","
","","","-1","","","17","1122","247","w","elianto","#f73b6a7A"," ","-1","0","0","[3098.600000143051]","1","3","","","1122","176","5","3","lose","go","1","0"
"pit-trial","246","1461183","0.0-182.0","battery-v0.2","","""event"",""trial"",""time""
""fullscreenenter"",""1"",""1794""
","
","
","""event"",""trial"",""time""
""fullscreenenter"",""1"",""1794""
","
","","","708.2000000476837","","","17","1122","247","d","elianto","#3366ff99"," "," ","1","0","[1558.6999998092651]","1","3","","","1122","177","2","1","win","go","1","0"
"pit-trial","247","1466047","0.0-183.0","battery-v0.2","","""event"",""trial"",""time""
""fullscreenenter"",""1"",""1794""
","
","
","""event"",""trial"",""time""
""fullscreenenter"",""1"",""1794""
","
","","","-1","","","17","1122","247","v","elianto","#3366ff99","-1","-1","1","+10","[]","0","3","","","1122","178","0","2","win","no-go","0","0"
"pit-trial","248","1470916","0.0-184.0","battery-v0.2","","""event"",""trial"",""time""
""fullscreenenter"",""1"",""1794""
","
","
","""event"",""trial"",""time""
""fullscreenenter"",""1"",""1794""
","
","","","-1","","","17","1122","247","e","elianto","#f73b6a7A","-1","-1","1","0","[]","0","3","","","1122","179","4","4","lose","no-go","0","0"
"pit-trial","249","1475786","0.0-185.0","battery-v0.2","","""event"",""trial"",""time""
""fullscreenenter"",""1"",""1794""
","
","
","""event"",""trial"",""time""
""fullscreenenter"",""1"",""1794""
","
","","","-1","","","17","1122","247","w","elianto","#f73b6a7A"," ","-1","0","-10","[]","0","3","","","1122","180","5","3","lose","go","0","0"
"pit-trial","250","1480655","0.0-186.0","battery-v0.2","","""event"",""trial"",""time""
""fullscreenenter"",""1"",""1794""
","
","
","""event"",""trial"",""time""
""fullscreenenter"",""1"",""1794""
","
","","","-1","","","17","1122","247","e","elianto","#f73b6a7A","-1","-1","1","0","[]","0","3","","","1122","181","4","4","lose","no-go","0","0"
"pit-trial","251","1484180","0.0-187.0","battery-v0.2","","""event"",""trial"",""time""
""fullscreenenter"",""1"",""1794""
","
","
","""event"",""trial"",""time""
""fullscreenenter"",""1"",""1794""
","
","","","660.2000000476837","","","17","1122","247","d","elianto","#3366ff99"," "," ","1","+10","[1510.9000000953674]","1","3","","","1122","182","2","1","win","go","0","0"
"pit-trial","252","1489044","0.0-188.0","battery-v0.2","","""event"",""trial"",""time""
""fullscreenenter"",""1"",""1794""
","
","
","""event"",""trial"",""time""
""fullscreenenter"",""1"",""1794""
","
","","","-1","","","17","1122","247","s","elianto","#3366ff99","-1","-1","1","+10","[]","0","3","","","1122","183","6","2","win","no-go","0","0"
"pit-trial","253","1493909","0.0-189.0","battery-v0.2","","""event"",""trial"",""time""
""fullscreenenter"",""1"",""1794""
","
","
","""event"",""trial"",""time""
""fullscreenenter"",""1"",""1794""
","
","","","-1","","","17","1122","247","w","elianto","#f73b6a7A"," ","-1","0","-10","[]","0","3","","","1122","184","5","3","lose","go","0","0"
"pit-trial","254","1498778","0.0-190.0","battery-v0.2","","""event"",""trial"",""time""
""fullscreenenter"",""1"",""1794""
","
","
","""event"",""trial"",""time""
""fullscreenenter"",""1"",""1794""
","
","","","-1","","","17","1122","247","e","elianto","#f73b6a7A","-1","-1","1","0","[]","0","3","","","1122","185","4","4","lose","no-go","0","0"
"pit-trial","255","1502618","0.0-191.0","battery-v0.2","","""event"",""trial"",""time""
""fullscreenenter"",""1"",""1794""
","
","
","""event"",""trial"",""time""
""fullscreenenter"",""1"",""1794""
","
","","","972.5","","","17","1122","247","w","elianto","#f73b6a7A"," "," ","1","0","[1823.7000000476837]","1","3","","","1122","186","5","3","lose","go","0","0"
"pit-trial","256","1507487","0.0-192.0","battery-v0.2","","""event"",""trial"",""time""
""fullscreenenter"",""1"",""1794""
","
","
","""event"",""trial"",""time""
""fullscreenenter"",""1"",""1794""
","
","","","-1","","","17","1122","247","s","elianto","#3366ff99","-1","-1","1","+10","[]","0","3","","","1122","187","6","2","win","no-go","0","0"
"pit-trial","257","1511070","0.0-193.0","battery-v0.2","","""event"",""trial"",""time""
""fullscreenenter"",""1"",""1794""
","
","
","""event"",""trial"",""time""
""fullscreenenter"",""1"",""1794""
","
","","","715.9000000953674","","","17","1122","247","d","elianto","#3366ff99"," "," ","1","+10","[1568.2000000476837]","1","3","","","1122","188","2","1","win","go","0","0"
"pit-trial","258","1515935","0.0-194.0","battery-v0.2","","""event"",""trial"",""time""
""fullscreenenter"",""1"",""1794""
","
","
","""event"",""trial"",""time""
""fullscreenenter"",""1"",""1794""
","
","","","-1","","","17","1122","247","e","elianto","#f73b6a7A","-1","-1","1","0","[]","0","3","","","1122","189","4","4","lose","no-go","0","0"
"pit-trial","259","1519796","0.0-195.0","battery-v0.2","","""event"",""trial"",""time""
""fullscreenenter"",""1"",""1794""
","
","
","""event"",""trial"",""time""
""fullscreenenter"",""1"",""1794""
","
","","","994.7000000476837","","","17","1122","247","w","elianto","#f73b6a7A"," "," ","1","0","[1847.5999999046326]","1","3","","","1122","190","5","3","lose","go","0","0"
"pit-trial","260","1524666","0.0-196.0","battery-v0.2","","""event"",""trial"",""time""
""fullscreenenter"",""1"",""1794""
","
","
","""event"",""trial"",""time""
""fullscreenenter"",""1"",""1794""
","
","","","-1","","","17","1122","247","s","elianto","#3366ff99","-1","-1","1","+10","[]","0","3","","","1122","191","6","2","win","no-go","0","0"
"pit-trial","261","1529535","0.0-197.0","battery-v0.2","","""event"",""trial"",""time""
""fullscreenenter"",""1"",""1794""
","
","
","""event"",""trial"",""time""
""fullscreenenter"",""1"",""1794""
","
","","","-1","","","17","1122","247","p","elianto","#f73b6a7A","-1","-1","1","0","[]","0","3","","","1122","192","7","4","lose","no-go","0","0"
"pit-trial","262","1534405","0.0-198.0","battery-v0.2","","""event"",""trial"",""time""
""fullscreenenter"",""1"",""1794""
","
","
","""event"",""trial"",""time""
""fullscreenenter"",""1"",""1794""
","
","","","-1","","","17","1122","247","s","elianto","#3366ff99","-1","-1","1","+10","[]","0","3","","","1122","193","6","2","win","no-go","0","0"
"pit-trial","263","1539274","0.0-199.0","battery-v0.2","","""event"",""trial"",""time""
""fullscreenenter"",""1"",""1794""
","
","
","""event"",""trial"",""time""
""fullscreenenter"",""1"",""1794""
","
","","","-1","","","17","1122","247","e","elianto","#f73b6a7A","-1","-1","1","0","[]","0","3","","","1122","194","4","4","lose","no-go","0","0"
"pit-trial","264","1544138","0.0-200.0","battery-v0.2","","""event"",""trial"",""time""
""fullscreenenter"",""1"",""1794""
","
","
","""event"",""trial"",""time""
""fullscreenenter"",""1"",""1794""
","
","","","-1","","","17","1122","247","p","elianto","#f73b6a7A","-1","-1","1","0","[]","0","3","","","1122","195","7","4","lose","no-go","0","0"
