"trial_type","trial_index","time_elapsed","internal_node_id","task_version","view_history","rt","rune","rune_set","hex","correct","choice","accuracy","outcome","keys","total_keys","block","practice","value"
"pavlovia","0","18","0.0-0.0","battery-v0.2","","","","","","","","","","","","","",""
"pit-instructions","1","8355","0.0-1.0-0.0","battery-v0.2","[{""page_index"":0,""viewing_time"":2291.5},{""page_index"":1,""viewing_time"":438.5},{""page_index"":2,""viewing_time"":336},{""page_index"":3,""viewing_time"":266},{""page_index"":4,""viewing_time"":1273.5},{""page_index"":3,""viewing_time"":1561.8999999999069},{""page_index"":4,""viewing_time"":352.39999999990687},{""page_index"":5,""viewing_time"":359.5},{""page_index"":6,""viewing_time"":304.10000000009313},{""page_index"":7,""viewing_time"":486.6999999997206},{""page_index"":8,""viewing_time"":343.40000000037253},{""page_index"":9,""viewing_time"":320.5}]","8335.799999999814","","","","","","","","","","","",""
"pit-trial","2","13164","0.0-1.0-1.0-0.0","battery-v0.2","","1300.6000000000931","&#9744;","elianto","#3366ff99","32","32","1","+10","2800.6999999997206","1","0","1",""
"pit-trial","3","16899","0.0-1.0-1.1-0.1","battery-v0.2","","223.10000000009313","&#9744;","elianto","#3366ff99","32","32","1","+10","1723.1999999997206","1","0","1",""
"pit-trial","4","22502","0.0-1.0-1.2-0.2","battery-v0.2","","-1","&#9744;","elianto","#3366ff99","32","-1","0","0","1374.5999999996275","1","0","1",""
"pit-trial","5","29501","0.0-1.0-1.3-0.3","battery-v0.2","","-1","&#9744;","elianto","#3366ff99","32","-1","0","0","","0","0","1",""
"pit-trial","6","36501","0.0-1.0-1.4-0.4","battery-v0.2","","-1","&#9744;","elianto","#3366ff99","32","-1","0","0","","0","0","1",""
"pit-trial","7","43501","0.0-1.0-1.5-0.5","battery-v0.2","","-1","&#9744;","elianto","#3366ff99","32","-1","0","0","","0","0","1",""
"pit-trial","8","50501","0.0-1.0-1.6-0.6","battery-v0.2","","-1","&#9744;","elianto","#3366ff99","32","-1","0","0","","0","0","1",""
"pit-trial","9","57501","0.0-1.0-1.7-0.7","battery-v0.2","","-1","&#9744;","elianto","#3366ff99","32","-1","0","0","","0","0","1",""
"pit-trial","10","64501","0.0-1.0-1.8-0.8","battery-v0.2","","-1","&#9744;","elianto","#3366ff99","32","-1","0","0","","0","0","1",""
"pit-trial","11","71501","0.0-1.0-1.9-0.9","battery-v0.2","","-1","&#9744;","elianto","#3366ff99","32","-1","0","0","","0","0","1",""
"pit-trial","12","78501","0.0-1.0-1.10-0.10","battery-v0.2","","-1","&#9744;","elianto","#3366ff99","32","-1","0","0","","0","0","1",""
"pit-trial","13","85501","0.0-1.0-1.11-0.11","battery-v0.2","","-1","&#9744;","elianto","#3366ff99","32","-1","0","0","","0","0","1",""
"pit-trial","14","92501","0.0-1.0-1.12-0.12","battery-v0.2","","-1","&#9744;","elianto","#3366ff99","32","-1","0","0","","0","0","1",""
"pit-trial","15","99502","0.0-1.0-1.13-0.13","battery-v0.2","","-1","&#9744;","elianto","#3366ff99","32","-1","0","0","","0","0","1",""
"pit-trial","16","106501","0.0-1.0-1.14-0.14","battery-v0.2","","-1","&#9744;","elianto","#3366ff99","32","-1","0","0","","0","0","1",""
"pit-trial","17","113501","0.0-1.0-1.15-0.15","battery-v0.2","","-1","&#9744;","elianto","#3366ff99","32","-1","0","0","","0","0","1",""
"pit-trial","18","120501","0.0-1.0-1.16-0.16","battery-v0.2","","-1","&#9744;","elianto","#3366ff99","32","-1","0","0","","0","0","1",""
"pit-trial","19","127501","0.0-1.0-1.17-0.17","battery-v0.2","","-1","&#9744;","elianto","#3366ff99","32","-1","0","0","","0","0","1",""
"pit-trial","20","134501","0.0-1.0-1.18-0.18","battery-v0.2","","-1","&#9744;","elianto","#3366ff99","32","-1","0","0","","0","0","1",""
"pit-trial","21","141501","0.0-1.0-1.19-0.19","battery-v0.2","","-1","&#9744;","elianto","#3366ff99","32","-1","0","0","","0","0","1",""
"pit-trial","22","148501","0.0-1.0-1.20-0.20","battery-v0.2","","-1","&#9744;","elianto","#3366ff99","32","-1","0","0","","0","0","1",""
"pit-trial","23","155501","0.0-1.0-1.21-0.21","battery-v0.2","","-1","&#9744;","elianto","#3366ff99","32","-1","0","0","","0","0","1",""
"pit-trial","24","162501","0.0-1.0-1.22-0.22","battery-v0.2","","-1","&#9744;","elianto","#3366ff99","32","-1","0","0","","0","0","1",""
"pit-trial","25","169501","0.0-1.0-1.23-0.23","battery-v0.2","","-1","&#9744;","elianto","#3366ff99","32","-1","0","0","","0","0","1",""
"pit-trial","26","176501","0.0-1.0-1.24-0.24","battery-v0.2","","-1","&#9744;","elianto","#3366ff99","32","-1","0","0","","0","0","1",""
"pit-trial","27","183501","0.0-1.0-1.25-0.25","battery-v0.2","","-1","&#9744;","elianto","#3366ff99","32","-1","0","0","","0","0","1",""
"pit-trial","28","190501","0.0-1.0-1.26-0.26","battery-v0.2","","-1","&#9744;","elianto","#3366ff99","32","-1","0","0","","0","0","1",""
"pit-trial","29","197501","0.0-1.0-1.27-0.27","battery-v0.2","","-1","&#9744;","elianto","#3366ff99","32","-1","0","0","","0","0","1",""
"pit-trial","30","204501","0.0-1.0-1.28-0.28","battery-v0.2","","-1","&#9744;","elianto","#3366ff99","32","-1","0","0","","0","0","1",""
"pit-trial","31","211501","0.0-1.0-1.29-0.29","battery-v0.2","","-1","&#9744;","elianto","#3366ff99","32","-1","0","0","","0","0","1",""
"pit-trial","32","218501","0.0-1.0-1.30-0.30","battery-v0.2","","-1","&#9744;","elianto","#3366ff99","32","-1","0","0","","0","0","1",""
"pit-trial","33","225501","0.0-1.0-1.31-0.31","battery-v0.2","","-1","&#9744;","elianto","#3366ff99","32","-1","0","0","","0","0","1",""
"pit-trial","34","232501","0.0-1.0-1.32-0.32","battery-v0.2","","-1","&#9744;","elianto","#3366ff99","32","-1","0","0","","0","0","1",""
"pit-trial","35","239501","0.0-1.0-1.33-0.33","battery-v0.2","","-1","&#9744;","elianto","#3366ff99","32","-1","0","0","","0","0","1",""
"pit-trial","36","246501","0.0-1.0-1.34-0.34","battery-v0.2","","-1","&#9744;","elianto","#3366ff99","32","-1","0","0","","0","0","1",""
"pit-trial","37","253501","0.0-1.0-1.35-0.35","battery-v0.2","","-1","&#9744;","elianto","#3366ff99","32","-1","0","0","","0","0","1",""
"pit-trial","38","260501","0.0-1.0-1.36-0.36","battery-v0.2","","-1","&#9744;","elianto","#3366ff99","32","-1","0","0","","0","0","1",""
"pit-trial","39","267501","0.0-1.0-1.37-0.37","battery-v0.2","","-1","&#9744;","elianto","#3366ff99","32","-1","0","0","","0","0","1",""
"pit-trial","40","274501","0.0-1.0-1.38-0.38","battery-v0.2","","-1","&#9744;","elianto","#3366ff99","32","-1","0","0","","0","0","1",""
"pit-trial","41","281501","0.0-1.0-1.39-0.39","battery-v0.2","","-1","&#9744;","elianto","#3366ff99","32","-1","0","0","","0","0","1",""
"pit-trial","42","288501","0.0-1.0-1.40-0.40","battery-v0.2","","-1","&#9744;","elianto","#3366ff99","32","-1","0","0","","0","0","1",""
"pit-trial","43","295501","0.0-1.0-1.41-0.41","battery-v0.2","","-1","&#9744;","elianto","#3366ff99","32","-1","0","0","","0","0","1",""
"pit-trial","44","302501","0.0-1.0-1.42-0.42","battery-v0.2","","-1","&#9744;","elianto","#3366ff99","32","-1","0","0","","0","0","1",""
"pit-trial","45","309501","0.0-1.0-1.43-0.43","battery-v0.2","","-1","&#9744;","elianto","#3366ff99","32","-1","0","0","","0","0","1",""
"pit-trial","46","316501","0.0-1.0-1.44-0.44","battery-v0.2","","-1","&#9744;","elianto","#3366ff99","32","-1","0","0","","0","0","1",""
"pit-trial","47","336501","0.0-1.0-1.45-0.45","battery-v0.2","","-1","&#9744;","elianto","#3366ff99","32","-1","0","0","","0","0","1",""
"pit-trial","48","456501","0.0-1.0-1.46-0.46","battery-v0.2","","-1","&#9744;","elianto","#3366ff99","32","-1","0","0","","0","0","1",""
"pit-trial","49","576501","0.0-1.0-1.47-0.47","battery-v0.2","","-1","&#9744;","elianto","#3366ff99","32","-1","0","0","","0","0","1",""
"pit-trial","50","696501","0.0-1.0-1.48-0.48","battery-v0.2","","-1","&#9744;","elianto","#3366ff99","32","-1","0","0","","0","0","1",""
"pit-trial","51","816503","0.0-1.0-1.49-0.49","battery-v0.2","","-1","&#9744;","elianto","#3366ff99","32","-1","0","0","","0","0","1",""
"pit-trial","52","936501","0.0-1.0-1.50-0.50","battery-v0.2","","-1","&#9744;","elianto","#3366ff99","32","-1","0","0","","0","0","1",""
"pit-trial","53","1056501","0.0-1.0-1.51-0.51","battery-v0.2","","-1","&#9744;","elianto","#3366ff99","32","-1","0","0","","0","0","1",""
"pit-trial","54","1176501","0.0-1.0-1.52-0.52","battery-v0.2","","-1","&#9744;","elianto","#3366ff99","32","-1","0","0","","0","0","1",""
"pit-trial","55","1296501","0.0-1.0-1.53-0.53","battery-v0.2","","-1","&#9744;","elianto","#3366ff99","32","-1","0","0","","0","0","1",""
"pit-trial","56","1416501","0.0-1.0-1.54-0.54","battery-v0.2","","-1","&#9744;","elianto","#3366ff99","32","-1","0","0","","0","0","1",""
"pit-trial","57","1536501","0.0-1.0-1.55-0.55","battery-v0.2","","-1","&#9744;","elianto","#3366ff99","32","-1","0","0","","0","0","1",""
"pit-trial","58","1656501","0.0-1.0-1.56-0.56","battery-v0.2","","-1","&#9744;","elianto","#3366ff99","32","-1","0","0","","0","0","1",""
"pit-trial","59","1750956","0.0-1.0-1.57-0.57","battery-v0.2","","-1","&#9744;","elianto","#3366ff99","32","-1","0","0","","0","0","1",""
"pit-trial","60","1756458","0.0-1.0-1.58-0.58","battery-v0.2","","-1","&#9744;","elianto","#3366ff99","32","-1","0","0","","0","0","1",""
"pit-trial","61","1761961","0.0-1.0-1.59-0.59","battery-v0.2","","-1","&#9744;","elianto","#3366ff99","32","-1","0","0","","0","0","1",""
"pit-trial","62","1767465","0.0-1.0-1.60-0.60","battery-v0.2","","-1","&#9744;","elianto","#3366ff99","32","-1","0","0","","0","0","1",""
"call-function","63","1767473","0.0-1.0-2.0","battery-v0.2","","","","","","","","","","","","","",""
