"trial_type","trial_index","time_elapsed","internal_node_id","task_version","subject_id","interactions","blur_events","focus_events","fullscreenenter_events","fullscreenexit_events","success","view_history","rt","responses","num_errors","age","subject","participantId","rune","rune_set","hex","correct","choice","accuracy","outcome","keys","total_keys","block","practice","value","sub","trial","stimulus","robot","valence","action","sham","browser_interactions"
"pavlovia","0","15","0.0-0.0","battery-v0.2","","""event"",""trial"",""time""
""fullscreenenter"",""1"",""2072""
","
","
","""event"",""trial"",""time""
""fullscreenenter"",""1"",""2072""
","
","","","","","","","","","","","","","","","","","","","","","","","","","","","",""
"fullscreen","1","3061","0.0-1.0","battery-v0.2","","""event"",""trial"",""time""
""fullscreenenter"",""1"",""2072""
","
","
","""event"",""trial"",""time""
""fullscreenenter"",""1"",""2072""
","
","true","","","","","","","","","","","","","","","","","","","","","","","","","","",""
"pit-instructions","2","6741","0.0-2.0-0.0","battery-v0.2","","""event"",""trial"",""time""
""fullscreenenter"",""1"",""2072""
","
","
","""event"",""trial"",""time""
""fullscreenenter"",""1"",""2072""
","
","","[{""page_index"":0,""viewing_time"":3669.7000000178814}]","3671.800000011921","","","","","","","","","","","","","","","","","","","","","","","","",""
"pit-comprehension","3","10291","0.0-2.0-1.0-0.0","battery-v0.2","","""event"",""trial"",""time""
""fullscreenenter"",""1"",""2072""
","
","
","""event"",""trial"",""time""
""fullscreenenter"",""1"",""2072""
","
","","","3543.199999988079","[""shark""]","0","16","1286","965","","","","","","","","","","","","","","","","","","","",""
"pit-instructions","4","13941","0.0-2.0-1.0-1.0","battery-v0.2","","""event"",""trial"",""time""
""fullscreenenter"",""1"",""2072""
","
","
","""event"",""trial"",""time""
""fullscreenenter"",""1"",""2072""
","
","","[{""page_index"":0,""viewing_time"":3641.7000000178814}]","3643","","","","","","","","","","","","","","","","","","","","","","","","",""
"pit-comprehension","5","17695","0.0-2.0-2.0-0.0","battery-v0.2","","""event"",""trial"",""time""
""fullscreenenter"",""1"",""2072""
","
","
","""event"",""trial"",""time""
""fullscreenenter"",""1"",""2072""
","
","","","3744.2000000178814","[""tiger""]","0","16","1286","965","","","","","","","","","","","","","","","","","","","",""
"pit-instructions","6","20784","0.0-2.0-2.0-1.0","battery-v0.2","","""event"",""trial"",""time""
""fullscreenenter"",""1"",""2072""
","
","
","""event"",""trial"",""time""
""fullscreenenter"",""1"",""2072""
","
","","[{""page_index"":0,""viewing_time"":3082}]","3083.0999999940395","","","","","","","","","","","","","","","","","","","","","","","","",""
"pit-instructions","7","111511","0.0-2.0-3.0","battery-v0.2","","""event"",""trial"",""time""
""fullscreenenter"",""1"",""2072""
","
","
","""event"",""trial"",""time""
""fullscreenenter"",""1"",""2072""
","
","","[{""page_index"":0,""viewing_time"":7739.5},{""page_index"":1,""viewing_time"":6929.4000000059605},{""page_index"":2,""viewing_time"":6209},{""page_index"":3,""viewing_time"":5691},{""page_index"":4,""viewing_time"":5418.699999988079},{""page_index"":5,""viewing_time"":5156.300000011921},{""page_index"":6,""viewing_time"":6491},{""page_index"":7,""viewing_time"":6209.299999982119},{""page_index"":8,""viewing_time"":6345.800000011921},{""page_index"":9,""viewing_time"":8002.0999999940395},{""page_index"":10,""viewing_time"":7409.5},{""page_index"":11,""viewing_time"":6862.0999999940395},{""page_index"":12,""viewing_time"":7157.300000011921},{""page_index"":13,""viewing_time"":5096.9000000059605}]","90719.5","","","","","","","","","","","","","","","","","","","","","","","","",""
"pit-trial","8","114836","0.0-2.0-4.0-0.0","battery-v0.2","","""event"",""trial"",""time""
""fullscreenenter"",""1"",""2072""
","
","
","""event"",""trial"",""time""
""fullscreenenter"",""1"",""2072""
","
","","","462.2000000178814","","","16","1286","965","&#9784;","elianto","#FFFFF080"," "," ","1","&#10004","[1317.5999999940395]","1","0","0","","","","","","","","",""
"pit-trial","9","117956","0.0-2.0-4.1-0.1","battery-v0.2","","""event"",""trial"",""time""
""fullscreenenter"",""1"",""2072""
","
","
","""event"",""trial"",""time""
""fullscreenenter"",""1"",""2072""
","
","","","263","","","16","1286","965","&#9784;","elianto","#FFFFF080"," "," ","1","&#10004","[1113.4000000059605]","1","0","0","","","","","","","","",""
"pit-trial","10","121012","0.0-2.0-4.2-0.2","battery-v0.2","","""event"",""trial"",""time""
""fullscreenenter"",""1"",""2072""
","
","
","""event"",""trial"",""time""
""fullscreenenter"",""1"",""2072""
","
","","","199.19999998807907","","","16","1286","965","&#9784;","elianto","#FFFFF080"," "," ","1","&#10004","[1049.699999988079]","1","0","0","","","","","","","","",""
"pit-trial","11","123969","0.0-2.0-4.3-0.3","battery-v0.2","","""event"",""trial"",""time""
""fullscreenenter"",""1"",""2072""
","
","
","""event"",""trial"",""time""
""fullscreenenter"",""1"",""2072""
","
","","","101.7000000178814","","","16","1286","965","&#9784;","elianto","#FFFFF080"," "," ","1","&#10004","[952.1000000238419]","1","0","0","","","","","","","","",""
"pit-trial","12","127064","0.0-2.0-4.4-0.4","battery-v0.2","","""event"",""trial"",""time""
""fullscreenenter"",""1"",""2072""
","
","
","""event"",""trial"",""time""
""fullscreenenter"",""1"",""2072""
","
","","","238.5","","","16","1286","965","&#9784;","elianto","#FFFFF080"," "," ","1","&#10004","[1088.5]","1","0","0","","","","","","","","",""
"pit-instructions","13","147803","0.0-2.0-5.0","battery-v0.2","","""event"",""trial"",""time""
""fullscreenenter"",""1"",""2072""
","
","
","""event"",""trial"",""time""
""fullscreenenter"",""1"",""2072""
","
","","[{""page_index"":0,""viewing_time"":4547},{""page_index"":1,""viewing_time"":5809.5999999940395},{""page_index"":2,""viewing_time"":4719.800000011921},{""page_index"":3,""viewing_time"":5655.299999982119}]","20733.40000000596","","","","","","","","","","","","","","","","","","","","","","","","",""
"pit-trial","14","152659","0.0-2.0-6.0-0.0","battery-v0.2","","""event"",""trial"",""time""
""fullscreenenter"",""1"",""2072""
","
","
","""event"",""trial"",""time""
""fullscreenenter"",""1"",""2072""
","
","","","-1","","","16","1286","965","&#9854;","elianto","#FFFFF080","-1","-1","1","&#10004","[]","0","0","1","","","","","","","","",""
"pit-trial","15","157517","0.0-2.0-6.1-0.1","battery-v0.2","","""event"",""trial"",""time""
""fullscreenenter"",""1"",""2072""
","
","
","""event"",""trial"",""time""
""fullscreenenter"",""1"",""2072""
","
","","","-1","","","16","1286","965","&#9854;","elianto","#FFFFF080","-1","-1","1","&#10004","[]","0","0","1","","","","","","","","",""
"pit-trial","16","162373","0.0-2.0-6.2-0.2","battery-v0.2","","""event"",""trial"",""time""
""fullscreenenter"",""1"",""2072""
","
","
","""event"",""trial"",""time""
""fullscreenenter"",""1"",""2072""
","
","","","-1","","","16","1286","965","&#9854;","elianto","#FFFFF080","-1","-1","1","&#10004","[]","0","0","1","","","","","","","","",""
"pit-trial","17","167230","0.0-2.0-6.3-0.3","battery-v0.2","","""event"",""trial"",""time""
""fullscreenenter"",""1"",""2072""
","
","
","""event"",""trial"",""time""
""fullscreenenter"",""1"",""2072""
","
","","","-1","","","16","1286","965","&#9854;","elianto","#FFFFF080","-1","-1","1","&#10004","[]","0","0","1","","","","","","","","",""
"pit-trial","18","172086","0.0-2.0-6.4-0.4","battery-v0.2","","""event"",""trial"",""time""
""fullscreenenter"",""1"",""2072""
","
","
","""event"",""trial"",""time""
""fullscreenenter"",""1"",""2072""
","
","","","-1","","","16","1286","965","&#9854;","elianto","#FFFFF080","-1","-1","1","&#10004","[]","0","0","1","","","","","","","","",""
"pit-instructions","19","379118","0.0-2.0-7.0","battery-v0.2","","""event"",""trial"",""time""
""fullscreenenter"",""1"",""2072""
","
","
","""event"",""trial"",""time""
""fullscreenenter"",""1"",""2072""
","
","","[{""page_index"":0,""viewing_time"":8330.399999976158},{""page_index"":1,""viewing_time"":8714.100000023842},{""page_index"":2,""viewing_time"":6911.399999976158},{""page_index"":3,""viewing_time"":5926.700000017881},{""page_index"":4,""viewing_time"":5545.5999999940395},{""page_index"":5,""viewing_time"":6589.5999999940395},{""page_index"":6,""viewing_time"":4337.5999999940395},{""page_index"":7,""viewing_time"":7525.100000023842},{""page_index"":8,""viewing_time"":6501.699999988079},{""page_index"":9,""viewing_time"":6657.4000000059605},{""page_index"":10,""viewing_time"":6755.5999999940395},{""page_index"":11,""viewing_time"":5556.4000000059605},{""page_index"":12,""viewing_time"":11326.90000000596},{""page_index"":13,""viewing_time"":72122.69999998808},{""page_index"":14,""viewing_time"":20492.30000001192},{""page_index"":15,""viewing_time"":8468.899999976158},{""page_index"":16,""viewing_time"":8234.90000000596},{""page_index"":17,""viewing_time"":7026.5999999940395}]","207025.29999998212","","","","","","","","","","","","","","","","","","","","","","","","",""
"pit-trial","20","382468","0.0-2.0-8.0-0.0","battery-v0.2","","""event"",""trial"",""time""
""fullscreenenter"",""1"",""2072""
","
","
","""event"",""trial"",""time""
""fullscreenenter"",""1"",""2072""
","
","","","489.90000000596046","","","16","1286","965","&#9776;","elianto","#3366ff99"," "," ","1","+10","[1344]","1","0","1","","","","","","","","",""
"pit-trial","21","385542","0.0-2.0-8.0-1.0","battery-v0.2","","""event"",""trial"",""time""
""fullscreenenter"",""1"",""2072""
","
","
","""event"",""trial"",""time""
""fullscreenenter"",""1"",""2072""
","
","","","216.60000002384186","","","16","1286","965","&#9776;","elianto","#3366ff99"," "," ","1","+10","[1069.8999999761581]","1","0","1","","","","","","","","",""
"pit-trial","22","388708","0.0-2.0-8.0-2.0","battery-v0.2","","""event"",""trial"",""time""
""fullscreenenter"",""1"",""2072""
","
","
","""event"",""trial"",""time""
""fullscreenenter"",""1"",""2072""
","
","","","312","","","16","1286","965","&#9776;","elianto","#3366ff99"," "," ","1","+10","[1162.300000011921]","1","0","1","","","","","","","","",""
"pit-trial","23","391807","0.0-2.0-8.0-3.0","battery-v0.2","","""event"",""trial"",""time""
""fullscreenenter"",""1"",""2072""
","
","
","""event"",""trial"",""time""
""fullscreenenter"",""1"",""2072""
","
","","","244.30000001192093","","","16","1286","965","&#9776;","elianto","#3366ff99"," "," ","1","0","[1094.4000000059605]","1","0","1","","","","","","","","",""
"pit-trial","24","394840","0.0-2.0-8.0-4.0","battery-v0.2","","""event"",""trial"",""time""
""fullscreenenter"",""1"",""2072""
","
","
","""event"",""trial"",""time""
""fullscreenenter"",""1"",""2072""
","
","","","178","","","16","1286","965","&#9776;","elianto","#3366ff99"," "," ","1","+10","[1028.0999999940395]","1","0","1","","","","","","","","",""
"call-function","25","394844","0.0-2.0-9.0","battery-v0.2","","""event"",""trial"",""time""
""fullscreenenter"",""1"",""2072""
","
","
","""event"",""trial"",""time""
""fullscreenenter"",""1"",""2072""
","
","","","","","","","","","","","","","","","","","","","","","","","","","","","",""
"pit-instructions","26","434876","0.0-2.0-10.0","battery-v0.2","","""event"",""trial"",""time""
""fullscreenenter"",""1"",""2072""
","
","
","""event"",""trial"",""time""
""fullscreenenter"",""1"",""2072""
","
","","[{""page_index"":0,""viewing_time"":5867.899999976158},{""page_index"":1,""viewing_time"":7369.200000017881},{""page_index"":2,""viewing_time"":9913.90000000596},{""page_index"":3,""viewing_time"":9150.799999982119},{""page_index"":4,""viewing_time"":7727.200000017881}]","40030.29999998212","","","","","","","","","","","","","","","","","","","","","","","","",""
"pit-trial","27","438152","0.0-2.0-11.0-0.0","battery-v0.2","","""event"",""trial"",""time""
""fullscreenenter"",""1"",""2072""
","
","
","""event"",""trial"",""time""
""fullscreenenter"",""1"",""2072""
","
","","","420.40000000596046","","","16","1286","965","&#9761;","elianto","#3366ff99","-1"," ","0","0","[1270.7000000178814]","1","0","2","","","","","","","","",""
"pit-trial","28","441336","0.0-2.0-11.0-1.0","battery-v0.2","","""event"",""trial"",""time""
""fullscreenenter"",""1"",""2072""
","
","
","""event"",""trial"",""time""
""fullscreenenter"",""1"",""2072""
","
","","","329","","","16","1286","965","&#9761;","elianto","#3366ff99","-1"," ","0","0","[1179.0999999940395]","1","0","2","","","","","","","","",""
"pit-trial","29","444454","0.0-2.0-11.0-2.0","battery-v0.2","","""event"",""trial"",""time""
""fullscreenenter"",""1"",""2072""
","
","
","""event"",""trial"",""time""
""fullscreenenter"",""1"",""2072""
","
","","","263.5","","","16","1286","965","&#9761;","elianto","#3366ff99","-1"," ","0","0","[1113.5]","1","0","2","","","","","","","","",""
"pit-trial","30","447631","0.0-2.0-11.0-3.0","battery-v0.2","","""event"",""trial"",""time""
""fullscreenenter"",""1"",""2072""
","
","
","""event"",""trial"",""time""
""fullscreenenter"",""1"",""2072""
","
","","","320.7999999821186","","","16","1286","965","&#9761;","elianto","#3366ff99","-1"," ","0","+10","[1171.2999999821186]","1","0","2","","","","","","","","",""
"pit-trial","31","450825","0.0-2.0-11.0-4.0","battery-v0.2","","""event"",""trial"",""time""
""fullscreenenter"",""1"",""2072""
","
","
","""event"",""trial"",""time""
""fullscreenenter"",""1"",""2072""
","
","","","339.30000001192093","","","16","1286","965","&#9761;","elianto","#3366ff99","-1"," ","0","0","[1189.5]","1","0","2","","","","","","","","",""
"pit-trial","32","453984","0.0-2.0-11.1-0.1","battery-v0.2","","""event"",""trial"",""time""
""fullscreenenter"",""1"",""2072""
","
","
","""event"",""trial"",""time""
""fullscreenenter"",""1"",""2072""
","
","","","299.89999997615814","","","16","1286","965","&#9761;","elianto","#3366ff99","-1"," ","0","0","[1152.2999999821186]","1","0","2","","","","","","","","",""
"pit-trial","33","457175","0.0-2.0-11.1-1.1","battery-v0.2","","""event"",""trial"",""time""
""fullscreenenter"",""1"",""2072""
","
","
","""event"",""trial"",""time""
""fullscreenenter"",""1"",""2072""
","
","","","335.09999999403954","","","16","1286","965","&#9761;","elianto","#3366ff99","-1"," ","0","0","[1185.1000000238419]","1","0","2","","","","","","","","",""
"pit-trial","34","460403","0.0-2.0-11.1-2.1","battery-v0.2","","""event"",""trial"",""time""
""fullscreenenter"",""1"",""2072""
","
","
","""event"",""trial"",""time""
""fullscreenenter"",""1"",""2072""
","
","","","369.80000001192093","","","16","1286","965","&#9761;","elianto","#3366ff99","-1"," ","0","0","[1222.5]","1","0","2","","","","","","","","",""
"pit-trial","35","463617","0.0-2.0-11.1-3.1","battery-v0.2","","""event"",""trial"",""time""
""fullscreenenter"",""1"",""2072""
","
","
","""event"",""trial"",""time""
""fullscreenenter"",""1"",""2072""
","
","","","358.5","","","16","1286","965","&#9761;","elianto","#3366ff99","-1"," ","0","+10","[1208.5999999940395]","1","0","2","","","","","","","","",""
"pit-trial","36","466746","0.0-2.0-11.1-4.1","battery-v0.2","","""event"",""trial"",""time""
""fullscreenenter"",""1"",""2072""
","
","
","""event"",""trial"",""time""
""fullscreenenter"",""1"",""2072""
","
","","","273.09999999403954","","","16","1286","965","&#9761;","elianto","#3366ff99","-1"," ","0","0","[1123.4000000059605]","1","0","2","","","","","","","","",""
"pit-trial","37","469967","0.0-2.0-11.2-0.2","battery-v0.2","","""event"",""trial"",""time""
""fullscreenenter"",""1"",""2072""
","
","
","""event"",""trial"",""time""
""fullscreenenter"",""1"",""2072""
","
","","","363.80000001192093","","","16","1286","965","&#9761;","elianto","#3366ff99","-1"," ","0","0","[1214]","1","0","2","","","","","","","","",""
"pit-trial","38","473141","0.0-2.0-11.2-1.2","battery-v0.2","","""event"",""trial"",""time""
""fullscreenenter"",""1"",""2072""
","
","
","""event"",""trial"",""time""
""fullscreenenter"",""1"",""2072""
","
","","","318.09999999403954","","","16","1286","965","&#9761;","elianto","#3366ff99","-1"," ","0","0","[1168.199999988079]","1","0","2","","","","","","","","",""
"pit-trial","39","476277","0.0-2.0-11.2-2.2","battery-v0.2","","""event"",""trial"",""time""
""fullscreenenter"",""1"",""2072""
","
","
","""event"",""trial"",""time""
""fullscreenenter"",""1"",""2072""
","
","","","280.19999998807907","","","16","1286","965","&#9761;","elianto","#3366ff99","-1"," ","0","0","[1130.699999988079]","1","0","2","","","","","","","","",""
"pit-trial","40","479460","0.0-2.0-11.2-3.2","battery-v0.2","","""event"",""trial"",""time""
""fullscreenenter"",""1"",""2072""
","
","
","""event"",""trial"",""time""
""fullscreenenter"",""1"",""2072""
","
","","","329.09999999403954","","","16","1286","965","&#9761;","elianto","#3366ff99","-1"," ","0","+10","[1179.300000011921]","1","0","2","","","","","","","","",""
"pit-trial","41","482623","0.0-2.0-11.2-4.2","battery-v0.2","","""event"",""trial"",""time""
""fullscreenenter"",""1"",""2072""
","
","
","""event"",""trial"",""time""
""fullscreenenter"",""1"",""2072""
","
","","","308.30000001192093","","","16","1286","965","&#9761;","elianto","#3366ff99","-1"," ","0","0","[1158.300000011921]","1","0","2","","","","","","","","",""
"pit-trial","42","485713","0.0-2.0-11.3-0.3","battery-v0.2","","""event"",""trial"",""time""
""fullscreenenter"",""1"",""2072""
","
","
","""event"",""trial"",""time""
""fullscreenenter"",""1"",""2072""
","
","","","233.59999999403954","","","16","1286","965","&#9761;","elianto","#3366ff99","-1"," ","0","0","[1084]","1","0","2","","","","","","","","",""
"pit-trial","43","488894","0.0-2.0-11.3-1.3","battery-v0.2","","""event"",""trial"",""time""
""fullscreenenter"",""1"",""2072""
","
","
","""event"",""trial"",""time""
""fullscreenenter"",""1"",""2072""
","
","","","322.40000000596046","","","16","1286","965","&#9761;","elianto","#3366ff99","-1"," ","0","0","[1176.5]","1","0","2","","","","","","","","",""
"pit-trial","44","492036","0.0-2.0-11.3-2.3","battery-v0.2","","""event"",""trial"",""time""
""fullscreenenter"",""1"",""2072""
","
","
","""event"",""trial"",""time""
""fullscreenenter"",""1"",""2072""
","
","","","288","","","16","1286","965","&#9761;","elianto","#3366ff99","-1"," ","0","0","[1138.0999999940395]","1","0","2","","","","","","","","",""
"pit-trial","45","495139","0.0-2.0-11.3-3.3","battery-v0.2","","""event"",""trial"",""time""
""fullscreenenter"",""1"",""2072""
","
","
","""event"",""trial"",""time""
""fullscreenenter"",""1"",""2072""
","
","","","247","","","16","1286","965","&#9761;","elianto","#3366ff99","-1"," ","0","+10","[1097.300000011921]","1","0","2","","","","","","","","",""
"pit-trial","46","498250","0.0-2.0-11.3-4.3","battery-v0.2","","""event"",""trial"",""time""
""fullscreenenter"",""1"",""2072""
","
","
","""event"",""trial"",""time""
""fullscreenenter"",""1"",""2072""
","
","","","256.90000000596046","","","16","1286","965","&#9761;","elianto","#3366ff99","-1"," ","0","0","[1106.9000000059605]","1","0","2","","","","","","","","",""
"pit-trial","47","501417","0.0-2.0-11.4-0.4","battery-v0.2","","""event"",""trial"",""time""
""fullscreenenter"",""1"",""2072""
","
","
","""event"",""trial"",""time""
""fullscreenenter"",""1"",""2072""
","
","","","310.69999998807907","","","16","1286","965","&#9761;","elianto","#3366ff99","-1"," ","0","0","[1161]","1","0","2","","","","","","","","",""
"pit-trial","48","504602","0.0-2.0-11.4-1.4","battery-v0.2","","""event"",""trial"",""time""
""fullscreenenter"",""1"",""2072""
","
","
","""event"",""trial"",""time""
""fullscreenenter"",""1"",""2072""
","
","","","329.90000000596046","","","16","1286","965","&#9761;","elianto","#3366ff99","-1"," ","0","0","[1180.0999999940395]","1","0","2","","","","","","","","",""
"pit-trial","49","507624","0.0-2.0-11.4-2.4","battery-v0.2","","""event"",""trial"",""time""
""fullscreenenter"",""1"",""2072""
","
","
","""event"",""trial"",""time""
""fullscreenenter"",""1"",""2072""
","
","","","167.09999999403954","","","16","1286","965","&#9761;","elianto","#3366ff99","-1"," ","0","0","[1017.5]","1","0","2","","","","","","","","",""
"pit-trial","50","510645","0.0-2.0-11.4-3.4","battery-v0.2","","""event"",""trial"",""time""
""fullscreenenter"",""1"",""2072""
","
","
","""event"",""trial"",""time""
""fullscreenenter"",""1"",""2072""
","
","","","165.30000001192093","","","16","1286","965","&#9761;","elianto","#3366ff99","-1"," ","0","+10","[1015.4000000059605]","1","0","2","","","","","","","","",""
"pit-trial","51","513727","0.0-2.0-11.4-4.4","battery-v0.2","","""event"",""trial"",""time""
""fullscreenenter"",""1"",""2072""
","
","
","""event"",""trial"",""time""
""fullscreenenter"",""1"",""2072""
","
","","","226","","","16","1286","965","&#9761;","elianto","#3366ff99","-1"," ","0","0","[1076.199999988079]","1","0","2","","","","","","","","",""
"pit-instructions","52","536973","0.0-2.0-11.4-5.4-0.4","battery-v0.2","","""event"",""trial"",""time""
""fullscreenenter"",""1"",""2072""
","
","
","""event"",""trial"",""time""
""fullscreenenter"",""1"",""2072""
","
","","[{""page_index"":0,""viewing_time"":7912.299999982119},{""page_index"":1,""viewing_time"":5826.9000000059605},{""page_index"":2,""viewing_time"":9502.40000000596}]","23243.09999999404","","","","","","","","","","","","","","","","","","","","","","","","",""
"pit-trial","53","541829","0.0-2.0-11.5-0.5","battery-v0.2","","""event"",""trial"",""time""
""fullscreenenter"",""1"",""2072""
","
","
","""event"",""trial"",""time""
""fullscreenenter"",""1"",""2072""
","
","","","-1","","","16","1286","965","&#9761;","elianto","#3366ff99","-1","-1","1","+10","[]","0","0","2","","","","","","","","",""
"pit-trial","54","546685","0.0-2.0-11.5-1.5","battery-v0.2","","""event"",""trial"",""time""
""fullscreenenter"",""1"",""2072""
","
","
","""event"",""trial"",""time""
""fullscreenenter"",""1"",""2072""
","
","","","-1","","","16","1286","965","&#9761;","elianto","#3366ff99","-1","-1","1","+10","[]","0","0","2","","","","","","","","",""
"pit-trial","55","551540","0.0-2.0-11.5-2.5","battery-v0.2","","""event"",""trial"",""time""
""fullscreenenter"",""1"",""2072""
","
","
","""event"",""trial"",""time""
""fullscreenenter"",""1"",""2072""
","
","","","-1","","","16","1286","965","&#9761;","elianto","#3366ff99","-1","-1","1","+10","[]","0","0","2","","","","","","","","",""
"pit-trial","56","556396","0.0-2.0-11.5-3.5","battery-v0.2","","""event"",""trial"",""time""
""fullscreenenter"",""1"",""2072""
","
","
","""event"",""trial"",""time""
""fullscreenenter"",""1"",""2072""
","
","","","-1","","","16","1286","965","&#9761;","elianto","#3366ff99","-1","-1","1","0","[]","0","0","2","","","","","","","","",""
"pit-trial","57","561251","0.0-2.0-11.5-4.5","battery-v0.2","","""event"",""trial"",""time""
""fullscreenenter"",""1"",""2072""
","
","
","""event"",""trial"",""time""
""fullscreenenter"",""1"",""2072""
","
","","","-1","","","16","1286","965","&#9761;","elianto","#3366ff99","-1","-1","1","+10","[]","0","0","2","","","","","","","","",""
"call-function","58","561255","0.0-2.0-12.0","battery-v0.2","","""event"",""trial"",""time""
""fullscreenenter"",""1"",""2072""
","
","
","""event"",""trial"",""time""
""fullscreenenter"",""1"",""2072""
","
","","","","","","","","","","","","","","","","","","","","","","","","","","","",""
"pit-instructions","59","607878","0.0-2.0-13.0","battery-v0.2","","""event"",""trial"",""time""
""fullscreenenter"",""1"",""2072""
","
","
","""event"",""trial"",""time""
""fullscreenenter"",""1"",""2072""
","
","","[{""page_index"":0,""viewing_time"":6220},{""page_index"":1,""viewing_time"":8742.40000000596},{""page_index"":2,""viewing_time"":5536.399999976158},{""page_index"":3,""viewing_time"":18226.600000023842},{""page_index"":4,""viewing_time"":7895.399999976158}]","46622.19999998808","","","","","","","","","","","","","","","","","","","","","","","","",""
"pit-trial","60","612734","0.0-2.0-14.0-0.0","battery-v0.2","","""event"",""trial"",""time""
""fullscreenenter"",""1"",""2072""
","
","
","""event"",""trial"",""time""
""fullscreenenter"",""1"",""2072""
","
","","","-1","","","16","1286","965","&#9826;","elianto","#f73b6a7A","-1","-1","1","0","[]","0","0","3","","","","","","","","",""
"pit-trial","61","617589","0.0-2.0-14.0-1.0","battery-v0.2","","""event"",""trial"",""time""
""fullscreenenter"",""1"",""2072""
","
","
","""event"",""trial"",""time""
""fullscreenenter"",""1"",""2072""
","
","","","-1","","","16","1286","965","&#9826;","elianto","#f73b6a7A","-1","-1","1","0","[]","0","0","3","","","","","","","","",""
"pit-trial","62","622443","0.0-2.0-14.0-2.0","battery-v0.2","","""event"",""trial"",""time""
""fullscreenenter"",""1"",""2072""
","
","
","""event"",""trial"",""time""
""fullscreenenter"",""1"",""2072""
","
","","","-1","","","16","1286","965","&#9826;","elianto","#f73b6a7A","-1","-1","1","0","[]","0","0","3","","","","","","","","",""
"pit-trial","63","627298","0.0-2.0-14.0-3.0","battery-v0.2","","""event"",""trial"",""time""
""fullscreenenter"",""1"",""2072""
","
","
","""event"",""trial"",""time""
""fullscreenenter"",""1"",""2072""
","
","","","-1","","","16","1286","965","&#9826;","elianto","#f73b6a7A","-1","-1","1","-10","[]","0","0","3","","","","","","","","",""
"pit-trial","64","632152","0.0-2.0-14.0-4.0","battery-v0.2","","""event"",""trial"",""time""
""fullscreenenter"",""1"",""2072""
","
","
","""event"",""trial"",""time""
""fullscreenenter"",""1"",""2072""
","
","","","-1","","","16","1286","965","&#9826;","elianto","#f73b6a7A","-1","-1","1","0","[]","0","0","3","","","","","","","","",""
"call-function","65","632156","0.0-2.0-15.0","battery-v0.2","","""event"",""trial"",""time""
""fullscreenenter"",""1"",""2072""
","
","
","""event"",""trial"",""time""
""fullscreenenter"",""1"",""2072""
","
","","","","","","","","","","","","","","","","","","","","","","","","","","","",""
"pit-instructions","66","667097","0.0-2.0-16.0","battery-v0.2","","""event"",""trial"",""time""
""fullscreenenter"",""1"",""2072""
","
","
","""event"",""trial"",""time""
""fullscreenenter"",""1"",""2072""
","
","","[{""page_index"":0,""viewing_time"":6076.699999988079},{""page_index"":1,""viewing_time"":10376.800000011921},{""page_index"":2,""viewing_time"":12744.09999999404},{""page_index"":3,""viewing_time"":5741.199999988079}]","34940","","","","","","","","","","","","","","","","","","","","","","","","",""
"pit-trial","67","671952","0.0-2.0-17.0-0.0","battery-v0.2","","""event"",""trial"",""time""
""fullscreenenter"",""1"",""2072""
","
","
","""event"",""trial"",""time""
""fullscreenenter"",""1"",""2072""
","
","","","-1","","","16","1286","965","&#9789;","elianto","#f73b6a7A"," ","-1","0","-10","[]","0","0","4","","","","","","","","",""
"pit-trial","68","676807","0.0-2.0-17.0-1.0","battery-v0.2","","""event"",""trial"",""time""
""fullscreenenter"",""1"",""2072""
","
","
","""event"",""trial"",""time""
""fullscreenenter"",""1"",""2072""
","
","","","-1","","","16","1286","965","&#9789;","elianto","#f73b6a7A"," ","-1","0","-10","[]","0","0","4","","","","","","","","",""
"pit-trial","69","681661","0.0-2.0-17.0-2.0","battery-v0.2","","""event"",""trial"",""time""
""fullscreenenter"",""1"",""2072""
","
","
","""event"",""trial"",""time""
""fullscreenenter"",""1"",""2072""
","
","","","-1","","","16","1286","965","&#9789;","elianto","#f73b6a7A"," ","-1","0","-10","[]","0","0","4","","","","","","","","",""
"pit-trial","70","686515","0.0-2.0-17.0-3.0","battery-v0.2","","""event"",""trial"",""time""
""fullscreenenter"",""1"",""2072""
","
","
","""event"",""trial"",""time""
""fullscreenenter"",""1"",""2072""
","
","","","-1","","","16","1286","965","&#9789;","elianto","#f73b6a7A"," ","-1","0","0","[]","0","0","4","","","","","","","","",""
"pit-trial","71","691370","0.0-2.0-17.0-4.0","battery-v0.2","","""event"",""trial"",""time""
""fullscreenenter"",""1"",""2072""
","
","
","""event"",""trial"",""time""
""fullscreenenter"",""1"",""2072""
","
","","","-1","","","16","1286","965","&#9789;","elianto","#f73b6a7A"," ","-1","0","-10","[]","0","0","4","","","","","","","","",""
"pit-trial","72","696227","0.0-2.0-17.1-0.1","battery-v0.2","","""event"",""trial"",""time""
""fullscreenenter"",""1"",""2072""
","
","
","""event"",""trial"",""time""
""fullscreenenter"",""1"",""2072""
","
","","","-1","","","16","1286","965","&#9789;","elianto","#f73b6a7A"," ","-1","0","-10","[]","0","0","4","","","","","","","","",""
"pit-trial","73","701083","0.0-2.0-17.1-1.1","battery-v0.2","","""event"",""trial"",""time""
""fullscreenenter"",""1"",""2072""
","
","
","""event"",""trial"",""time""
""fullscreenenter"",""1"",""2072""
","
","","","-1","","","16","1286","965","&#9789;","elianto","#f73b6a7A"," ","-1","0","-10","[]","0","0","4","","","","","","","","",""
"pit-trial","74","705939","0.0-2.0-17.1-2.1","battery-v0.2","","""event"",""trial"",""time""
""fullscreenenter"",""1"",""2072""
","
","
","""event"",""trial"",""time""
""fullscreenenter"",""1"",""2072""
","
","","","-1","","","16","1286","965","&#9789;","elianto","#f73b6a7A"," ","-1","0","-10","[]","0","0","4","","","","","","","","",""
"pit-trial","75","710794","0.0-2.0-17.1-3.1","battery-v0.2","","""event"",""trial"",""time""
""fullscreenenter"",""1"",""2072""
","
","
","""event"",""trial"",""time""
""fullscreenenter"",""1"",""2072""
","
","","","-1","","","16","1286","965","&#9789;","elianto","#f73b6a7A"," ","-1","0","0","[]","0","0","4","","","","","","","","",""
"pit-trial","76","715650","0.0-2.0-17.1-4.1","battery-v0.2","","""event"",""trial"",""time""
""fullscreenenter"",""1"",""2072""
","
","
","""event"",""trial"",""time""
""fullscreenenter"",""1"",""2072""
","
","","","-1","","","16","1286","965","&#9789;","elianto","#f73b6a7A"," ","-1","0","-10","[]","0","0","4","","","","","","","","",""
"pit-trial","77","720506","0.0-2.0-17.2-0.2","battery-v0.2","","""event"",""trial"",""time""
""fullscreenenter"",""1"",""2072""
","
","
","""event"",""trial"",""time""
""fullscreenenter"",""1"",""2072""
","
","","","-1","","","16","1286","965","&#9789;","elianto","#f73b6a7A"," ","-1","0","-10","[]","0","0","4","","","","","","","","",""
"pit-trial","78","725362","0.0-2.0-17.2-1.2","battery-v0.2","","""event"",""trial"",""time""
""fullscreenenter"",""1"",""2072""
","
","
","""event"",""trial"",""time""
""fullscreenenter"",""1"",""2072""
","
","","","-1","","","16","1286","965","&#9789;","elianto","#f73b6a7A"," ","-1","0","-10","[]","0","0","4","","","","","","","","",""
"pit-trial","79","730218","0.0-2.0-17.2-2.2","battery-v0.2","","""event"",""trial"",""time""
""fullscreenenter"",""1"",""2072""
","
","
","""event"",""trial"",""time""
""fullscreenenter"",""1"",""2072""
","
","","","-1","","","16","1286","965","&#9789;","elianto","#f73b6a7A"," ","-1","0","-10","[]","0","0","4","","","","","","","","",""
"pit-trial","80","735073","0.0-2.0-17.2-3.2","battery-v0.2","","""event"",""trial"",""time""
""fullscreenenter"",""1"",""2072""
","
","
","""event"",""trial"",""time""
""fullscreenenter"",""1"",""2072""
","
","","","-1","","","16","1286","965","&#9789;","elianto","#f73b6a7A"," ","-1","0","0","[]","0","0","4","","","","","","","","",""
"pit-trial","81","739928","0.0-2.0-17.2-4.2","battery-v0.2","","""event"",""trial"",""time""
""fullscreenenter"",""1"",""2072""
","
","
","""event"",""trial"",""time""
""fullscreenenter"",""1"",""2072""
","
","","","-1","","","16","1286","965","&#9789;","elianto","#f73b6a7A"," ","-1","0","-10","[]","0","0","4","","","","","","","","",""
"pit-trial","82","744784","0.0-2.0-17.3-0.3","battery-v0.2","","""event"",""trial"",""time""
""fullscreenenter"",""1"",""2072""
","
","
","""event"",""trial"",""time""
""fullscreenenter"",""1"",""2072""
","
","","","-1","","","16","1286","965","&#9789;","elianto","#f73b6a7A"," ","-1","0","-10","[]","0","0","4","","","","","","","","",""
"pit-trial","83","749638","0.0-2.0-17.3-1.3","battery-v0.2","","""event"",""trial"",""time""
""fullscreenenter"",""1"",""2072""
","
","
","""event"",""trial"",""time""
""fullscreenenter"",""1"",""2072""
","
","","","-1","","","16","1286","965","&#9789;","elianto","#f73b6a7A"," ","-1","0","-10","[]","0","0","4","","","","","","","","",""
"pit-trial","84","754493","0.0-2.0-17.3-2.3","battery-v0.2","","""event"",""trial"",""time""
""fullscreenenter"",""1"",""2072""
","
","
","""event"",""trial"",""time""
""fullscreenenter"",""1"",""2072""
","
","","","-1","","","16","1286","965","&#9789;","elianto","#f73b6a7A"," ","-1","0","-10","[]","0","0","4","","","","","","","","",""
"pit-trial","85","759348","0.0-2.0-17.3-3.3","battery-v0.2","","""event"",""trial"",""time""
""fullscreenenter"",""1"",""2072""
","
","
","""event"",""trial"",""time""
""fullscreenenter"",""1"",""2072""
","
","","","-1","","","16","1286","965","&#9789;","elianto","#f73b6a7A"," ","-1","0","0","[]","0","0","4","","","","","","","","",""
"pit-trial","86","764203","0.0-2.0-17.3-4.3","battery-v0.2","","""event"",""trial"",""time""
""fullscreenenter"",""1"",""2072""
","
","
","""event"",""trial"",""time""
""fullscreenenter"",""1"",""2072""
","
","","","-1","","","16","1286","965","&#9789;","elianto","#f73b6a7A"," ","-1","0","-10","[]","0","0","4","","","","","","","","",""
"pit-trial","87","769059","0.0-2.0-17.4-0.4","battery-v0.2","","""event"",""trial"",""time""
""fullscreenenter"",""1"",""2072""
","
","
","""event"",""trial"",""time""
""fullscreenenter"",""1"",""2072""
","
","","","-1","","","16","1286","965","&#9789;","elianto","#f73b6a7A"," ","-1","0","-10","[]","0","0","4","","","","","","","","",""
"pit-trial","88","773913","0.0-2.0-17.4-1.4","battery-v0.2","","""event"",""trial"",""time""
""fullscreenenter"",""1"",""2072""
","
","
","""event"",""trial"",""time""
""fullscreenenter"",""1"",""2072""
","
","","","-1","","","16","1286","965","&#9789;","elianto","#f73b6a7A"," ","-1","0","-10","[]","0","0","4","","","","","","","","",""
"pit-trial","89","778768","0.0-2.0-17.4-2.4","battery-v0.2","","""event"",""trial"",""time""
""fullscreenenter"",""1"",""2072""
","
","
","""event"",""trial"",""time""
""fullscreenenter"",""1"",""2072""
","
","","","-1","","","16","1286","965","&#9789;","elianto","#f73b6a7A"," ","-1","0","-10","[]","0","0","4","","","","","","","","",""
"pit-trial","90","783623","0.0-2.0-17.4-3.4","battery-v0.2","","""event"",""trial"",""time""
""fullscreenenter"",""1"",""2072""
","
","
","""event"",""trial"",""time""
""fullscreenenter"",""1"",""2072""
","
","","","-1","","","16","1286","965","&#9789;","elianto","#f73b6a7A"," ","-1","0","0","[]","0","0","4","","","","","","","","",""
"pit-trial","91","788478","0.0-2.0-17.4-4.4","battery-v0.2","","""event"",""trial"",""time""
""fullscreenenter"",""1"",""2072""
","
","
","""event"",""trial"",""time""
""fullscreenenter"",""1"",""2072""
","
","","","-1","","","16","1286","965","&#9789;","elianto","#f73b6a7A"," ","-1","0","-10","[]","0","0","4","","","","","","","","",""
"pit-instructions","92","810952","0.0-2.0-17.4-5.4-0.4","battery-v0.2","","""event"",""trial"",""time""
""fullscreenenter"",""1"",""2072""
","
","
","""event"",""trial"",""time""
""fullscreenenter"",""1"",""2072""
","
","","[{""page_index"":0,""viewing_time"":7980.699999988079},{""page_index"":1,""viewing_time"":5407.199999988079},{""page_index"":2,""viewing_time"":9081}]","22470.79999998212","","","","","","","","","","","","","","","","","","","","","","","","",""
"pit-trial","93","814416","0.0-2.0-17.5-0.5","battery-v0.2","","""event"",""trial"",""time""
""fullscreenenter"",""1"",""2072""
","
","
","""event"",""trial"",""time""
""fullscreenenter"",""1"",""2072""
","
","","","608.5999999940395","","","16","1286","965","&#9789;","elianto","#f73b6a7A"," "," ","1","0","[1458.7999999821186]","1","0","4","","","","","","","","",""
"pit-trial","94","817475","0.0-2.0-17.5-1.5","battery-v0.2","","""event"",""trial"",""time""
""fullscreenenter"",""1"",""2072""
","
","
","""event"",""trial"",""time""
""fullscreenenter"",""1"",""2072""
","
","","","203.10000002384186","","","16","1286","965","&#9789;","elianto","#f73b6a7A"," "," ","1","0","[1053.199999988079]","1","0","4","","","","","","","","",""
"pit-trial","95","820530","0.0-2.0-17.5-2.5","battery-v0.2","","""event"",""trial"",""time""
""fullscreenenter"",""1"",""2072""
","
","
","""event"",""trial"",""time""
""fullscreenenter"",""1"",""2072""
","
","","","199.7000000178814","","","16","1286","965","&#9789;","elianto","#f73b6a7A"," "," ","1","0","[1049.6000000238419]","1","0","4","","","","","","","","",""
"pit-trial","96","823524","0.0-2.0-17.5-3.5","battery-v0.2","","""event"",""trial"",""time""
""fullscreenenter"",""1"",""2072""
","
","
","""event"",""trial"",""time""
""fullscreenenter"",""1"",""2072""
","
","","","137.40000000596046","","","16","1286","965","&#9789;","elianto","#f73b6a7A"," "," ","1","-10","[988.0999999940395]","1","0","4","","","","","","","","",""
"pit-trial","97","826587","0.0-2.0-17.5-4.5","battery-v0.2","","""event"",""trial"",""time""
""fullscreenenter"",""1"",""2072""
","
","
","""event"",""trial"",""time""
""fullscreenenter"",""1"",""2072""
","
","","","208","","","16","1286","965","&#9789;","elianto","#f73b6a7A"," "," ","1","0","[1058.300000011921]","1","0","4","","","","","","","","",""
"call-function","98","826590","0.0-2.0-18.0","battery-v0.2","","""event"",""trial"",""time""
""fullscreenenter"",""1"",""2072""
","
","
","""event"",""trial"",""time""
""fullscreenenter"",""1"",""2072""
","
","","","","","","","","","","","","","","","","","","","","","","","","","","","",""
"pit-instructions","99","912888","0.0-2.0-19.0","battery-v0.2","","""event"",""trial"",""time""
""fullscreenenter"",""1"",""2072""
","
","
","""event"",""trial"",""time""
""fullscreenenter"",""1"",""2072""
","
","","[{""page_index"":0,""viewing_time"":11511.5},{""page_index"":1,""viewing_time"":6861.199999988079},{""page_index"":2,""viewing_time"":15129.5},{""page_index"":3,""viewing_time"":8762.800000011921},{""page_index"":4,""viewing_time"":10206.299999982119},{""page_index"":5,""viewing_time"":8255.100000023842},{""page_index"":6,""viewing_time"":9799},{""page_index"":7,""viewing_time"":9017.399999976158},{""page_index"":8,""viewing_time"":6752.9000000059605}]","86296.79999998212","","","","","","","","","","","","","","","","","","","","","","","","",""
"pit-comprehension","100","917580","0.0-2.0-20.0-0.0","battery-v0.2","","""event"",""trial"",""time""
""fullscreenenter"",""1"",""2072""
","
","
","""event"",""trial"",""time""
""fullscreenenter"",""1"",""2072""
","
","","","4683.300000011921","[""SPACE""]","0","16","1286","965","","","","","","","","","","","","","","","","","","","",""
"pit-instructions","101","920755","0.0-2.0-20.0-1.0","battery-v0.2","","""event"",""trial"",""time""
""fullscreenenter"",""1"",""2072""
","
","
","""event"",""trial"",""time""
""fullscreenenter"",""1"",""2072""
","
","","[{""page_index"":0,""viewing_time"":3130.9000000059605}]","3132.5","","","","","","","","","","","","","","","","","","","","","","","","",""
"pit-comprehension","102","927589","0.0-2.0-21.0-0.0","battery-v0.2","","""event"",""trial"",""time""
""fullscreenenter"",""1"",""2072""
","
","
","""event"",""trial"",""time""
""fullscreenenter"",""1"",""2072""
","
","","","6824.5","[""10""]","0","16","1286","965","","","","","","","","","","","","","","","","","","","",""
"pit-instructions","103","930804","0.0-2.0-21.0-1.0","battery-v0.2","","""event"",""trial"",""time""
""fullscreenenter"",""1"",""2072""
","
","
","""event"",""trial"",""time""
""fullscreenenter"",""1"",""2072""
","
","","[{""page_index"":0,""viewing_time"":3172.5}]","3173.699999988079","","","","","","","","","","","","","","","","","","","","","","","","",""
"pit-comprehension","104","941624","0.0-2.0-22.0-0.0","battery-v0.2","","""event"",""trial"",""time""
""fullscreenenter"",""1"",""2072""
","
","
","""event"",""trial"",""time""
""fullscreenenter"",""1"",""2072""
","
","","","10808.90000000596","[""0""]","0","16","1286","965","","","","","","","","","","","","","","","","","","","",""
"pit-instructions","105","943962","0.0-2.0-22.0-1.0","battery-v0.2","","""event"",""trial"",""time""
""fullscreenenter"",""1"",""2072""
","
","
","""event"",""trial"",""time""
""fullscreenenter"",""1"",""2072""
","
","","[{""page_index"":0,""viewing_time"":2296.800000011921}]","2297.9000000059605","","","","","","","","","","","","","","","","","","","","","","","","",""
"pit-comprehension","106","954744","0.0-2.0-23.0-0.0","battery-v0.2","","""event"",""trial"",""time""
""fullscreenenter"",""1"",""2072""
","
","
","""event"",""trial"",""time""
""fullscreenenter"",""1"",""2072""
","
","","","10774","[""True""]","0","16","1286","965","","","","","","","","","","","","","","","","","","","",""
"pit-instructions","107","957171","0.0-2.0-23.0-1.0","battery-v0.2","","""event"",""trial"",""time""
""fullscreenenter"",""1"",""2072""
","
","
","""event"",""trial"",""time""
""fullscreenenter"",""1"",""2072""
","
","","[{""page_index"":0,""viewing_time"":2382}]","2384.300000011921","","","","","","","","","","","","","","","","","","","","","","","","",""
"pit-comprehension","108","964598","0.0-2.0-24.0-0.0","battery-v0.2","","""event"",""trial"",""time""
""fullscreenenter"",""1"",""2072""
","
","
","""event"",""trial"",""time""
""fullscreenenter"",""1"",""2072""
","
","","","7420.799999982119","[""True""]","0","16","1286","965","","","","","","","","","","","","","","","","","","","",""
"pit-instructions","109","967822","0.0-2.0-24.0-1.0","battery-v0.2","","""event"",""trial"",""time""
""fullscreenenter"",""1"",""2072""
","
","
","""event"",""trial"",""time""
""fullscreenenter"",""1"",""2072""
","
","","[{""page_index"":0,""viewing_time"":3185}]","3186","","","","","","","","","","","","","","","","","","","","","","","","",""
"pit-comprehension","110","974394","0.0-2.0-25.0-0.0","battery-v0.2","","""event"",""trial"",""time""
""fullscreenenter"",""1"",""2072""
","
","
","""event"",""trial"",""time""
""fullscreenenter"",""1"",""2072""
","
","","","6563.600000023842","[""True""]","0","16","1286","965","","","","","","","","","","","","","","","","","","","",""
"pit-instructions","111","979801","0.0-2.0-25.0-1.0","battery-v0.2","","""event"",""trial"",""time""
""fullscreenenter"",""1"",""2072""
","
","
","""event"",""trial"",""time""
""fullscreenenter"",""1"",""2072""
","
","","[{""page_index"":0,""viewing_time"":5366.300000011921}]","5367.700000017881","","","","","","","","","","","","","","","","","","","","","","","","",""
"pit-comprehension","112","986762","0.0-2.0-26.0-0.0","battery-v0.2","","""event"",""trial"",""time""
""fullscreenenter"",""1"",""2072""
","
","
","""event"",""trial"",""time""
""fullscreenenter"",""1"",""2072""
","
","","","6952.200000017881","[""False""]","0","16","1286","965","","","","","","","","","","","","","","","","","","","",""
"pit-instructions","113","989226","0.0-2.0-26.0-1.0","battery-v0.2","","""event"",""trial"",""time""
""fullscreenenter"",""1"",""2072""
","
","
","""event"",""trial"",""time""
""fullscreenenter"",""1"",""2072""
","
","","[{""page_index"":0,""viewing_time"":2422}]","2423.0999999940395","","","","","","","","","","","","","","","","","","","","","","","","",""
"pit-instructions","114","1008840","0.0-3.0","battery-v0.2","","""event"",""trial"",""time""
""fullscreenenter"",""1"",""2072""
","
","
","""event"",""trial"",""time""
""fullscreenenter"",""1"",""2072""
","
","","[{""page_index"":0,""viewing_time"":5150.299999982119},{""page_index"":1,""viewing_time"":5828.9000000059605},{""page_index"":2,""viewing_time"":8629.199999988079}]","19609.5","","","","","","","","","","","","","","","","","","","","","","","","",""
"pit-trial","115","1013058","0.0-4.0","battery-v0.2","","""event"",""trial"",""time""
""fullscreenenter"",""1"",""2072""
","
","
","""event"",""trial"",""time""
""fullscreenenter"",""1"",""2072""
","
","","","1355.699999988079","","","16","1286","965","&#9752;","elianto","#f73b6a7A"," "," ","1","0","[2206.7000000178814]","1","1","","","1286","1","3","3","lose","go","0","[]"
"pit-trial","116","1016669","0.0-5.0","battery-v0.2","","""event"",""trial"",""time""
""fullscreenenter"",""1"",""2072""
","
","
","""event"",""trial"",""time""
""fullscreenenter"",""1"",""2072""
","
","","","753.3000000119209","","","16","1286","965","&#9733;","elianto","#3366ff99","-1"," ","0","0","[1605.5999999940395]","1","1","","","1286","2","2","2","win","no-go","0","0"
"pit-trial","117","1020279","0.0-6.0","battery-v0.2","","""event"",""trial"",""time""
""fullscreenenter"",""1"",""2072""
","
","
","""event"",""trial"",""time""
""fullscreenenter"",""1"",""2072""
","
","","","753.4000000059605","","","16","1286","965","&#9728;","elianto","#f73b6a7A","-1"," ","0","-10","[1603.800000011921]","1","1","","","1286","3","0","4","lose","no-go","0","0"
"pit-trial","118","1024028","0.0-7.0","battery-v0.2","","""event"",""trial"",""time""
""fullscreenenter"",""1"",""2072""
","
","
","""event"",""trial"",""time""
""fullscreenenter"",""1"",""2072""
","
","","","895.2000000178814","","","16","1286","965","&#9730;","elianto","#3366ff99"," "," ","1","+10","[1745.300000011921]","1","1","","","1286","4","1","1","win","go","0","0"
"pit-trial","119","1028655","0.0-8.0","battery-v0.2","","""event"",""trial"",""time""
""fullscreenenter"",""1"",""2072""
","
","
","""event"",""trial"",""time""
""fullscreenenter"",""1"",""2072""
","
","","","1770.199999988079","","","16","1286","965","&#9728;","elianto","#f73b6a7A","-1"," ","0","-10","[2620.699999988079]","1","1","","","1286","5","0","4","lose","no-go","0","0"
"pit-trial","120","1032606","0.0-9.0","battery-v0.2","","""event"",""trial"",""time""
""fullscreenenter"",""1"",""2072""
","
","
","""event"",""trial"",""time""
""fullscreenenter"",""1"",""2072""
","
","","","1096.2000000178814","","","16","1286","965","&#9733;","elianto","#3366ff99","-1"," ","0","0","[1946.7000000178814]","1","1","","","1286","6","2","2","win","no-go","0","0"
"pit-trial","121","1036608","0.0-10.0","battery-v0.2","","""event"",""trial"",""time""
""fullscreenenter"",""1"",""2072""
","
","
","""event"",""trial"",""time""
""fullscreenenter"",""1"",""2072""
","
","","","1146.2999999821186","","","16","1286","965","&#9752;","elianto","#f73b6a7A"," "," ","1","0","[1996.5999999940395]","1","1","","","1286","7","3","3","lose","go","0","0"
"pit-trial","122","1040351","0.0-11.0","battery-v0.2","","""event"",""trial"",""time""
""fullscreenenter"",""1"",""2072""
","
","
","""event"",""trial"",""time""
""fullscreenenter"",""1"",""2072""
","
","","","888.0999999940395","","","16","1286","965","&#9730;","elianto","#3366ff99"," "," ","1","+10","[1738.4000000059605]","1","1","","","1286","8","1","1","win","go","0","0"
"pit-trial","123","1045205","0.0-12.0","battery-v0.2","","""event"",""trial"",""time""
""fullscreenenter"",""1"",""2072""
","
","
","""event"",""trial"",""time""
""fullscreenenter"",""1"",""2072""
","
","","","-1","","","16","1286","965","&#9733;","elianto","#3366ff99","-1","-1","1","+10","[]","0","1","","","1286","9","2","2","win","no-go","0","0"
"pit-trial","124","1049223","0.0-13.0","battery-v0.2","","""event"",""trial"",""time""
""fullscreenenter"",""1"",""2072""
","
","
","""event"",""trial"",""time""
""fullscreenenter"",""1"",""2072""
","
","","","1162.2999999821186","","","16","1286","965","&#9730;","elianto","#3366ff99"," "," ","1","+10","[2012.699999988079]","1","1","","","1286","10","1","1","win","go","0","0"
"pit-trial","125","1054078","0.0-14.0","battery-v0.2","","""event"",""trial"",""time""
""fullscreenenter"",""1"",""2072""
","
","
","""event"",""trial"",""time""
""fullscreenenter"",""1"",""2072""
","
","","","-1","","","16","1286","965","&#9728;","elianto","#f73b6a7A","-1","-1","1","0","[]","0","1","","","1286","11","0","4","lose","no-go","0","0"
"pit-trial","126","1058099","0.0-15.0","battery-v0.2","","""event"",""trial"",""time""
""fullscreenenter"",""1"",""2072""
","
","
","""event"",""trial"",""time""
""fullscreenenter"",""1"",""2072""
","
","","","1163.0999999940395","","","16","1286","965","&#9752;","elianto","#f73b6a7A"," "," ","1","0","[2015.7000000178814]","1","1","","","1286","12","3","3","lose","go","0","0"
"pit-trial","127","1062954","0.0-16.0","battery-v0.2","","""event"",""trial"",""time""
""fullscreenenter"",""1"",""2072""
","
","
","""event"",""trial"",""time""
""fullscreenenter"",""1"",""2072""
","
","","","-1","","","16","1286","965","&#9728;","elianto","#f73b6a7A","-1","-1","1","0","[]","0","1","","","1286","13","0","4","lose","no-go","0","0"
"pit-trial","128","1067809","0.0-17.0","battery-v0.2","","""event"",""trial"",""time""
""fullscreenenter"",""1"",""2072""
","
","
","""event"",""trial"",""time""
""fullscreenenter"",""1"",""2072""
","
","","","-1","","","16","1286","965","&#9733;","elianto","#3366ff99","-1","-1","1","+10","[]","0","1","","","1286","14","2","2","win","no-go","0","0"
"pit-trial","129","1072577","0.0-18.0","battery-v0.2","","""event"",""trial"",""time""
""fullscreenenter"",""1"",""2072""
","
","
","""event"",""trial"",""time""
""fullscreenenter"",""1"",""2072""
","
","","","1912.2999999821186","","","16","1286","965","&#9752;","elianto","#f73b6a7A"," "," ","1","-10","[2762.699999988079]","1","1","","","1286","15","3","3","lose","go","1","0"
"pit-trial","130","1077040","0.0-19.0","battery-v0.2","","""event"",""trial"",""time""
""fullscreenenter"",""1"",""2072""
","
","
","""event"",""trial"",""time""
""fullscreenenter"",""1"",""2072""
","
","","","1607.800000011921","","","16","1286","965","&#9730;","elianto","#3366ff99"," "," ","1","+10","[2458]","1","1","","","1286","16","1","1","win","go","0","0"
"pit-trial","131","1081895","0.0-20.0","battery-v0.2","","""event"",""trial"",""time""
""fullscreenenter"",""1"",""2072""
","
","
","""event"",""trial"",""time""
""fullscreenenter"",""1"",""2072""
","
","","","-1","","","16","1286","965","&#9728;","elianto","#f73b6a7A","-1","-1","1","-10","[]","0","1","","","1286","17","0","4","lose","no-go","1","0"
"pit-trial","132","1085416","0.0-21.0","battery-v0.2","","""event"",""trial"",""time""
""fullscreenenter"",""1"",""2072""
","
","
","""event"",""trial"",""time""
""fullscreenenter"",""1"",""2072""
","
","","","664.5","","","16","1286","965","&#9730;","elianto","#3366ff99"," "," ","1","+10","[1514.699999988079]","1","1","","","1286","18","1","1","win","go","0","0"
"pit-trial","133","1088948","0.0-22.0","battery-v0.2","","""event"",""trial"",""time""
""fullscreenenter"",""1"",""2072""
","
","
","""event"",""trial"",""time""
""fullscreenenter"",""1"",""2072""
","
","","","673.7000000178814","","","16","1286","965","&#9733;","elianto","#3366ff99","-1"," ","0","0","[1527.2000000178814]","1","1","","","1286","19","2","2","win","no-go","0","0"
"pit-trial","134","1093125","0.0-23.0","battery-v0.2","","""event"",""trial"",""time""
""fullscreenenter"",""1"",""2072""
","
","
","""event"",""trial"",""time""
""fullscreenenter"",""1"",""2072""
","
","","","1318.5","","","16","1286","965","&#9752;","elianto","#f73b6a7A"," "," ","1","0","[2171]","1","1","","","1286","20","3","3","lose","go","0","0"
"pit-instructions","135","1107092","0.0-24.0","battery-v0.2","","""event"",""trial"",""time""
""fullscreenenter"",""1"",""2072""
","
","
","""event"",""trial"",""time""
""fullscreenenter"",""1"",""2072""
","
","","[{""page_index"":0,""viewing_time"":6681.700000017881},{""page_index"":1,""viewing_time"":7280.299999982119}]","13963.600000023842","","","","","","","","","","","","","","","","","","","","","","","","",""
"pit-trial","136","1110726","0.0-25.0","battery-v0.2","","""event"",""trial"",""time""
""fullscreenenter"",""1"",""2072""
","
","
","""event"",""trial"",""time""
""fullscreenenter"",""1"",""2072""
","
","","","775","","","16","1286","965","x","elianto","#3366ff99"," "," ","1","+10","[1625]","1","2","","","1286","21","3","1","win","go","0","0"
"pit-trial","137","1114379","0.0-26.0","battery-v0.2","","""event"",""trial"",""time""
""fullscreenenter"",""1"",""2072""
","
","
","""event"",""trial"",""time""
""fullscreenenter"",""1"",""2072""
","
","","","796.9000000059605","","","16","1286","965","f","elianto","#f73b6a7A","-1"," ","0","-10","[1647.0999999940395]","1","2","","","1286","22","2","4","lose","no-go","0","0"
"pit-trial","138","1118265","0.0-27.0","battery-v0.2","","""event"",""trial"",""time""
""fullscreenenter"",""1"",""2072""
","
","
","""event"",""trial"",""time""
""fullscreenenter"",""1"",""2072""
","
","","","1029.9000000059605","","","16","1286","965","n","elianto","#f73b6a7A"," "," ","1","0","[1880.0999999940395]","1","2","","","1286","23","1","3","lose","go","0","0"
"pit-trial","139","1121815","0.0-28.0","battery-v0.2","","""event"",""trial"",""time""
""fullscreenenter"",""1"",""2072""
","
","
","""event"",""trial"",""time""
""fullscreenenter"",""1"",""2072""
","
","","","694.0999999940395","","","16","1286","965","q","elianto","#3366ff99","-1"," ","0","0","[1544.5]","1","2","","","1286","24","0","2","win","no-go","0","0"
"pit-trial","140","1126671","0.0-29.0","battery-v0.2","","""event"",""trial"",""time""
""fullscreenenter"",""1"",""2072""
","
","
","""event"",""trial"",""time""
""fullscreenenter"",""1"",""2072""
","
","","","-1","","","16","1286","965","q","elianto","#3366ff99","-1","-1","1","0","[]","0","2","","","1286","25","0","2","win","no-go","1","0"
"pit-trial","141","1130727","0.0-30.0","battery-v0.2","","""event"",""trial"",""time""
""fullscreenenter"",""1"",""2072""
","
","
","""event"",""trial"",""time""
""fullscreenenter"",""1"",""2072""
","
","","","1199.2999999821186","","","16","1286","965","n","elianto","#f73b6a7A"," "," ","1","-10","[2050.199999988079]","1","2","","","1286","26","1","3","lose","go","1","0"
"pit-trial","142","1134771","0.0-31.0","battery-v0.2","","""event"",""trial"",""time""
""fullscreenenter"",""1"",""2072""
","
","
","""event"",""trial"",""time""
""fullscreenenter"",""1"",""2072""
","
","","","1188.4000000059605","","","16","1286","965","f","elianto","#f73b6a7A","-1"," ","0","0","[2038.3999999761581]","1","2","","","1286","27","2","4","lose","no-go","1","0"
"pit-trial","143","1138067","0.0-32.0","battery-v0.2","","""event"",""trial"",""time""
""fullscreenenter"",""1"",""2072""
","
","
","""event"",""trial"",""time""
""fullscreenenter"",""1"",""2072""
","
","","","441.59999999403954","","","16","1286","965","x","elianto","#3366ff99"," "," ","1","0","[1291.800000011921]","1","2","","","1286","28","3","1","win","go","1","0"
"pit-trial","144","1141589","0.0-33.0","battery-v0.2","","""event"",""trial"",""time""
""fullscreenenter"",""1"",""2072""
","
","
","""event"",""trial"",""time""
""fullscreenenter"",""1"",""2072""
","
","","","666.1000000238419","","","16","1286","965","n","elianto","#f73b6a7A"," "," ","1","0","[1518.1000000238419]","1","2","","","1286","29","1","3","lose","go","0","0"
"pit-trial","145","1144954","0.0-34.0","battery-v0.2","","""event"",""trial"",""time""
""fullscreenenter"",""1"",""2072""
","
","
","""event"",""trial"",""time""
""fullscreenenter"",""1"",""2072""
","
","","","510","","","16","1286","965","x","elianto","#3366ff99"," "," ","1","0","[1360.0999999940395]","1","2","","","1286","30","3","1","win","go","1","0"
"pit-trial","146","1148310","0.0-35.0","battery-v0.2","","""event"",""trial"",""time""
""fullscreenenter"",""1"",""2072""
","
","
","""event"",""trial"",""time""
""fullscreenenter"",""1"",""2072""
","
","","","501.69999998807907","","","16","1286","965","q","elianto","#3366ff99","-1"," ","0","+10","[1351.7999999821186]","1","2","","","1286","31","0","2","win","no-go","1","0"
"pit-trial","147","1151697","0.0-36.0","battery-v0.2","","""event"",""trial"",""time""
""fullscreenenter"",""1"",""2072""
","
","
","""event"",""trial"",""time""
""fullscreenenter"",""1"",""2072""
","
","","","530.2999999821186","","","16","1286","965","f","elianto","#f73b6a7A","-1"," ","0","-10","[1383.199999988079]","1","2","","","1286","32","2","4","lose","no-go","0","0"
"pit-trial","148","1155185","0.0-37.0","battery-v0.2","","""event"",""trial"",""time""
""fullscreenenter"",""1"",""2072""
","
","
","""event"",""trial"",""time""
""fullscreenenter"",""1"",""2072""
","
","","","633","","","16","1286","965","x","elianto","#3366ff99"," "," ","1","+10","[1483.0999999940395]","1","2","","","1286","33","3","1","win","go","0","0"
"pit-trial","149","1159397","0.0-38.0","battery-v0.2","","""event"",""trial"",""time""
""fullscreenenter"",""1"",""2072""
","
","
","""event"",""trial"",""time""
""fullscreenenter"",""1"",""2072""
","
","","","1355.9000000059605","","","16","1286","965","n","elianto","#f73b6a7A"," "," ","1","-10","[2206]","1","2","","","1286","34","1","3","lose","go","1","0"
"pit-trial","150","1162961","0.0-39.0","battery-v0.2","","""event"",""trial"",""time""
""fullscreenenter"",""1"",""2072""
","
","
","""event"",""trial"",""time""
""fullscreenenter"",""1"",""2072""
","
","","","709.5","","","16","1286","965","q","elianto","#3366ff99","-1"," ","0","0","[1559.699999988079]","1","2","","","1286","35","0","2","win","no-go","0","0"
"pit-trial","151","1167816","0.0-40.0","battery-v0.2","","""event"",""trial"",""time""
""fullscreenenter"",""1"",""2072""
","
","
","""event"",""trial"",""time""
""fullscreenenter"",""1"",""2072""
","
","","","-1","","","16","1286","965","f","elianto","#f73b6a7A","-1","-1","1","0","[]","0","2","","","1286","36","2","4","lose","no-go","0","0"
"pit-trial","152","1171517","0.0-41.0","battery-v0.2","","""event"",""trial"",""time""
""fullscreenenter"",""1"",""2072""
","
","
","""event"",""trial"",""time""
""fullscreenenter"",""1"",""2072""
","
","","","845.4000000059605","","","16","1286","965","x","elianto","#3366ff99"," "," ","1","+10","[1695.800000011921]","1","2","","","1286","37","3","1","win","go","0","0"
"pit-trial","153","1176373","0.0-42.0","battery-v0.2","","""event"",""trial"",""time""
""fullscreenenter"",""1"",""2072""
","
","
","""event"",""trial"",""time""
""fullscreenenter"",""1"",""2072""
","
","","","-1","","","16","1286","965","f","elianto","#f73b6a7A","-1","-1","1","0","[]","0","2","","","1286","38","2","4","lose","no-go","0","0"
"pit-trial","154","1181229","0.0-43.0","battery-v0.2","","""event"",""trial"",""time""
""fullscreenenter"",""1"",""2072""
","
","
","""event"",""trial"",""time""
""fullscreenenter"",""1"",""2072""
","
","","","-1","","","16","1286","965","n","elianto","#f73b6a7A"," ","-1","0","-10","[]","0","2","","","1286","39","1","3","lose","go","0","0"
"pit-trial","155","1184891","0.0-44.0","battery-v0.2","","""event"",""trial"",""time""
""fullscreenenter"",""1"",""2072""
","
","
","""event"",""trial"",""time""
""fullscreenenter"",""1"",""2072""
","
","","","806.1000000238419","","","16","1286","965","q","elianto","#3366ff99","-1"," ","0","0","[1656.5999999940395]","1","2","","","1286","40","0","2","win","no-go","0","0"
"pit-trial","156","1189747","0.0-45.0","battery-v0.2","","""event"",""trial"",""time""
""fullscreenenter"",""1"",""2072""
","
","
","""event"",""trial"",""time""
""fullscreenenter"",""1"",""2072""
","
","","","-1","","","16","1286","965","f","elianto","#f73b6a7A","-1","-1","1","-10","[]","0","2","","","1286","41","2","4","lose","no-go","1","0"
"pit-trial","157","1193384","0.0-46.0","battery-v0.2","","""event"",""trial"",""time""
""fullscreenenter"",""1"",""2072""
","
","
","""event"",""trial"",""time""
""fullscreenenter"",""1"",""2072""
","
","","","779.2999999821186","","","16","1286","965","x","elianto","#3366ff99"," "," ","1","+10","[1631]","1","2","","","1286","42","3","1","win","go","0","0"
"pit-trial","158","1197713","0.0-47.0","battery-v0.2","","""event"",""trial"",""time""
""fullscreenenter"",""1"",""2072""
","
","
","""event"",""trial"",""time""
""fullscreenenter"",""1"",""2072""
","
","","","1473.5","","","16","1286","965","n","elianto","#f73b6a7A"," "," ","1","0","[2323.9000000059605]","1","2","","","1286","43","1","3","lose","go","0","0"
"pit-trial","159","1202569","0.0-48.0","battery-v0.2","","""event"",""trial"",""time""
""fullscreenenter"",""1"",""2072""
","
","
","""event"",""trial"",""time""
""fullscreenenter"",""1"",""2072""
","
","","","-1","","","16","1286","965","q","elianto","#3366ff99","-1","-1","1","+10","[]","0","2","","","1286","44","0","2","win","no-go","0","0"
"pit-trial","160","1207425","0.0-49.0","battery-v0.2","","""event"",""trial"",""time""
""fullscreenenter"",""1"",""2072""
","
","
","""event"",""trial"",""time""
""fullscreenenter"",""1"",""2072""
","
","","","-1","","","16","1286","965","f","elianto","#f73b6a7A","-1","-1","1","0","[]","0","2","","","1286","45","2","4","lose","no-go","0","0"
"pit-trial","161","1212280","0.0-50.0","battery-v0.2","","""event"",""trial"",""time""
""fullscreenenter"",""1"",""2072""
","
","
","""event"",""trial"",""time""
""fullscreenenter"",""1"",""2072""
","
","","","-1","","","16","1286","965","q","elianto","#3366ff99","-1","-1","1","0","[]","0","2","","","1286","46","0","2","win","no-go","1","0"
"pit-trial","162","1215669","0.0-51.0","battery-v0.2","","""event"",""trial"",""time""
""fullscreenenter"",""1"",""2072""
","
","
","""event"",""trial"",""time""
""fullscreenenter"",""1"",""2072""
","
","","","533","","","16","1286","965","n","elianto","#f73b6a7A"," "," ","1","0","[1383.4000000059605]","1","2","","","1286","47","1","3","lose","go","0","0"
"pit-trial","163","1219243","0.0-52.0","battery-v0.2","","""event"",""trial"",""time""
""fullscreenenter"",""1"",""2072""
","
","
","""event"",""trial"",""time""
""fullscreenenter"",""1"",""2072""
","
","","","713.5999999940395","","","16","1286","965","x","elianto","#3366ff99"," "," ","1","+10","[1568]","1","2","","","1286","48","3","1","win","go","0","0"
"pit-trial","164","1224099","0.0-53.0","battery-v0.2","","""event"",""trial"",""time""
""fullscreenenter"",""1"",""2072""
","
","
","""event"",""trial"",""time""
""fullscreenenter"",""1"",""2072""
","
","","","-1","","","16","1286","965","q","elianto","#3366ff99","-1","-1","1","0","[]","0","2","","","1286","49","0","2","win","no-go","1","0"
"pit-trial","165","1227658","0.0-54.0","battery-v0.2","","""event"",""trial"",""time""
""fullscreenenter"",""1"",""2072""
","
","
","""event"",""trial"",""time""
""fullscreenenter"",""1"",""2072""
","
","","","698.8000000119209","","","16","1286","965","x","elianto","#3366ff99"," "," ","1","+10","[1553]","1","2","","","1286","50","3","1","win","go","0","0"
"pit-trial","166","1232514","0.0-55.0","battery-v0.2","","""event"",""trial"",""time""
""fullscreenenter"",""1"",""2072""
","
","
","""event"",""trial"",""time""
""fullscreenenter"",""1"",""2072""
","
","","","-1","","","16","1286","965","f","elianto","#f73b6a7A","-1","-1","1","0","[]","0","2","","","1286","51","2","4","lose","no-go","0","0"
"pit-trial","167","1236611","0.0-56.0","battery-v0.2","","""event"",""trial"",""time""
""fullscreenenter"",""1"",""2072""
","
","
","""event"",""trial"",""time""
""fullscreenenter"",""1"",""2072""
","
","","","1239.4000000059605","","","16","1286","965","n","elianto","#f73b6a7A"," "," ","1","0","[2092.7000000178814]","1","2","","","1286","52","1","3","lose","go","0","0"
"pit-trial","168","1241466","0.0-57.0","battery-v0.2","","""event"",""trial"",""time""
""fullscreenenter"",""1"",""2072""
","
","
","""event"",""trial"",""time""
""fullscreenenter"",""1"",""2072""
","
","","","-1","","","16","1286","965","f","elianto","#f73b6a7A","-1","-1","1","0","[]","0","2","","","1286","53","2","4","lose","no-go","0","0"
"pit-trial","169","1245824","0.0-58.0","battery-v0.2","","""event"",""trial"",""time""
""fullscreenenter"",""1"",""2072""
","
","
","""event"",""trial"",""time""
""fullscreenenter"",""1"",""2072""
","
","","","1502.4000000059605","","","16","1286","965","t","elianto","#f73b6a7A"," "," ","1","-10","[2352.5]","1","2","","","1286","54","4","3","lose","go","1","0"
"pit-trial","170","1250186","0.0-59.0","battery-v0.2","","""event"",""trial"",""time""
""fullscreenenter"",""1"",""2072""
","
","
","""event"",""trial"",""time""
""fullscreenenter"",""1"",""2072""
","
","","","1502.2999999821186","","","16","1286","965","n","elianto","#f73b6a7A"," "," ","1","0","[2357.0999999940395]","1","2","","","1286","55","1","3","lose","go","0","0"
"pit-trial","171","1253970","0.0-60.0","battery-v0.2","","""event"",""trial"",""time""
""fullscreenenter"",""1"",""2072""
","
","
","""event"",""trial"",""time""
""fullscreenenter"",""1"",""2072""
","
","","","928.8000000119209","","","16","1286","965","b","elianto","#f73b6a7A","-1"," ","0","-10","[1778.9000000059605]","1","2","","","1286","56","5","4","lose","no-go","0","0"
"pit-trial","172","1258825","0.0-61.0","battery-v0.2","","""event"",""trial"",""time""
""fullscreenenter"",""1"",""2072""
","
","
","""event"",""trial"",""time""
""fullscreenenter"",""1"",""2072""
","
","","","-1","","","16","1286","965","t","elianto","#f73b6a7A"," ","-1","0","-10","[]","0","2","","","1286","57","4","3","lose","go","0","0"
"pit-trial","173","1263680","0.0-62.0","battery-v0.2","","""event"",""trial"",""time""
""fullscreenenter"",""1"",""2072""
","
","
","""event"",""trial"",""time""
""fullscreenenter"",""1"",""2072""
","
","","","-1","","","16","1286","965","f","elianto","#f73b6a7A","-1","-1","1","0","[]","0","2","","","1286","58","2","4","lose","no-go","0","0"
"pit-trial","174","1268535","0.0-63.0","battery-v0.2","","""event"",""trial"",""time""
""fullscreenenter"",""1"",""2072""
","
","
","""event"",""trial"",""time""
""fullscreenenter"",""1"",""2072""
","
","","","-1","","","16","1286","965","b","elianto","#f73b6a7A","-1","-1","1","0","[]","0","2","","","1286","59","5","4","lose","no-go","0","0"
"pit-trial","175","1272614","0.0-64.0","battery-v0.2","","""event"",""trial"",""time""
""fullscreenenter"",""1"",""2072""
","
","
","""event"",""trial"",""time""
""fullscreenenter"",""1"",""2072""
","
","","","1219.9000000059605","","","16","1286","965","n","elianto","#f73b6a7A"," "," ","1","0","[2073.4000000059605]","1","2","","","1286","60","1","3","lose","go","0","0"
"pit-trial","176","1277469","0.0-65.0","battery-v0.2","","""event"",""trial"",""time""
""fullscreenenter"",""1"",""2072""
","
","
","""event"",""trial"",""time""
""fullscreenenter"",""1"",""2072""
","
","","","-1","","","16","1286","965","f","elianto","#f73b6a7A","-1","-1","1","0","[]","0","2","","","1286","61","2","4","lose","no-go","0","0"
"pit-trial","177","1282057","0.0-66.0","battery-v0.2","","""event"",""trial"",""time""
""fullscreenenter"",""1"",""2072""
","
","
","""event"",""trial"",""time""
""fullscreenenter"",""1"",""2072""
","
","","","1732.0999999940395","","","16","1286","965","b","elianto","#f73b6a7A","-1"," ","0","-10","[2582.2000000178814]","1","2","","","1286","62","5","4","lose","no-go","0","0"
"pit-trial","178","1286043","0.0-67.0","battery-v0.2","","""event"",""trial"",""time""
""fullscreenenter"",""1"",""2072""
","
","
","""event"",""trial"",""time""
""fullscreenenter"",""1"",""2072""
","
","","","1130.199999988079","","","16","1286","965","c","elianto","#3366ff99","-1"," ","0","+10","[1980.5999999940395]","1","2","","","1286","63","6","2","win","no-go","1","0"
"pit-trial","179","1290899","0.0-68.0","battery-v0.2","","""event"",""trial"",""time""
""fullscreenenter"",""1"",""2072""
","
","
","""event"",""trial"",""time""
""fullscreenenter"",""1"",""2072""
","
","","","-1","","","16","1286","965","t","elianto","#f73b6a7A"," ","-1","0","-10","[]","0","2","","","1286","64","4","3","lose","go","0","0"
"pit-trial","180","1295553","0.0-69.0","battery-v0.2","","""event"",""trial"",""time""
""fullscreenenter"",""1"",""2072""
","
","
","""event"",""trial"",""time""
""fullscreenenter"",""1"",""2072""
","
","","","1798.2000000178814","","","16","1286","965","c","elianto","#3366ff99","-1"," ","0","0","[2648.7000000178814]","1","2","","","1286","65","6","2","win","no-go","0","0"
"pit-trial","181","1300408","0.0-70.0","battery-v0.2","","""event"",""trial"",""time""
""fullscreenenter"",""1"",""2072""
","
","
","""event"",""trial"",""time""
""fullscreenenter"",""1"",""2072""
","
","","","-1","","","16","1286","965","t","elianto","#f73b6a7A"," ","-1","0","-10","[]","0","2","","","1286","66","4","3","lose","go","0","0"
"pit-trial","182","1305264","0.0-71.0","battery-v0.2","","""event"",""trial"",""time""
""fullscreenenter"",""1"",""2072""
","
","
","""event"",""trial"",""time""
""fullscreenenter"",""1"",""2072""
","
","","","-1","","","16","1286","965","b","elianto","#f73b6a7A","-1","-1","1","0","[2900.9000000059605]","1","2","","","1286","67","5","4","lose","no-go","0","0"
"pit-trial","183","1310120","0.0-72.0","battery-v0.2","","""event"",""trial"",""time""
""fullscreenenter"",""1"",""2072""
","
","
","""event"",""trial"",""time""
""fullscreenenter"",""1"",""2072""
","
","","","-1","","","16","1286","965","f","elianto","#f73b6a7A","-1","-1","1","0","[]","0","2","","","1286","68","2","4","lose","no-go","0","0"
"pit-trial","184","1314976","0.0-73.0","battery-v0.2","","""event"",""trial"",""time""
""fullscreenenter"",""1"",""2072""
","
","
","""event"",""trial"",""time""
""fullscreenenter"",""1"",""2072""
","
","","","-1","","","16","1286","965","b","elianto","#f73b6a7A","-1","-1","1","0","[]","0","2","","","1286","69","5","4","lose","no-go","0","0"
"pit-trial","185","1318635","0.0-74.0","battery-v0.2","","""event"",""trial"",""time""
""fullscreenenter"",""1"",""2072""
","
","
","""event"",""trial"",""time""
""fullscreenenter"",""1"",""2072""
","
","","","803.4000000059605","","","16","1286","965","z","elianto","#3366ff99"," "," ","1","+10","[1653.5999999940395]","1","2","","","1286","70","7","1","win","go","0","0"
"pit-trial","186","1322449","0.0-75.0","battery-v0.2","","""event"",""trial"",""time""
""fullscreenenter"",""1"",""2072""
","
","
","""event"",""trial"",""time""
""fullscreenenter"",""1"",""2072""
","
","","","955.8000000119209","","","16","1286","965","c","elianto","#3366ff99","-1"," ","0","0","[1807.199999988079]","1","2","","","1286","71","6","2","win","no-go","0","0"
"pit-trial","187","1327304","0.0-76.0","battery-v0.2","","""event"",""trial"",""time""
""fullscreenenter"",""1"",""2072""
","
","
","""event"",""trial"",""time""
""fullscreenenter"",""1"",""2072""
","
","","","-1","","","16","1286","965","t","elianto","#f73b6a7A"," ","-1","0","0","[]","0","2","","","1286","72","4","3","lose","go","1","0"
"pit-trial","188","1332160","0.0-77.0","battery-v0.2","","""event"",""trial"",""time""
""fullscreenenter"",""1"",""2072""
","
","
","""event"",""trial"",""time""
""fullscreenenter"",""1"",""2072""
","
","","","-1","","","16","1286","965","b","elianto","#f73b6a7A","-1","-1","1","-10","[]","0","2","","","1286","73","5","4","lose","no-go","1","0"
"pit-trial","189","1335701","0.0-78.0","battery-v0.2","","""event"",""trial"",""time""
""fullscreenenter"",""1"",""2072""
","
","
","""event"",""trial"",""time""
""fullscreenenter"",""1"",""2072""
","
","","","681.2999999821186","","","16","1286","965","c","elianto","#3366ff99","-1"," ","0","0","[1535.199999988079]","1","2","","","1286","74","6","2","win","no-go","0","0"
"pit-trial","190","1340556","0.0-79.0","battery-v0.2","","""event"",""trial"",""time""
""fullscreenenter"",""1"",""2072""
","
","
","""event"",""trial"",""time""
""fullscreenenter"",""1"",""2072""
","
","","","-1","","","16","1286","965","t","elianto","#f73b6a7A"," ","-1","0","-10","[]","0","2","","","1286","75","4","3","lose","go","0","0"
"pit-trial","191","1344306","0.0-80.0","battery-v0.2","","""event"",""trial"",""time""
""fullscreenenter"",""1"",""2072""
","
","
","""event"",""trial"",""time""
""fullscreenenter"",""1"",""2072""
","
","","","895.2000000178814","","","16","1286","965","z","elianto","#3366ff99"," "," ","1","+10","[1745.5999999940395]","1","2","","","1286","76","7","1","win","go","0","0"
"pit-trial","192","1348158","0.0-81.0","battery-v0.2","","""event"",""trial"",""time""
""fullscreenenter"",""1"",""2072""
","
","
","""event"",""trial"",""time""
""fullscreenenter"",""1"",""2072""
","
","","","992.0999999940395","","","16","1286","965","t","elianto","#f73b6a7A"," "," ","1","0","[1845.5]","1","2","","","1286","77","4","3","lose","go","0","0"
"pit-trial","193","1353013","0.0-82.0","battery-v0.2","","""event"",""trial"",""time""
""fullscreenenter"",""1"",""2072""
","
","
","""event"",""trial"",""time""
""fullscreenenter"",""1"",""2072""
","
","","","-1","","","16","1286","965","b","elianto","#f73b6a7A","-1","-1","1","0","[]","0","2","","","1286","78","5","4","lose","no-go","0","0"
"pit-trial","194","1356608","0.0-83.0","battery-v0.2","","""event"",""trial"",""time""
""fullscreenenter"",""1"",""2072""
","
","
","""event"",""trial"",""time""
""fullscreenenter"",""1"",""2072""
","
","","","740","","","16","1286","965","z","elianto","#3366ff99"," "," ","1","+10","[1590.4000000059605]","1","2","","","1286","79","7","1","win","go","0","0"
"pit-trial","195","1360283","0.0-84.0","battery-v0.2","","""event"",""trial"",""time""
""fullscreenenter"",""1"",""2072""
","
","
","""event"",""trial"",""time""
""fullscreenenter"",""1"",""2072""
","
","","","819.1000000238419","","","16","1286","965","c","elianto","#3366ff99","-1"," ","0","+10","[1669.0999999940395]","1","2","","","1286","80","6","2","win","no-go","1","0"
"pit-trial","196","1363893","0.0-85.0","battery-v0.2","","""event"",""trial"",""time""
""fullscreenenter"",""1"",""2072""
","
","
","""event"",""trial"",""time""
""fullscreenenter"",""1"",""2072""
","
","","","749.7999999821186","","","16","1286","965","z","elianto","#3366ff99"," "," ","1","+10","[1604.199999988079]","1","2","","","1286","81","7","1","win","go","0","0"
"pit-trial","197","1368568","0.0-86.0","battery-v0.2","","""event"",""trial"",""time""
""fullscreenenter"",""1"",""2072""
","
","
","""event"",""trial"",""time""
""fullscreenenter"",""1"",""2072""
","
","","","1820.4000000059605","","","16","1286","965","t","elianto","#f73b6a7A"," "," ","1","0","[2670.5999999940395]","1","2","","","1286","82","4","3","lose","go","0","0"
"pit-trial","198","1373424","0.0-87.0","battery-v0.2","","""event"",""trial"",""time""
""fullscreenenter"",""1"",""2072""
","
","
","""event"",""trial"",""time""
""fullscreenenter"",""1"",""2072""
","
","","","-1","","","16","1286","965","b","elianto","#f73b6a7A","-1","-1","1","0","[]","0","2","","","1286","83","5","4","lose","no-go","0","0"
"pit-trial","199","1377045","0.0-88.0","battery-v0.2","","""event"",""trial"",""time""
""fullscreenenter"",""1"",""2072""
","
","
","""event"",""trial"",""time""
""fullscreenenter"",""1"",""2072""
","
","","","765.7999999821186","","","16","1286","965","c","elianto","#3366ff99","-1"," ","0","0","[1616]","1","2","","","1286","84","6","2","win","no-go","0","0"
"pit-trial","200","1381901","0.0-89.0","battery-v0.2","","""event"",""trial"",""time""
""fullscreenenter"",""1"",""2072""
","
","
","""event"",""trial"",""time""
""fullscreenenter"",""1"",""2072""
","
","","","-1","","","16","1286","965","b","elianto","#f73b6a7A","-1","-1","1","0","[]","0","2","","","1286","85","5","4","lose","no-go","0","0"
"pit-trial","201","1386756","0.0-90.0","battery-v0.2","","""event"",""trial"",""time""
""fullscreenenter"",""1"",""2072""
","
","
","""event"",""trial"",""time""
""fullscreenenter"",""1"",""2072""
","
","","","-1","","","16","1286","965","c","elianto","#3366ff99","-1","-1","1","+10","[]","0","2","","","1286","86","6","2","win","no-go","0","0"
"pit-trial","202","1391188","0.0-91.0","battery-v0.2","","""event"",""trial"",""time""
""fullscreenenter"",""1"",""2072""
","
","
","""event"",""trial"",""time""
""fullscreenenter"",""1"",""2072""
","
","","","1576","","","16","1286","965","t","elianto","#f73b6a7A"," "," ","1","0","[2426.0999999940395]","1","2","","","1286","87","4","3","lose","go","0","0"
"pit-trial","203","1394820","0.0-92.0","battery-v0.2","","""event"",""trial"",""time""
""fullscreenenter"",""1"",""2072""
","
","
","""event"",""trial"",""time""
""fullscreenenter"",""1"",""2072""
","
","","","776.9000000059605","","","16","1286","965","z","elianto","#3366ff99"," "," ","1","0","[1627]","1","2","","","1286","88","7","1","win","go","1","0"
"pit-trial","204","1399676","0.0-93.0","battery-v0.2","","""event"",""trial"",""time""
""fullscreenenter"",""1"",""2072""
","
","
","""event"",""trial"",""time""
""fullscreenenter"",""1"",""2072""
","
","","","-1","","","16","1286","965","b","elianto","#f73b6a7A","-1","-1","1","0","[]","0","2","","","1286","89","5","4","lose","no-go","0","0"
"pit-trial","205","1403293","0.0-94.0","battery-v0.2","","""event"",""trial"",""time""
""fullscreenenter"",""1"",""2072""
","
","
","""event"",""trial"",""time""
""fullscreenenter"",""1"",""2072""
","
","","","761.8000000119209","","","16","1286","965","z","elianto","#3366ff99"," "," ","1","0","[1612]","1","2","","","1286","90","7","1","win","go","1","0"
"pit-trial","206","1408149","0.0-95.0","battery-v0.2","","""event"",""trial"",""time""
""fullscreenenter"",""1"",""2072""
","
","
","""event"",""trial"",""time""
""fullscreenenter"",""1"",""2072""
","
","","","-1","","","16","1286","965","c","elianto","#3366ff99","-1","-1","1","+10","[]","0","2","","","1286","91","6","2","win","no-go","0","0"
"pit-trial","207","1412323","0.0-96.0","battery-v0.2","","""event"",""trial"",""time""
""fullscreenenter"",""1"",""2072""
","
","
","""event"",""trial"",""time""
""fullscreenenter"",""1"",""2072""
","
","","","1312.5","","","16","1286","965","t","elianto","#f73b6a7A"," "," ","1","0","[2167.7000000178814]","1","2","","","1286","92","4","3","lose","go","0","0"
"pit-trial","208","1417179","0.0-97.0","battery-v0.2","","""event"",""trial"",""time""
""fullscreenenter"",""1"",""2072""
","
","
","""event"",""trial"",""time""
""fullscreenenter"",""1"",""2072""
","
","","","-1","","","16","1286","965","c","elianto","#3366ff99","-1","-1","1","+10","[]","0","2","","","1286","93","6","2","win","no-go","0","0"
"pit-trial","209","1421079","0.0-98.0","battery-v0.2","","""event"",""trial"",""time""
""fullscreenenter"",""1"",""2072""
","
","
","""event"",""trial"",""time""
""fullscreenenter"",""1"",""2072""
","
","","","1043.4000000059605","","","16","1286","965","z","elianto","#3366ff99"," "," ","1","+10","[1893.800000011921]","1","2","","","1286","94","7","1","win","go","0","0"
"pit-trial","210","1424970","0.0-99.0","battery-v0.2","","""event"",""trial"",""time""
""fullscreenenter"",""1"",""2072""
","
","
","""event"",""trial"",""time""
""fullscreenenter"",""1"",""2072""
","
","","","1031.5999999940395","","","16","1286","965","h","elianto","#3366ff99"," "," ","1","+10","[1885.2999999821186]","1","2","","","1286","95","8","1","win","go","0","0"
"pit-trial","211","1429100","0.0-100.0","battery-v0.2","","""event"",""trial"",""time""
""fullscreenenter"",""1"",""2072""
","
","
","""event"",""trial"",""time""
""fullscreenenter"",""1"",""2072""
","
","","","1273.0999999940395","","","16","1286","965","t","elianto","#f73b6a7A"," "," ","1","0","[2123.2999999821186]","1","2","","","1286","96","4","3","lose","go","0","0"
"pit-trial","212","1432707","0.0-101.0","battery-v0.2","","""event"",""trial"",""time""
""fullscreenenter"",""1"",""2072""
","
","
","""event"",""trial"",""time""
""fullscreenenter"",""1"",""2072""
","
","","","749.1000000238419","","","16","1286","965","z","elianto","#3366ff99"," "," ","1","0","[1599.5]","1","2","","","1286","97","7","1","win","go","1","0"
"pit-trial","213","1436231","0.0-102.0","battery-v0.2","","""event"",""trial"",""time""
""fullscreenenter"",""1"",""2072""
","
","
","""event"",""trial"",""time""
""fullscreenenter"",""1"",""2072""
","
","","","668.1999999880791","","","16","1286","965","h","elianto","#3366ff99"," "," ","1","+10","[1518.4000000059605]","1","2","","","1286","98","8","1","win","go","0","0"
"pit-trial","214","1441085","0.0-103.0","battery-v0.2","","""event"",""trial"",""time""
""fullscreenenter"",""1"",""2072""
","
","
","""event"",""trial"",""time""
""fullscreenenter"",""1"",""2072""
","
","","","-1","","","16","1286","965","c","elianto","#3366ff99","-1","-1","1","0","[]","0","2","","","1286","99","6","2","win","no-go","1","0"
"pit-trial","215","1444865","0.0-104.0","battery-v0.2","","""event"",""trial"",""time""
""fullscreenenter"",""1"",""2072""
","
","
","""event"",""trial"",""time""
""fullscreenenter"",""1"",""2072""
","
","","","924.1000000238419","","","16","1286","965","t","elianto","#f73b6a7A"," "," ","1","0","[1774.3999999761581]","1","2","","","1286","100","4","3","lose","go","0","0"
"pit-trial","216","1449720","0.0-105.0","battery-v0.2","","""event"",""trial"",""time""
""fullscreenenter"",""1"",""2072""
","
","
","""event"",""trial"",""time""
""fullscreenenter"",""1"",""2072""
","
","","","-1","","","16","1286","965","c","elianto","#3366ff99","-1","-1","1","+10","[]","0","2","","","1286","101","6","2","win","no-go","0","0"
"pit-trial","217","1453482","0.0-106.0","battery-v0.2","","""event"",""trial"",""time""
""fullscreenenter"",""1"",""2072""
","
","
","""event"",""trial"",""time""
""fullscreenenter"",""1"",""2072""
","
","","","904.5999999940395","","","16","1286","965","h","elianto","#3366ff99"," "," ","1","+10","[1756.699999988079]","1","2","","","1286","102","8","1","win","go","0","0"
"pit-trial","218","1457237","0.0-107.0","battery-v0.2","","""event"",""trial"",""time""
""fullscreenenter"",""1"",""2072""
","
","
","""event"",""trial"",""time""
""fullscreenenter"",""1"",""2072""
","
","","","898.3999999761581","","","16","1286","965","z","elianto","#3366ff99"," "," ","1","+10","[1749.699999988079]","1","2","","","1286","103","7","1","win","go","0","0"
"pit-trial","219","1461052","0.0-108.0","battery-v0.2","","""event"",""trial"",""time""
""fullscreenenter"",""1"",""2072""
","
","
","""event"",""trial"",""time""
""fullscreenenter"",""1"",""2072""
","
","","","959.6999999880791","","","16","1286","965","y","elianto","#3366ff99","-1"," ","0","0","[1809.4000000059605]","1","2","","","1286","104","9","2","win","no-go","0","0"
"pit-trial","220","1464713","0.0-109.0","battery-v0.2","","""event"",""trial"",""time""
""fullscreenenter"",""1"",""2072""
","
","
","""event"",""trial"",""time""
""fullscreenenter"",""1"",""2072""
","
","","","805.9000000059605","","","16","1286","965","y","elianto","#3366ff99","-1"," ","0","+10","[1656.300000011921]","1","2","","","1286","105","9","2","win","no-go","1","0"
"pit-trial","221","1468319","0.0-110.0","battery-v0.2","","""event"",""trial"",""time""
""fullscreenenter"",""1"",""2072""
","
","
","""event"",""trial"",""time""
""fullscreenenter"",""1"",""2072""
","
","","","746.5999999940395","","","16","1286","965","z","elianto","#3366ff99"," "," ","1","+10","[1600.3999999761581]","1","2","","","1286","106","7","1","win","go","0","0"
"pit-trial","222","1471782","0.0-111.0","battery-v0.2","","""event"",""trial"",""time""
""fullscreenenter"",""1"",""2072""
","
","
","""event"",""trial"",""time""
""fullscreenenter"",""1"",""2072""
","
","","","607","","","16","1286","965","h","elianto","#3366ff99"," "," ","1","+10","[1457.2999999821186]","1","2","","","1286","107","8","1","win","go","0","0"
"pit-trial","223","1476637","0.0-112.0","battery-v0.2","","""event"",""trial"",""time""
""fullscreenenter"",""1"",""2072""
","
","
","""event"",""trial"",""time""
""fullscreenenter"",""1"",""2072""
","
","","","-1","","","16","1286","965","c","elianto","#3366ff99","-1","-1","1","+10","[]","0","2","","","1286","108","6","2","win","no-go","0","0"
"pit-trial","224","1481492","0.0-113.0","battery-v0.2","","""event"",""trial"",""time""
""fullscreenenter"",""1"",""2072""
","
","
","""event"",""trial"",""time""
""fullscreenenter"",""1"",""2072""
","
","","","-1","","","16","1286","965","m","elianto","#f73b6a7A","-1","-1","1","0","[]","0","2","","","1286","109","11","4","lose","no-go","0","0"
"pit-trial","225","1485032","0.0-114.0","battery-v0.2","","""event"",""trial"",""time""
""fullscreenenter"",""1"",""2072""
","
","
","""event"",""trial"",""time""
""fullscreenenter"",""1"",""2072""
","
","","","681.2000000178814","","","16","1286","965","h","elianto","#3366ff99"," "," ","1","+10","[1532.699999988079]","1","2","","","1286","110","8","1","win","go","0","0"
"pit-trial","226","1489081","0.0-115.0","battery-v0.2","","""event"",""trial"",""time""
""fullscreenenter"",""1"",""2072""
","
","
","""event"",""trial"",""time""
""fullscreenenter"",""1"",""2072""
","
","","","1194","","","16","1286","965","r","elianto","#f73b6a7A"," "," ","1","0","[2044.2000000178814]","1","2","","","1286","111","10","3","lose","go","0","0"
"pit-trial","227","1493197","0.0-116.0","battery-v0.2","","""event"",""trial"",""time""
""fullscreenenter"",""1"",""2072""
","
","
","""event"",""trial"",""time""
""fullscreenenter"",""1"",""2072""
","
","","","1259.4000000059605","","","16","1286","965","y","elianto","#3366ff99","-1"," ","0","0","[2109.5]","1","2","","","1286","112","9","2","win","no-go","0","0"
"pit-trial","228","1498053","0.0-117.0","battery-v0.2","","""event"",""trial"",""time""
""fullscreenenter"",""1"",""2072""
","
","
","""event"",""trial"",""time""
""fullscreenenter"",""1"",""2072""
","
","","","-1","","","16","1286","965","y","elianto","#3366ff99","-1","-1","1","0","[]","0","2","","","1286","113","9","2","win","no-go","1","0"
"pit-trial","229","1502908","0.0-118.0","battery-v0.2","","""event"",""trial"",""time""
""fullscreenenter"",""1"",""2072""
","
","
","""event"",""trial"",""time""
""fullscreenenter"",""1"",""2072""
","
","","","-1","","","16","1286","965","m","elianto","#f73b6a7A","-1","-1","1","-10","[]","0","2","","","1286","114","11","4","lose","no-go","1","0"
"pit-trial","230","1506443","0.0-119.0","battery-v0.2","","""event"",""trial"",""time""
""fullscreenenter"",""1"",""2072""
","
","
","""event"",""trial"",""time""
""fullscreenenter"",""1"",""2072""
","
","","","678.5","","","16","1286","965","h","elianto","#3366ff99"," "," ","1","+10","[1528.5999999940395]","1","2","","","1286","115","8","1","win","go","0","0"
"pit-trial","231","1511265","0.0-120.0","battery-v0.2","","""event"",""trial"",""time""
""fullscreenenter"",""1"",""2072""
","
","
","""event"",""trial"",""time""
""fullscreenenter"",""1"",""2072""
","
","","","1966.2000000178814","","","16","1286","965","r","elianto","#f73b6a7A"," "," ","1","0","[2816.5]","1","2","","","1286","116","10","3","lose","go","0","0"
"pit-trial","232","1514794","0.0-121.0","battery-v0.2","","""event"",""trial"",""time""
""fullscreenenter"",""1"",""2072""
","
","
","""event"",""trial"",""time""
""fullscreenenter"",""1"",""2072""
","
","","","671.4000000059605","","","16","1286","965","r","elianto","#f73b6a7A"," "," ","1","0","[1523]","1","2","","","1286","117","10","3","lose","go","0","0"
"pit-trial","233","1519139","0.0-122.0","battery-v0.2","","""event"",""trial"",""time""
""fullscreenenter"",""1"",""2072""
","
","
","""event"",""trial"",""time""
""fullscreenenter"",""1"",""2072""
","
","","","1484.5999999940395","","","16","1286","965","y","elianto","#3366ff99","-1"," ","0","0","[2339.2000000178814]","1","2","","","1286","118","9","2","win","no-go","0","0"
"pit-trial","234","1522801","0.0-123.0","battery-v0.2","","""event"",""trial"",""time""
""fullscreenenter"",""1"",""2072""
","
","
","""event"",""trial"",""time""
""fullscreenenter"",""1"",""2072""
","
","","","806.0999999940395","","","16","1286","965","h","elianto","#3366ff99"," "," ","1","0","[1656.5]","1","2","","","1286","119","8","1","win","go","1","0"
"pit-trial","235","1527658","0.0-124.0","battery-v0.2","","""event"",""trial"",""time""
""fullscreenenter"",""1"",""2072""
","
","
","""event"",""trial"",""time""
""fullscreenenter"",""1"",""2072""
","
","","","-1","","","16","1286","965","m","elianto","#f73b6a7A","-1","-1","1","0","[]","0","2","","","1286","120","11","4","lose","no-go","0","0"
"pit-trial","236","1532515","0.0-125.0","battery-v0.2","","""event"",""trial"",""time""
""fullscreenenter"",""1"",""2072""
","
","
","""event"",""trial"",""time""
""fullscreenenter"",""1"",""2072""
","
","","","-1","","","16","1286","965","m","elianto","#f73b6a7A","-1","-1","1","-10","[]","0","2","","","1286","121","11","4","lose","no-go","1","0"
"pit-trial","237","1536502","0.0-126.0","battery-v0.2","","""event"",""trial"",""time""
""fullscreenenter"",""1"",""2072""
","
","
","""event"",""trial"",""time""
""fullscreenenter"",""1"",""2072""
","
","","","1130.0999999940395","","","16","1286","965","r","elianto","#f73b6a7A"," "," ","1","0","[1980.199999988079]","1","2","","","1286","122","10","3","lose","go","0","0"
"pit-trial","238","1541357","0.0-127.0","battery-v0.2","","""event"",""trial"",""time""
""fullscreenenter"",""1"",""2072""
","
","
","""event"",""trial"",""time""
""fullscreenenter"",""1"",""2072""
","
","","","-1","","","16","1286","965","y","elianto","#3366ff99","-1","-1","1","+10","[]","0","2","","","1286","123","9","2","win","no-go","0","0"
"pit-trial","239","1544933","0.0-128.0","battery-v0.2","","""event"",""trial"",""time""
""fullscreenenter"",""1"",""2072""
","
","
","""event"",""trial"",""time""
""fullscreenenter"",""1"",""2072""
","
","","","720.5","","","16","1286","965","h","elianto","#3366ff99"," "," ","1","0","[1571.2000000178814]","1","2","","","1286","124","8","1","win","go","1","0"
"pit-trial","240","1549788","0.0-129.0","battery-v0.2","","""event"",""trial"",""time""
""fullscreenenter"",""1"",""2072""
","
","
","""event"",""trial"",""time""
""fullscreenenter"",""1"",""2072""
","
","","","-1","","","16","1286","965","m","elianto","#f73b6a7A","-1","-1","1","0","[]","0","2","","","1286","125","11","4","lose","no-go","0","0"
"pit-trial","241","1554643","0.0-130.0","battery-v0.2","","""event"",""trial"",""time""
""fullscreenenter"",""1"",""2072""
","
","
","""event"",""trial"",""time""
""fullscreenenter"",""1"",""2072""
","
","","","-1","","","16","1286","965","h","elianto","#3366ff99"," ","-1","0","0","[]","0","2","","","1286","126","8","1","win","go","0","0"
"pit-trial","242","1559231","0.0-131.0","battery-v0.2","","""event"",""trial"",""time""
""fullscreenenter"",""1"",""2072""
","
","
","""event"",""trial"",""time""
""fullscreenenter"",""1"",""2072""
","
","","","1733.1000000238419","","","16","1286","965","r","elianto","#f73b6a7A"," "," ","1","0","[2583.5]","1","2","","","1286","127","10","3","lose","go","0","0"
"pit-trial","243","1564086","0.0-132.0","battery-v0.2","","""event"",""trial"",""time""
""fullscreenenter"",""1"",""2072""
","
","
","""event"",""trial"",""time""
""fullscreenenter"",""1"",""2072""
","
","","","-1","","","16","1286","965","y","elianto","#3366ff99","-1","-1","1","0","[]","0","2","","","1286","128","9","2","win","no-go","1","0"
"pit-trial","244","1568942","0.0-133.0","battery-v0.2","","""event"",""trial"",""time""
""fullscreenenter"",""1"",""2072""
","
","
","""event"",""trial"",""time""
""fullscreenenter"",""1"",""2072""
","
","","","-1","","","16","1286","965","m","elianto","#f73b6a7A","-1","-1","1","0","[]","0","2","","","1286","129","11","4","lose","no-go","0","0"
"pit-trial","245","1573385","0.0-134.0","battery-v0.2","","""event"",""trial"",""time""
""fullscreenenter"",""1"",""2072""
","
","
","""event"",""trial"",""time""
""fullscreenenter"",""1"",""2072""
","
","","","1587","","","16","1286","965","r","elianto","#f73b6a7A"," "," ","1","-10","[2437.300000011921]","1","2","","","1286","130","10","3","lose","go","1","0"
"pit-trial","246","1578045","0.0-135.0","battery-v0.2","","""event"",""trial"",""time""
""fullscreenenter"",""1"",""2072""
","
","
","""event"",""trial"",""time""
""fullscreenenter"",""1"",""2072""
","
","","","1804.9000000059605","","","16","1286","965","h","elianto","#3366ff99"," "," ","1","+10","[2655]","1","2","","","1286","131","8","1","win","go","0","0"
"pit-trial","247","1582900","0.0-136.0","battery-v0.2","","""event"",""trial"",""time""
""fullscreenenter"",""1"",""2072""
","
","
","""event"",""trial"",""time""
""fullscreenenter"",""1"",""2072""
","
","","","-1","","","16","1286","965","y","elianto","#3366ff99","-1","-1","1","+10","[]","0","2","","","1286","132","9","2","win","no-go","0","0"
"pit-trial","248","1586712","0.0-137.0","battery-v0.2","","""event"",""trial"",""time""
""fullscreenenter"",""1"",""2072""
","
","
","""event"",""trial"",""time""
""fullscreenenter"",""1"",""2072""
","
","","","956.8999999761581","","","16","1286","965","h","elianto","#3366ff99"," "," ","1","+10","[1807.0999999940395]","1","2","","","1286","133","8","1","win","go","0","0"
"pit-trial","249","1590773","0.0-138.0","battery-v0.2","","""event"",""trial"",""time""
""fullscreenenter"",""1"",""2072""
","
","
","""event"",""trial"",""time""
""fullscreenenter"",""1"",""2072""
","
","","","1205.800000011921","","","16","1286","965","r","elianto","#f73b6a7A"," "," ","1","0","[2055.9000000059605]","1","2","","","1286","134","10","3","lose","go","0","0"
"pit-trial","250","1594098","0.0-139.0","battery-v0.2","","""event"",""trial"",""time""
""fullscreenenter"",""1"",""2072""
","
","
","""event"",""trial"",""time""
""fullscreenenter"",""1"",""2072""
","
","","","469.59999999403954","","","16","1286","965","y","elianto","#3366ff99","-1"," ","0","+10","[1319.5999999940395]","1","2","","","1286","135","9","2","win","no-go","1","0"
"pit-trial","251","1598953","0.0-140.0","battery-v0.2","","""event"",""trial"",""time""
""fullscreenenter"",""1"",""2072""
","
","
","""event"",""trial"",""time""
""fullscreenenter"",""1"",""2072""
","
","","","-1","","","16","1286","965","m","elianto","#f73b6a7A","-1","-1","1","0","[]","0","2","","","1286","136","11","4","lose","no-go","0","0"
"pit-trial","252","1602633","0.0-141.0","battery-v0.2","","""event"",""trial"",""time""
""fullscreenenter"",""1"",""2072""
","
","
","""event"",""trial"",""time""
""fullscreenenter"",""1"",""2072""
","
","","","823.4000000059605","","","16","1286","965","r","elianto","#f73b6a7A"," "," ","1","0","[1673.5]","1","2","","","1286","137","10","3","lose","go","0","0"
"pit-trial","253","1606514","0.0-142.0","battery-v0.2","","""event"",""trial"",""time""
""fullscreenenter"",""1"",""2072""
","
","
","""event"",""trial"",""time""
""fullscreenenter"",""1"",""2072""
","
","","","1025.2000000178814","","","16","1286","965","h","elianto","#3366ff99"," "," ","1","+10","[1875.6000000238419]","1","2","","","1286","138","8","1","win","go","0","0"
"pit-trial","254","1610288","0.0-143.0","battery-v0.2","","""event"",""trial"",""time""
""fullscreenenter"",""1"",""2072""
","
","
","""event"",""trial"",""time""
""fullscreenenter"",""1"",""2072""
","
","","","916.7999999821186","","","16","1286","965","y","elianto","#3366ff99","-1"," ","0","0","[1768.2999999821186]","1","2","","","1286","139","9","2","win","no-go","0","0"
"pit-trial","255","1615144","0.0-144.0","battery-v0.2","","""event"",""trial"",""time""
""fullscreenenter"",""1"",""2072""
","
","
","""event"",""trial"",""time""
""fullscreenenter"",""1"",""2072""
","
","","","-1","","","16","1286","965","m","elianto","#f73b6a7A","-1","-1","1","0","[]","0","2","","","1286","140","11","4","lose","no-go","0","0"
"pit-instructions","256","1735039","0.0-145.0","battery-v0.2","","""event"",""trial"",""time""
""fullscreenenter"",""1"",""2072""
","
","
","""event"",""trial"",""time""
""fullscreenenter"",""1"",""2072""
","
","","[{""page_index"":0,""viewing_time"":110585.5},{""page_index"":1,""viewing_time"":9304.300000011921}]","119890.80000001192","","","","","","","","","","","","","","","","","","","","","","","","",""
"pit-trial","257","1738493","0.0-146.0","battery-v0.2","","""event"",""trial"",""time""
""fullscreenenter"",""1"",""2072""
","
","
","""event"",""trial"",""time""
""fullscreenenter"",""1"",""2072""
","
","","","593.2999999821186","","","16","1286","965","v","elianto","#3366ff99","-1"," ","0","0","[1443.5999999940395]","1","3","","","1286","141","0","2","win","no-go","0","0"
"pit-trial","258","1741988","0.0-147.0","battery-v0.2","","""event"",""trial"",""time""
""fullscreenenter"",""1"",""2072""
","
","
","""event"",""trial"",""time""
""fullscreenenter"",""1"",""2072""
","
","","","638.0999999940395","","","16","1286","965","k","elianto","#f73b6a7A"," "," ","1","0","[1488.2999999821186]","1","3","","","1286","142","3","3","lose","go","0","0"
"pit-trial","259","1745329","0.0-148.0","battery-v0.2","","""event"",""trial"",""time""
""fullscreenenter"",""1"",""2072""
","
","
","""event"",""trial"",""time""
""fullscreenenter"",""1"",""2072""
","
","","","486.90000000596046","","","16","1286","965","d","elianto","#3366ff99"," "," ","1","+10","[1336.8999999761581]","1","3","","","1286","143","2","1","win","go","0","0"
"pit-trial","260","1748773","0.0-149.0","battery-v0.2","","""event"",""trial"",""time""
""fullscreenenter"",""1"",""2072""
","
","
","""event"",""trial"",""time""
""fullscreenenter"",""1"",""2072""
","
","","","583.8000000119209","","","16","1286","965","j","elianto","#3366ff99","-1"," ","0","0","[1437.4000000059605]","1","3","","","1286","144","1","2","win","no-go","0","0"
"pit-trial","261","1753628","0.0-150.0","battery-v0.2","","""event"",""trial"",""time""
""fullscreenenter"",""1"",""2072""
","
","
","""event"",""trial"",""time""
""fullscreenenter"",""1"",""2072""
","
","","","-1","","","16","1286","965","v","elianto","#3366ff99","-1","-1","1","+10","[]","0","3","","","1286","145","0","2","win","no-go","0","0"
"pit-trial","262","1758484","0.0-151.0","battery-v0.2","","""event"",""trial"",""time""
""fullscreenenter"",""1"",""2072""
","
","
","""event"",""trial"",""time""
""fullscreenenter"",""1"",""2072""
","
","","","-1","","","16","1286","965","d","elianto","#3366ff99"," ","-1","0","0","[]","0","3","","","1286","146","2","1","win","go","0","0"
"pit-trial","263","1763340","0.0-152.0","battery-v0.2","","""event"",""trial"",""time""
""fullscreenenter"",""1"",""2072""
","
","
","""event"",""trial"",""time""
""fullscreenenter"",""1"",""2072""
","
","","","-1","","","16","1286","965","j","elianto","#3366ff99","-1","-1","1","+10","[]","0","3","","","1286","147","1","2","win","no-go","0","0"
"pit-trial","264","1767688","0.0-153.0","battery-v0.2","","""event"",""trial"",""time""
""fullscreenenter"",""1"",""2072""
","
","
","""event"",""trial"",""time""
""fullscreenenter"",""1"",""2072""
","
