"trial_type","trial_index","time_elapsed","internal_node_id","task_version","success","view_history","rt","responses","num_errors","age","subject","participantId","rune","rune_set","hex","correct","choice","accuracy","outcome","keys","total_keys","block","practice","value","sub","trial","stimulus","robot","valence","action","sham","browser_interactions"
"pavlovia","0","29","0.0-0.0","battery-v0.2","","","","","","","","","","","","","","","","","","","","","","","","","","","",""
"fullscreen","1","3172","0.0-1.0","battery-v0.2","true","","","","","","","","","","","","","","","","","","","","","","","","","","",""
"pit-instructions","2","19546","0.0-2.0-0.0","battery-v0.2","","[{""page_index"":0,""viewing_time"":16367.29999999702}]","16367.89999999106","","","","","","","","","","","","","","","","","","","","","","","","",""
"pit-comprehension","3","23311","0.0-2.0-1.0-0.0","battery-v0.2","","","3750.7999999970198","[""shark""]","0","17","844","969","","","","","","","","","","","","","","","","","","","",""
"pit-instructions","4","26564","0.0-2.0-1.0-1.0","battery-v0.2","","[{""page_index"":0,""viewing_time"":3228.7999999970198}]","3229.5999999940395","","","","","","","","","","","","","","","","","","","","","","","","",""
"pit-comprehension","5","29571","0.0-2.0-2.0-0.0","battery-v0.2","","","2990.7000000029802","[""tiger""]","0","17","844","969","","","","","","","","","","","","","","","","","","","",""
"pit-instructions","6","30915","0.0-2.0-2.0-1.0","battery-v0.2","","[{""page_index"":0,""viewing_time"":1331.2999999970198}]","1331.7000000029802","","","","","","","","","","","","","","","","","","","","","","","","",""
"pit-instructions","7","136137","0.0-2.0-3.0","battery-v0.2","","[{""page_index"":0,""viewing_time"":9437.10000000894},{""page_index"":1,""viewing_time"":7305},{""page_index"":2,""viewing_time"":6259.5},{""page_index"":3,""viewing_time"":8010.70000000298},{""page_index"":4,""viewing_time"":5507},{""page_index"":5,""viewing_time"":9018.5},{""page_index"":6,""viewing_time"":7534},{""page_index"":7,""viewing_time"":6851.5999999940395},{""page_index"":8,""viewing_time"":7752.5999999940395},{""page_index"":9,""viewing_time"":9016.5},{""page_index"":10,""viewing_time"":8387.70000000298},{""page_index"":11,""viewing_time"":7470},{""page_index"":12,""viewing_time"":7572.100000008941},{""page_index"":13,""viewing_time"":5091.0999999940395}]","105214","","","","","","","","","","","","","","","","","","","","","","","","",""
"pit-trial","8","139822","0.0-2.0-4.0-0.0","battery-v0.2","","","804.5999999940395","","","17","844","969","&#9784;","elianto","#FFFFF080"," "," ","1","&#10004","[1661.5]","1","0","0","","","","","","","","",""
"pit-trial","9","143509","0.0-2.0-4.1-0.1","battery-v0.2","","","811.9000000059605","","","17","844","969","&#9784;","elianto","#FFFFF080"," "," ","1","&#10004","[1669.7000000029802]","1","0","0","","","","","","","","",""
"pit-trial","10","147249","0.0-2.0-4.2-0.2","battery-v0.2","","","861.7999999970198","","","17","844","969","&#9784;","elianto","#FFFFF080"," "," ","1","&#10004","[1715.9000000059605]","1","0","0","","","","","","","","",""
"pit-trial","11","150958","0.0-2.0-4.3-0.3","battery-v0.2","","","819.7000000029802","","","17","844","969","&#9784;","elianto","#FFFFF080"," "," ","1","&#10004","[1679]","1","0","0","","","","","","","","",""
"pit-trial","12","154623","0.0-2.0-4.4-0.4","battery-v0.2","","","784.7999999970198","","","17","844","969","&#9784;","elianto","#FFFFF080"," "," ","1","&#10004","[1642.8999999910593]","1","0","0","","","","","","","","",""
"pit-instructions","13","177609","0.0-2.0-5.0","battery-v0.2","","[{""page_index"":0,""viewing_time"":5130.9000000059605},{""page_index"":1,""viewing_time"":5477.70000000298},{""page_index"":2,""viewing_time"":7242},{""page_index"":3,""viewing_time"":5115.899999991059}]","22966.79999999702","","","","","","","","","","","","","","","","","","","","","","","","",""
"pit-trial","14","182485","0.0-2.0-6.0-0.0","battery-v0.2","","","-1","","","17","844","969","&#9854;","elianto","#FFFFF080","-1","-1","1","&#10004","[]","0","0","1","","","","","","","","",""
"pit-trial","15","187380","0.0-2.0-6.1-0.1","battery-v0.2","","","-1","","","17","844","969","&#9854;","elianto","#FFFFF080","-1","-1","1","&#10004","[]","0","0","1","","","","","","","","",""
"pit-trial","16","192274","0.0-2.0-6.2-0.2","battery-v0.2","","","-1","","","17","844","969","&#9854;","elianto","#FFFFF080","-1","-1","1","&#10004","[]","0","0","1","","","","","","","","",""
"pit-trial","17","197146","0.0-2.0-6.3-0.3","battery-v0.2","","","-1","","","17","844","969","&#9854;","elianto","#FFFFF080","-1","-1","1","&#10004","[]","0","0","1","","","","","","","","",""
"pit-trial","18","202025","0.0-2.0-6.4-0.4","battery-v0.2","","","-1","","","17","844","969","&#9854;","elianto","#FFFFF080","-1","-1","1","&#10004","[]","0","0","1","","","","","","","","",""
"pit-instructions","19","507957","0.0-2.0-7.0","battery-v0.2","","[{""page_index"":0,""viewing_time"":12676.09999999404},{""page_index"":1,""viewing_time"":148292},{""page_index"":2,""viewing_time"":7338.70000000298},{""page_index"":3,""viewing_time"":7308.20000000298},{""page_index"":4,""viewing_time"":5758.79999999702},{""page_index"":5,""viewing_time"":7584.5999999940395},{""page_index"":6,""viewing_time"":6260.100000008941},{""page_index"":7,""viewing_time"":7815},{""page_index"":8,""viewing_time"":7729.0999999940395},{""page_index"":9,""viewing_time"":12428.70000000298},{""page_index"":10,""viewing_time"":25144.79999999702},{""page_index"":11,""viewing_time"":7464.70000000298},{""page_index"":12,""viewing_time"":7906.20000000298},{""page_index"":13,""viewing_time"":8599.199999988079},{""page_index"":14,""viewing_time"":8458.40000000596},{""page_index"":15,""viewing_time"":9257.59999999404},{""page_index"":16,""viewing_time"":8452.90000000596},{""page_index"":17,""viewing_time"":7438}]","305914.09999999404","","","","","","","","","","","","","","","","","","","","","","","","",""
"pit-trial","20","511483","0.0-2.0-8.0-0.0","battery-v0.2","","","646.7999999970198","","","17","844","969","&#9776;","elianto","#3366ff99"," "," ","1","+10","[1503.5]","1","0","1","","","","","","","","",""
"pit-trial","21","514877","0.0-2.0-8.0-1.0","battery-v0.2","","","536.5","","","17","844","969","&#9776;","elianto","#3366ff99"," "," ","1","+10","[1387.0999999940395]","1","0","1","","","","","","","","",""
"pit-trial","22","518202","0.0-2.0-8.0-2.0","battery-v0.2","","","443.5","","","17","844","969","&#9776;","elianto","#3366ff99"," "," ","1","+10","[1298.3999999910593]","1","0","1","","","","","","","","",""
"pit-trial","23","521559","0.0-2.0-8.0-3.0","battery-v0.2","","","493.40000000596046","","","17","844","969","&#9776;","elianto","#3366ff99"," "," ","1","0","[1344.5999999940395]","1","0","1","","","","","","","","",""
"pit-trial","24","524832","0.0-2.0-8.0-4.0","battery-v0.2","","","405","","","17","844","969","&#9776;","elianto","#3366ff99"," "," ","1","+10","[1256.5999999940395]","1","0","1","","","","","","","","",""
"call-function","25","524847","0.0-2.0-9.0","battery-v0.2","","","","","","","","","","","","","","","","","","","","","","","","","","","",""
"pit-instructions","26","568285","0.0-2.0-10.0","battery-v0.2","","[{""page_index"":0,""viewing_time"":7345.5999999940395},{""page_index"":1,""viewing_time"":7059.5},{""page_index"":2,""viewing_time"":9905.5},{""page_index"":3,""viewing_time"":11317.5},{""page_index"":4,""viewing_time"":7807.600000008941}]","43436.5","","","","","","","","","","","","","","","","","","","","","","","","",""
"pit-trial","27","571883","0.0-2.0-11.0-0.0","battery-v0.2","","","722.4000000059605","","","17","844","969","&#9761;","elianto","#3366ff99","-1"," ","0","0","[1572.5]","1","0","2","","","","","","","","",""
"pit-trial","28","575415","0.0-2.0-11.0-1.0","battery-v0.2","","","660.2000000029802","","","17","844","969","&#9761;","elianto","#3366ff99","-1"," ","0","0","[1512.699999988079]","1","0","2","","","","","","","","",""
"pit-trial","29","580302","0.0-2.0-11.0-2.0","battery-v0.2","","","-1","","","17","844","969","&#9761;","elianto","#3366ff99","-1","-1","1","+10","[]","0","0","2","","","","","","","","",""
"pit-trial","30","585186","0.0-2.0-11.0-3.0","battery-v0.2","","","-1","","","17","844","969","&#9761;","elianto","#3366ff99","-1","-1","1","0","[]","0","0","2","","","","","","","","",""
"pit-trial","31","590065","0.0-2.0-11.0-4.0","battery-v0.2","","","-1","","","17","844","969","&#9761;","elianto","#3366ff99","-1","-1","1","+10","[]","0","0","2","","","","","","","","",""
"pit-trial","32","594948","0.0-2.0-11.1-0.1","battery-v0.2","","","-1","","","17","844","969","&#9761;","elianto","#3366ff99","-1","-1","1","+10","[]","0","0","2","","","","","","","","",""
"pit-trial","33","599815","0.0-2.0-11.1-1.1","battery-v0.2","","","-1","","","17","844","969","&#9761;","elianto","#3366ff99","-1","-1","1","+10","[]","0","0","2","","","","","","","","",""
"pit-trial","34","604679","0.0-2.0-11.1-2.1","battery-v0.2","","","-1","","","17","844","969","&#9761;","elianto","#3366ff99","-1","-1","1","+10","[]","0","0","2","","","","","","","","",""
"pit-trial","35","609537","0.0-2.0-11.1-3.1","battery-v0.2","","","-1","","","17","844","969","&#9761;","elianto","#3366ff99","-1","-1","1","0","[]","0","0","2","","","","","","","","",""
"pit-trial","36","614402","0.0-2.0-11.1-4.1","battery-v0.2","","","-1","","","17","844","969","&#9761;","elianto","#3366ff99","-1","-1","1","+10","[]","0","0","2","","","","","","","","",""
"call-function","37","614414","0.0-2.0-12.0","battery-v0.2","","","","","","","","","","","","","","","","","","","","","","","","","","","",""
"pit-instructions","38","651181","0.0-2.0-13.0","battery-v0.2","","[{""page_index"":0,""viewing_time"":6409.0999999940395},{""page_index"":1,""viewing_time"":8347.10000000894},{""page_index"":2,""viewing_time"":4800.5999999940395},{""page_index"":3,""viewing_time"":10095.59999999404},{""page_index"":4,""viewing_time"":7114}]","36767","","","","","","","","","","","","","","","","","","","","","","","","",""
"pit-trial","39","656062","0.0-2.0-14.0-0.0","battery-v0.2","","","-1","","","17","844","969","&#9826;","elianto","#f73b6a7A","-1","-1","1","0","[]","0","0","3","","","","","","","","",""
"pit-trial","40","660937","0.0-2.0-14.0-1.0","battery-v0.2","","","-1","","","17","844","969","&#9826;","elianto","#f73b6a7A","-1","-1","1","0","[]","0","0","3","","","","","","","","",""
"pit-trial","41","665813","0.0-2.0-14.0-2.0","battery-v0.2","","","-1","","","17","844","969","&#9826;","elianto","#f73b6a7A","-1","-1","1","0","[]","0","0","3","","","","","","","","",""
"pit-trial","42","670687","0.0-2.0-14.0-3.0","battery-v0.2","","","-1","","","17","844","969","&#9826;","elianto","#f73b6a7A","-1","-1","1","-10","[]","0","0","3","","","","","","","","",""
"pit-trial","43","675565","0.0-2.0-14.0-4.0","battery-v0.2","","","-1","","","17","844","969","&#9826;","elianto","#f73b6a7A","-1","-1","1","0","[]","0","0","3","","","","","","","","",""
"call-function","44","675582","0.0-2.0-15.0","battery-v0.2","","","","","","","","","","","","","","","","","","","","","","","","","","","",""
"pit-instructions","45","701898","0.0-2.0-16.0","battery-v0.2","","[{""page_index"":0,""viewing_time"":6776.100000008941},{""page_index"":1,""viewing_time"":9477.199999988079},{""page_index"":2,""viewing_time"":5471.70000000298},{""page_index"":3,""viewing_time"":4587.9000000059605}]","26314.29999999702","","","","","","","","","","","","","","","","","","","","","","","","",""
"pit-trial","46","705406","0.0-2.0-17.0-0.0","battery-v0.2","","","641.7000000029802","","","17","844","969","&#9789;","elianto","#f73b6a7A"," "," ","1","0","[1495]","1","0","4","","","","","","","","",""
"pit-trial","47","708771","0.0-2.0-17.0-1.0","battery-v0.2","","","493.70000000298023","","","17","844","969","&#9789;","elianto","#f73b6a7A"," "," ","1","0","[1344.2000000029802]","1","0","4","","","","","","","","",""
"pit-trial","48","712211","0.0-2.0-17.0-2.0","battery-v0.2","","","557","","","17","844","969","&#9789;","elianto","#f73b6a7A"," "," ","1","0","[1411.9000000059605]","1","0","4","","","","","","","","",""
"pit-trial","49","715627","0.0-2.0-17.0-3.0","battery-v0.2","","","542.7999999970198","","","17","844","969","&#9789;","elianto","#f73b6a7A"," "," ","1","-10","[1399.2000000029802]","1","0","4","","","","","","","","",""
"pit-trial","50","718968","0.0-2.0-17.0-4.0","battery-v0.2","","","465.40000000596046","","","17","844","969","&#9789;","elianto","#f73b6a7A"," "," ","1","0","[1323.0999999940395]","1","0","4","","","","","","","","",""
"call-function","51","718982","0.0-2.0-18.0","battery-v0.2","","","","","","","","","","","","","","","","","","","","","","","","","","","",""
"pit-instructions","52","792476","0.0-2.0-19.0","battery-v0.2","","[{""page_index"":0,""viewing_time"":6828.300000011921},{""page_index"":1,""viewing_time"":7049.29999999702},{""page_index"":2,""viewing_time"":14389.89999999106},{""page_index"":3,""viewing_time"":7926},{""page_index"":4,""viewing_time"":8713.20000000298},{""page_index"":5,""viewing_time"":8931.90000000596},{""page_index"":6,""viewing_time"":8476.79999999702},{""page_index"":7,""viewing_time"":6166.5},{""page_index"":8,""viewing_time"":5009.9000000059605}]","73492.40000000596","","","","","","","","","","","","","","","","","","","","","","","","",""
"pit-comprehension","53","797911","0.0-2.0-20.0-0.0","battery-v0.2","","","5424.5","[""SPACE""]","0","17","844","969","","","","","","","","","","","","","","","","","","","",""
"pit-instructions","54","802385","0.0-2.0-20.0-1.0","battery-v0.2","","[{""page_index"":0,""viewing_time"":4452.399999991059}]","4453.20000000298","","","","","","","","","","","","","","","","","","","","","","","","",""
"pit-comprehension","55","808589","0.0-2.0-21.0-0.0","battery-v0.2","","","6195.4000000059605","[""10""]","0","17","844","969","","","","","","","","","","","","","","","","","","","",""
"pit-instructions","56","810303","0.0-2.0-21.0-1.0","battery-v0.2","","[{""page_index"":0,""viewing_time"":1692}]","1692.2999999970198","","","","","","","","","","","","","","","","","","","","","","","","",""
"pit-comprehension","57","817624","0.0-2.0-22.0-0.0","battery-v0.2","","","7312.5999999940395","[""0""]","0","17","844","969","","","","","","","","","","","","","","","","","","","",""
"pit-instructions","58","820267","0.0-2.0-22.0-1.0","battery-v0.2","","[{""page_index"":0,""viewing_time"":2609.9000000059605}]","2610.300000011921","","","","","","","","","","","","","","","","","","","","","","","","",""
"pit-comprehension","59","829188","0.0-2.0-23.0-0.0","battery-v0.2","","","8908.90000000596","[""True""]","0","17","844","969","","","","","","","","","","","","","","","","","","","",""
"pit-instructions","60","834456","0.0-2.0-23.0-1.0","battery-v0.2","","[{""page_index"":0,""viewing_time"":5233.20000000298}]","5233.5999999940395","","","","","","","","","","","","","","","","","","","","","","","","",""
"pit-comprehension","61","841885","0.0-2.0-24.0-0.0","battery-v0.2","","","7419.79999999702","[""True""]","0","17","844","969","","","","","","","","","","","","","","","","","","","",""
"pit-instructions","62","846815","0.0-2.0-24.0-1.0","battery-v0.2","","[{""page_index"":0,""viewing_time"":4890.20000000298}]","4890.70000000298","","","","","","","","","","","","","","","","","","","","","","","","",""
"pit-comprehension","63","853799","0.0-2.0-25.0-0.0","battery-v0.2","","","6975.20000000298","[""True""]","0","17","844","969","","","","","","","","","","","","","","","","","","","",""
"pit-instructions","64","855651","0.0-2.0-25.0-1.0","battery-v0.2","","[{""page_index"":0,""viewing_time"":1834.7000000029802}]","1835.5","","","","","","","","","","","","","","","","","","","","","","","","",""
"pit-comprehension","65","860897","0.0-2.0-26.0-0.0","battery-v0.2","","","5229.899999991059","[""False""]","0","17","844","969","","","","","","","","","","","","","","","","","","","",""
"pit-instructions","66","863023","0.0-2.0-26.0-1.0","battery-v0.2","","[{""page_index"":0,""viewing_time"":2109.6000000089407}]","2110","","","","","","","","","","","","","","","","","","","","","","","","",""
"pit-instructions","67","881821","0.0-3.0","battery-v0.2","","[{""page_index"":0,""viewing_time"":5275.5},{""page_index"":1,""viewing_time"":6156.600000008941},{""page_index"":2,""viewing_time"":7353.199999988079}]","18786.10000000894","","","","","","","","","","","","","","","","","","","","","","","","",""
"pit-trial","68","885348","0.0-4.0","battery-v0.2","","","641.5","","","17","844","969","&#9733;","elianto","#3366ff99","-1"," ","0","+10","[1494]","1","1","","","844","1","2","2","win","no-go","1","[]"
"pit-trial","69","889239","0.0-5.0","battery-v0.2","","","1024.2999999970198","","","17","844","969","&#9730;","elianto","#3366ff99"," "," ","1","0","[1880.699999988079]","1","1","","","844","2","1","1","win","go","1","0"
"pit-trial","70","893366","0.0-6.0","battery-v0.2","","","1251.4000000059605","","","17","844","969","&#9752;","elianto","#f73b6a7A"," "," ","1","0","[2108.2999999970198]","1","1","","","844","3","3","3","lose","go","0","0"
"pit-trial","71","897553","0.0-7.0","battery-v0.2","","","1310.6000000089407","","","17","844","969","&#9728;","elianto","#f73b6a7A","-1"," ","0","-10","[2167.0999999940395]","1","1","","","844","4","0","4","lose","no-go","0","0"
"pit-trial","72","901338","0.0-8.0","battery-v0.2","","","924.7000000029802","","","17","844","969","&#9752;","elianto","#f73b6a7A"," "," ","1","0","[1775.5999999940395]","1","1","","","844","5","3","3","lose","go","0","0"
"pit-trial","73","906207","0.0-9.0","battery-v0.2","","","-1","","","17","844","969","&#9728;","elianto","#f73b6a7A","-1","-1","1","-10","[]","0","1","","","844","6","0","4","lose","no-go","1","0"
"pit-trial","74","909906","0.0-10.0","battery-v0.2","","","837.6000000089407","","","17","844","969","&#9730;","elianto","#3366ff99"," "," ","1","0","[1690.7000000029802]","1","1","","","844","7","1","1","win","go","1","0"
"pit-trial","75","913544","0.0-11.0","battery-v0.2","","","768.4000000059605","","","17","844","969","&#9733;","elianto","#3366ff99","-1"," ","0","0","[1624.2999999970198]","1","1","","","844","8","2","2","win","no-go","0","0"
"pit-trial","76","918302","0.0-12.0","battery-v0.2","","","1893","","","17","844","969","&#9728;","elianto","#f73b6a7A","-1"," ","0","-10","[2743.4000000059605]","1","1","","","844","9","0","4","lose","no-go","0","0"
"pit-trial","77","921972","0.0-13.0","battery-v0.2","","","811.2999999970198","","","17","844","969","&#9752;","elianto","#f73b6a7A"," "," ","1","0","[1662.4000000059605]","1","1","","","844","10","3","3","lose","go","0","0"
"pit-trial","78","925678","0.0-14.0","battery-v0.2","","","846","","","17","844","969","&#9730;","elianto","#3366ff99"," "," ","1","0","[1697.8999999910593]","1","1","","","844","11","1","1","win","go","1","0"
"pit-trial","79","929455","0.0-15.0","battery-v0.2","","","912","","","17","844","969","&#9733;","elianto","#3366ff99","-1"," ","0","0","[1763]","1","1","","","844","12","2","2","win","no-go","0","0"
"pit-trial","80","934313","0.0-16.0","battery-v0.2","","","-1","","","17","844","969","&#9730;","elianto","#3366ff99"," ","-1","0","+10","[]","0","1","","","844","13","1","1","win","go","1","0"
"pit-trial","81","939181","0.0-17.0","battery-v0.2","","","-1","","","17","844","969","&#9733;","elianto","#3366ff99","-1","-1","1","+10","[]","0","1","","","844","14","2","2","win","no-go","0","0"
"pit-trial","82","943827","0.0-18.0","battery-v0.2","","","1782.4000000059605","","","17","844","969","&#9728;","elianto","#f73b6a7A","-1"," ","0","-10","[2633.5]","1","1","","","844","15","0","4","lose","no-go","0","0"
"pit-trial","83","947927","0.0-19.0","battery-v0.2","","","1234.5999999940395","","","17","844","969","&#9752;","elianto","#f73b6a7A"," "," ","1","0","[2085.4000000059605]","1","1","","","844","16","3","3","lose","go","0","0"
"pit-trial","84","952794","0.0-20.0","battery-v0.2","","","-1","","","17","844","969","&#9733;","elianto","#3366ff99","-1","-1","1","0","[]","0","1","","","844","17","2","2","win","no-go","1","0"
"pit-trial","85","957649","0.0-21.0","battery-v0.2","","","-1","","","17","844","969","&#9728;","elianto","#f73b6a7A","-1","-1","1","0","[]","0","1","","","844","18","0","4","lose","no-go","0","0"
"pit-trial","86","962507","0.0-22.0","battery-v0.2","","","-1","","","17","844","969","&#9730;","elianto","#3366ff99"," ","-1","0","0","[]","0","1","","","844","19","1","1","win","go","0","0"
"pit-trial","87","966457","0.0-23.0","battery-v0.2","","","1081.7000000029802","","","17","844","969","&#9752;","elianto","#f73b6a7A"," "," ","1","0","[1933.2000000029802]","1","1","","","844","20","3","3","lose","go","0","0"
"pit-instructions","88","979269","0.0-24.0","battery-v0.2","","[{""page_index"":0,""viewing_time"":6042.70000000298},{""page_index"":1,""viewing_time"":6762.100000008941}]","12805.40000000596","","","","","","","","","","","","","","","","","","","","","","","","",""
"pit-trial","89","983210","0.0-25.0","battery-v0.2","","","1062.2000000029802","","","17","844","969","h","elianto","#3366ff99"," "," ","1","+10","[1916]","1","2","","","844","21","3","1","win","go","0","0"
"pit-trial","90","986895","0.0-26.0","battery-v0.2","","","811.4000000059605","","","17","844","969","m","elianto","#3366ff99","-1"," ","0","0","[1666.3999999910593]","1","2","","","844","22","0","2","win","no-go","0","0"
"pit-trial","91","991773","0.0-27.0","battery-v0.2","","","-1","","","17","844","969","r","elianto","#f73b6a7A"," ","-1","0","-10","[]","0","2","","","844","23","1","3","lose","go","0","0"
"pit-trial","92","995600","0.0-28.0","battery-v0.2","","","945.2999999970198","","","17","844","969","y","elianto","#f73b6a7A","-1"," ","0","0","[1799.5]","1","2","","","844","24","2","4","lose","no-go","1","0"
"pit-trial","93","1000482","0.0-29.0","battery-v0.2","","","-1","","","17","844","969","m","elianto","#3366ff99","-1","-1","1","0","[]","0","2","","","844","25","0","2","win","no-go","1","0"
"pit-trial","94","1004075","0.0-30.0","battery-v0.2","","","711.7999999970198","","","17","844","969","r","elianto","#f73b6a7A"," "," ","1","0","[1572.7000000029802]","1","2","","","844","26","1","3","lose","go","0","0"
"pit-trial","95","1008223","0.0-31.0","battery-v0.2","","","1275.6000000089407","","","17","844","969","y","elianto","#f73b6a7A","-1"," ","0","-10","[2131.8999999910593]","1","2","","","844","27","2","4","lose","no-go","0","0"
"pit-trial","96","1011690","0.0-32.0","battery-v0.2","","","610.9000000059605","","","17","844","969","h","elianto","#3366ff99"," "," ","1","+10","[1461]","1","2","","","844","28","3","1","win","go","0","0"
"pit-trial","97","1015183","0.0-33.0","battery-v0.2","","","627","","","17","844","969","h","elianto","#3366ff99"," "," ","1","+10","[1477.5]","1","2","","","844","29","3","1","win","go","0","0"
"pit-trial","98","1018886","0.0-34.0","battery-v0.2","","","840.5","","","17","844","969","r","elianto","#f73b6a7A"," "," ","1","0","[1690.7000000029802]","1","2","","","844","30","1","3","lose","go","0","0"
"pit-trial","99","1023752","0.0-35.0","battery-v0.2","","","-1","","","17","844","969","y","elianto","#f73b6a7A","-1","-1","1","0","[]","0","2","","","844","31","2","4","lose","no-go","0","0"
"pit-trial","100","1028370","0.0-36.0","battery-v0.2","","","1750.3999999910593","","","17","844","969","m","elianto","#3366ff99","-1"," ","0","0","[2602.8999999910593]","1","2","","","844","32","0","2","win","no-go","0","0"
"pit-trial","101","1033232","0.0-37.0","battery-v0.2","","","-1","","","17","844","969","y","elianto","#f73b6a7A","-1","-1","1","-10","[]","0","2","","","844","33","2","4","lose","no-go","1","0"
"pit-trial","102","1037273","0.0-38.0","battery-v0.2","","","1175.1000000089407","","","17","844","969","m","elianto","#3366ff99","-1"," ","0","+10","[2025.9000000059605]","1","2","","","844","34","0","2","win","no-go","1","0"
"pit-trial","103","1041005","0.0-39.0","battery-v0.2","","","875.7999999970198","","","17","844","969","h","elianto","#3366ff99"," "," ","1","+10","[1726.2000000029802]","1","2","","","844","35","3","1","win","go","0","0"
"pit-trial","104","1045046","0.0-40.0","battery-v0.2","","","1175.300000011921","","","17","844","969","r","elianto","#f73b6a7A"," "," ","1","0","[2026.9000000059605]","1","2","","","844","36","1","3","lose","go","0","0"
"pit-trial","105","1049902","0.0-41.0","battery-v0.2","","","-1","","","17","844","969","y","elianto","#f73b6a7A","-1","-1","1","0","[]","0","2","","","844","37","2","4","lose","no-go","0","0"
"pit-trial","106","1053448","0.0-42.0","battery-v0.2","","","679.1999999880791","","","17","844","969","h","elianto","#3366ff99"," "," ","1","+10","[1530.5]","1","2","","","844","38","3","1","win","go","0","0"
"pit-trial","107","1057047","0.0-43.0","battery-v0.2","","","732.5999999940395","","","17","844","969","r","elianto","#f73b6a7A"," "," ","1","0","[1583]","1","2","","","844","39","1","3","lose","go","0","0"
"pit-trial","108","1061001","0.0-44.0","battery-v0.2","","","1086.300000011921","","","17","844","969","m","elianto","#3366ff99","-1"," ","0","0","[1936.7999999970198]","1","2","","","844","40","0","2","win","no-go","0","0"
"pit-trial","109","1064631","0.0-45.0","battery-v0.2","","","762.7999999970198","","","17","844","969","h","elianto","#3366ff99"," "," ","1","+10","[1614.5999999940395]","1","2","","","844","41","3","1","win","go","0","0"
"pit-trial","110","1068183","0.0-46.0","battery-v0.2","","","686.0999999940395","","","17","844","969","r","elianto","#f73b6a7A"," "," ","1","0","[1536.2000000029802]","1","2","","","844","42","1","3","lose","go","0","0"
"pit-trial","111","1072180","0.0-47.0","battery-v0.2","","","1132.5","","","17","844","969","y","elianto","#f73b6a7A","-1"," ","0","-10","[1982.7999999970198]","1","2","","","844","43","2","4","lose","no-go","0","0"
"pit-trial","112","1075606","0.0-48.0","battery-v0.2","","","560.5","","","17","844","969","m","elianto","#3366ff99","-1"," ","0","0","[1411.0999999940395]","1","2","","","844","44","0","2","win","no-go","0","0"
"pit-trial","113","1079122","0.0-49.0","battery-v0.2","","","652.6999999880791","","","17","844","969","h","elianto","#3366ff99"," "," ","1","0","[1503.5999999940395]","1","2","","","844","45","3","1","win","go","1","0"
"pit-trial","114","1082543","0.0-50.0","battery-v0.2","","","563.2000000029802","","","17","844","969","r","elianto","#f73b6a7A"," "," ","1","0","[1415.2000000029802]","1","2","","","844","46","1","3","lose","go","0","0"
"pit-trial","115","1087399","0.0-51.0","battery-v0.2","","","-1","","","17","844","969","y","elianto","#f73b6a7A","-1","-1","1","0","[]","0","2","","","844","47","2","4","lose","no-go","0","0"
"pit-trial","116","1092266","0.0-52.0","battery-v0.2","","","-1","","","17","844","969","m","elianto","#3366ff99","-1","-1","1","0","[]","0","2","","","844","48","0","2","win","no-go","1","0"
"pit-trial","117","1096216","0.0-53.0","battery-v0.2","","","1085.9000000059605","","","17","844","969","h","elianto","#3366ff99"," "," ","1","+10","[1936.0999999940395]","1","2","","","844","49","3","1","win","go","0","0"
"pit-trial","118","1099730","0.0-54.0","battery-v0.2","","","641.7999999970198","","","17","844","969","r","elianto","#f73b6a7A"," "," ","1","0","[1496.7000000029802]","1","2","","","844","50","1","3","lose","go","0","0"
"pit-trial","119","1104595","0.0-55.0","battery-v0.2","","","-1","","","17","844","969","y","elianto","#f73b6a7A","-1","-1","1","0","[]","0","2","","","844","51","2","4","lose","no-go","0","0"
"pit-trial","120","1108386","0.0-56.0","battery-v0.2","","","924.1000000089407","","","17","844","969","m","elianto","#3366ff99","-1"," ","0","0","[1774.7000000029802]","1","2","","","844","52","0","2","win","no-go","0","0"
"pit-trial","121","1112555","0.0-57.0","battery-v0.2","","","1303.699999988079","","","17","844","969","c","elianto","#f73b6a7A","-1"," ","0","-10","[2155]","1","2","","","844","53","5","4","lose","no-go","0","0"
"pit-trial","122","1116180","0.0-58.0","battery-v0.2","","","757.7000000029802","","","17","844","969","r","elianto","#f73b6a7A"," "," ","1","0","[1609]","1","2","","","844","54","1","3","lose","go","0","0"
"pit-trial","123","1121045","0.0-59.0","battery-v0.2","","","-1","","","17","844","969","z","elianto","#f73b6a7A"," ","-1","0","-10","[]","0","2","","","844","55","4","3","lose","go","0","0"
"pit-trial","124","1125911","0.0-60.0","battery-v0.2","","","-1","","","17","844","969","y","elianto","#f73b6a7A","-1","-1","1","0","[]","0","2","","","844","56","2","4","lose","no-go","0","0"
"pit-trial","125","1130773","0.0-61.0","battery-v0.2","","","-1","","","17","844","969","c","elianto","#f73b6a7A","-1","-1","1","-10","[]","0","2","","","844","57","5","4","lose","no-go","1","0"
"pit-trial","126","1134501","0.0-62.0","battery-v0.2","","","870","","","17","844","969","z","elianto","#f73b6a7A"," "," ","1","0","[1720.800000011921]","1","2","","","844","58","4","3","lose","go","0","0"
"pit-trial","127","1139359","0.0-63.0","battery-v0.2","","","-1","","","17","844","969","y","elianto","#f73b6a7A","-1","-1","1","0","[]","0","2","","","844","59","2","4","lose","no-go","0","0"
"pit-trial","128","1143028","0.0-64.0","battery-v0.2","","","810.2000000029802","","","17","844","969","r","elianto","#f73b6a7A"," "," ","1","0","[1660.4000000059605]","1","2","","","844","60","1","3","lose","go","0","0"
"pit-trial","129","1146804","0.0-65.0","battery-v0.2","","","909.2999999970198","","","17","844","969","z","elianto","#f73b6a7A"," "," ","1","0","[1760.3999999910593]","1","2","","","844","61","4","3","lose","go","0","0"
"pit-trial","130","1151672","0.0-66.0","battery-v0.2","","","-1","","","17","844","969","b","elianto","#3366ff99","-1","-1","1","0","[2986.1000000089407]","1","2","","","844","62","6","2","win","no-go","1","0"
"pit-trial","131","1156539","0.0-67.0","battery-v0.2","","","-1","","","17","844","969","y","elianto","#f73b6a7A","-1","-1","1","0","[]","0","2","","","844","63","2","4","lose","no-go","0","0"
"pit-trial","132","1160345","0.0-68.0","battery-v0.2","","","940.5","","","17","844","969","c","elianto","#f73b6a7A","-1"," ","0","-10","[1791.2999999970198]","1","2","","","844","64","5","4","lose","no-go","0","0"
"pit-trial","133","1164293","0.0-69.0","battery-v0.2","","","1083.4000000059605","","","17","844","969","c","elianto","#f73b6a7A","-1"," ","0","-10","[1934.5]","1","2","","","844","65","5","4","lose","no-go","0","0"
"pit-trial","134","1169160","0.0-70.0","battery-v0.2","","","-1","","","17","844","969","y","elianto","#f73b6a7A","-1","-1","1","0","[]","0","2","","","844","66","2","4","lose","no-go","0","0"
"pit-trial","135","1173044","0.0-71.0","battery-v0.2","","","1017.2999999970198","","","17","844","969","z","elianto","#f73b6a7A"," "," ","1","0","[1867.6000000089407]","1","2","","","844","67","4","3","lose","go","0","0"
"pit-trial","136","1177257","0.0-72.0","battery-v0.2","","","1349.8999999910593","","","17","844","969","b","elianto","#3366ff99","-1"," ","0","0","[2201.2000000029802]","1","2","","","844","68","6","2","win","no-go","0","0"
"pit-trial","137","1181025","0.0-73.0","battery-v0.2","","","902.6000000089407","","","17","844","969","z","elianto","#f73b6a7A"," "," ","1","0","[1752.9000000059605]","1","2","","","844","69","4","3","lose","go","0","0"
"pit-trial","138","1184644","0.0-74.0","battery-v0.2","","","754","","","17","844","969","c","elianto","#f73b6a7A","-1"," ","0","-10","[1604.5]","1","2","","","844","70","5","4","lose","no-go","0","0"
"pit-trial","139","1189500","0.0-75.0","battery-v0.2","","","-1","","","17","844","969","b","elianto","#3366ff99","-1","-1","1","+10","[]","0","2","","","844","71","6","2","win","no-go","0","0"
"pit-trial","140","1194365","0.0-76.0","battery-v0.2","","","-1","","","17","844","969","t","elianto","#3366ff99"," ","-1","0","+10","[]","0","2","","","844","72","7","1","win","go","1","0"
"pit-trial","141","1199229","0.0-77.0","battery-v0.2","","","-1","","","17","844","969","t","elianto","#3366ff99"," ","-1","0","0","[]","0","2","","","844","73","7","1","win","go","0","0"
"pit-trial","142","1204092","0.0-78.0","battery-v0.2","","","-1","","","17","844","969","b","elianto","#3366ff99","-1","-1","1","+10","[]","0","2","","","844","74","6","2","win","no-go","0","0"
"pit-trial","143","1208268","0.0-79.0","battery-v0.2","","","1319.2999999970198","","","17","844","969","z","elianto","#f73b6a7A"," "," ","1","0","[2170.2000000029802]","1","2","","","844","75","4","3","lose","go","0","0"
"pit-trial","144","1212280","0.0-80.0","battery-v0.2","","","1149","","","17","844","969","c","elianto","#f73b6a7A","-1"," ","0","-10","[2000.2000000029802]","1","2","","","844","76","5","4","lose","no-go","0","0"
"pit-trial","145","1217138","0.0-81.0","battery-v0.2","","","-1","","","17","844","969","t","elianto","#3366ff99"," ","-1","0","0","[]","0","2","","","844","77","7","1","win","go","0","0"
"pit-trial","146","1220895","0.0-82.0","battery-v0.2","","","886.4000000059605","","","17","844","969","z","elianto","#f73b6a7A"," "," ","1","-10","[1737.2000000029802]","1","2","","","844","78","4","3","lose","go","1","0"
"pit-trial","147","1225762","0.0-83.0","battery-v0.2","","","-1","","","17","844","969","c","elianto","#f73b6a7A","-1","-1","1","0","[]","0","2","","","844","79","5","4","lose","no-go","0","0"
"pit-trial","148","1230629","0.0-84.0","battery-v0.2","","","-1","","","17","844","969","b","elianto","#3366ff99","-1","-1","1","0","[]","0","2","","","844","80","6","2","win","no-go","1","0"
"pit-trial","149","1235495","0.0-85.0","battery-v0.2","","","-1","","","17","844","969","b","elianto","#3366ff99","-1","-1","1","+10","[]","0","2","","","844","81","6","2","win","no-go","0","0"
"pit-trial","150","1240361","0.0-86.0","battery-v0.2","","","-1","","","17","844","969","c","elianto","#f73b6a7A","-1","-1","1","0","[]","0","2","","","844","82","5","4","lose","no-go","0","0"
"pit-trial","151","1245222","0.0-87.0","battery-v0.2","","","-1","","","17","844","969","t","elianto","#3366ff99"," ","-1","0","0","[3741.2999999970198]","1","2","","","844","83","7","1","win","go","0","0"
"pit-trial","152","1249443","0.0-88.0","battery-v0.2","","","1355","","","17","844","969","z","elianto","#f73b6a7A"," "," ","1","0","[2205.9000000059605]","1","2","","","844","84","4","3","lose","go","0","0"
"pit-trial","153","1254309","0.0-89.0","battery-v0.2","","","-1","","","17","844","969","c","elianto","#f73b6a7A","-1","-1","1","0","[]","0","2","","","844","85","5","4","lose","no-go","0","0"
"pit-trial","154","1258638","0.0-90.0","battery-v0.2","","","1454.7999999970198","","","17","844","969","t","elianto","#3366ff99"," "," ","1","+10","[2306.5]","1","2","","","844","86","7","1","win","go","0","0"
"pit-trial","155","1263499","0.0-91.0","battery-v0.2","","","-1","","","17","844","969","b","elianto","#3366ff99","-1","-1","1","0","[4598.20000000298]","1","2","","","844","87","6","2","win","no-go","1","0"
"pit-trial","156","1267369","0.0-92.0","battery-v0.2","","","1008.5","","","17","844","969","z","elianto","#f73b6a7A"," "," ","1","0","[1858.699999988079]","1","2","","","844","88","4","3","lose","go","0","0"
"pit-trial","157","1272236","0.0-93.0","battery-v0.2","","","-1","","","17","844","969","b","elianto","#3366ff99","-1","-1","1","+10","[]","0","2","","","844","89","6","2","win","no-go","0","0"
"pit-trial","158","1275702","0.0-94.0","battery-v0.2","","","600.0999999940395","","","17","844","969","t","elianto","#3366ff99"," "," ","1","+10","[1451.4000000059605]","1","2","","","844","90","7","1","win","go","0","0"
"pit-trial","159","1279423","0.0-95.0","battery-v0.2","","","859.3000000119209","","","17","844","969","z","elianto","#f73b6a7A"," "," ","1","0","[1710.5]","1","2","","","844","91","4","3","lose","go","0","0"
"pit-trial","160","1284289","0.0-96.0","battery-v0.2","","","-1","","","17","844","969","c","elianto","#f73b6a7A","-1","-1","1","-10","[]","0","2","","","844","92","5","4","lose","no-go","1","0"
"pit-trial","161","1287957","0.0-97.0","battery-v0.2","","","804.6000000089407","","","17","844","969","t","elianto","#3366ff99"," "," ","1","+10","[1655.5999999940395]","1","2","","","844","93","7","1","win","go","0","0"
"pit-trial","162","1292820","0.0-98.0","battery-v0.2","","","-1","","","17","844","969","b","elianto","#3366ff99","-1","-1","1","+10","[]","0","2","","","844","94","6","2","win","no-go","0","0"
"pit-trial","163","1296476","0.0-99.0","battery-v0.2","","","795.2000000029802","","","17","844","969","z","elianto","#f73b6a7A"," "," ","1","-10","[1646.2999999970198]","1","2","","","844","95","4","3","lose","go","1","0"
"pit-trial","164","1301347","0.0-100.0","battery-v0.2","","","-1","","","17","844","969","x","elianto","#3366ff99"," ","-1","0","+10","[]","0","2","","","844","96","8","1","win","go","1","0"
"pit-trial","165","1306218","0.0-101.0","battery-v0.2","","","-1","","","17","844","969","x","elianto","#3366ff99"," ","-1","0","0","[]","0","2","","","844","97","8","1","win","go","0","0"
"pit-trial","166","1311083","0.0-102.0","battery-v0.2","","","-1","","","17","844","969","b","elianto","#3366ff99","-1","-1","1","+10","[]","0","2","","","844","98","6","2","win","no-go","0","0"
"pit-trial","167","1314720","0.0-103.0","battery-v0.2","","","779.2999999970198","","","17","844","969","t","elianto","#3366ff99"," "," ","1","0","[1630.6000000089407]","1","2","","","844","99","7","1","win","go","1","0"
"pit-trial","168","1318210","0.0-104.0","battery-v0.2","","","631.4000000059605","","","17","844","969","z","elianto","#f73b6a7A"," "," ","1","0","[1481.9000000059605]","1","2","","","844","100","4","3","lose","go","0","0"
"pit-trial","169","1323069","0.0-105.0","battery-v0.2","","","-1","","","17","844","969","b","elianto","#3366ff99","-1","-1","1","+10","[]","0","2","","","844","101","6","2","win","no-go","0","0"
"pit-trial","170","1326924","0.0-106.0","battery-v0.2","","","990.5","","","17","844","969","f","elianto","#3366ff99","-1"," ","0","0","[1840.5]","1","2","","","844","102","9","2","win","no-go","0","0"
"pit-trial","171","1330503","0.0-107.0","battery-v0.2","","","722.8999999910593","","","17","844","969","t","elianto","#3366ff99"," "," ","1","+10","[1573.7999999970198]","1","2","","","844","103","7","1","win","go","0","0"
"pit-trial","172","1334496","0.0-108.0","battery-v0.2","","","1133.2999999970198","","","17","844","969","x","elianto","#3366ff99"," "," ","1","0","[1984.6000000089407]","1","2","","","844","104","8","1","win","go","1","0"
"pit-trial","173","1337886","0.0-109.0","battery-v0.2","","","524.5999999940395","","","17","844","969","x","elianto","#3366ff99"," "," ","1","+10","[1374.800000011921]","1","2","","","844","105","8","1","win","go","0","0"
"pit-trial","174","1342598","0.0-110.0","battery-v0.2","","","1851.2999999970198","","","17","844","969","t","elianto","#3366ff99"," "," ","1","+10","[2702]","1","2","","","844","106","7","1","win","go","0","0"
"pit-trial","175","1347463","0.0-111.0","battery-v0.2","","","-1","","","17","844","969","b","elianto","#3366ff99","-1","-1","1","+10","[]","0","2","","","844","107","6","2","win","no-go","0","0"
"pit-trial","176","1352321","0.0-112.0","battery-v0.2","","","-1","","","17","844","969","f","elianto","#3366ff99","-1","-1","1","0","[]","0","2","","","844","108","9","2","win","no-go","1","0"
"pit-trial","177","1357185","0.0-113.0","battery-v0.2","","","-1","","","17","844","969","q","elianto","#f73b6a7A","-1","-1","1","0","[]","0","2","","","844","109","11","4","lose","no-go","0","0"
"pit-trial","178","1362051","0.0-114.0","battery-v0.2","","","-1","","","17","844","969","n","elianto","#f73b6a7A"," ","-1","0","-10","[]","0","2","","","844","110","10","3","lose","go","0","0"
"pit-trial","179","1366037","0.0-115.0","battery-v0.2","","","1119.2999999970198","","","17","844","969","x","elianto","#3366ff99"," "," ","1","0","[1969.5]","1","2","","","844","111","8","1","win","go","1","0"
"pit-trial","180","1370901","0.0-116.0","battery-v0.2","","","-1","","","17","844","969","f","elianto","#3366ff99","-1","-1","1","+10","[]","0","2","","","844","112","9","2","win","no-go","0","0"
"pit-trial","181","1375766","0.0-117.0","battery-v0.2","","","-1","","","17","844","969","f","elianto","#3366ff99","-1","-1","1","+10","[]","0","2","","","844","113","9","2","win","no-go","0","0"
"pit-trial","182","1380623","0.0-118.0","battery-v0.2","","","-1","","","17","844","969","q","elianto","#f73b6a7A","-1","-1","1","-10","[]","0","2","","","844","114","11","4","lose","no-go","1","0"
"pit-trial","183","1384396","0.0-119.0","battery-v0.2","","","914.5","","","17","844","969","n","elianto","#f73b6a7A"," "," ","1","0","[1765]","1","2","","","844","115","10","3","lose","go","0","0"
"pit-trial","184","1388939","0.0-120.0","battery-v0.2","","","1675.800000011921","","","17","844","969","x","elianto","#3366ff99"," "," ","1","+10","[2528.2000000029802]","1","2","","","844","116","8","1","win","go","0","0"
"pit-trial","185","1392893","0.0-121.0","battery-v0.2","","","1096","","","17","844","969","n","elianto","#f73b6a7A"," "," ","1","0","[1947.1000000089407]","1","2","","","844","117","10","3","lose","go","0","0"
"pit-trial","186","1397753","0.0-122.0","battery-v0.2","","","-1","","","17","844","969","f","elianto","#3366ff99","-1","-1","1","+10","[]","0","2","","","844","118","9","2","win","no-go","0","0"
"pit-trial","187","1402446","0.0-123.0","battery-v0.2","","","1824.3999999910593","","","17","844","969","x","elianto","#3366ff99"," "," ","1","+10","[2675.3999999910593]","1","2","","","844","119","8","1","win","go","0","0"
"pit-trial","188","1406211","0.0-124.0","battery-v0.2","","","905.7999999970198","","","17","844","969","q","elianto","#f73b6a7A","-1"," ","0","-10","[1755.9000000059605]","1","2","","","844","120","11","4","lose","no-go","0","0"
"pit-trial","189","1409779","0.0-125.0","battery-v0.2","","","701.4000000059605","","","17","844","969","n","elianto","#f73b6a7A"," "," ","1","0","[1552.3999999910593]","1","2","","","844","121","10","3","lose","go","0","0"
"pit-trial","190","1413455","0.0-126.0","battery-v0.2","","","810.2999999970198","","","17","844","969","q","elianto","#f73b6a7A","-1"," ","0","-10","[1661]","1","2","","","844","122","11","4","lose","no-go","0","0"
"pit-trial","191","1417126","0.0-127.0","battery-v0.2","","","809.2000000029802","","","17","844","969","x","elianto","#3366ff99"," "," ","1","+10","[1659.9000000059605]","1","2","","","844","123","8","1","win","go","0","0"
"pit-trial","192","1421987","0.0-128.0","battery-v0.2","","","-1","","","17","844","969","f","elianto","#3366ff99","-1","-1","1","+10","[]","0","2","","","844","124","9","2","win","no-go","0","0"
"pit-trial","193","1426852","0.0-129.0","battery-v0.2","","","-1","","","17","844","969","q","elianto","#f73b6a7A","-1","-1","1","0","[]","0","2","","","844","125","11","4","lose","no-go","0","0"
"pit-trial","194","1431717","0.0-130.0","battery-v0.2","","","-1","","","17","844","969","f","elianto","#3366ff99","-1","-1","1","+10","[]","0","2","","","844","126","9","2","win","no-go","0","0"
"pit-trial","195","1435682","0.0-131.0","battery-v0.2","","","1099.2999999970198","","","17","844","969","n","elianto","#f73b6a7A"," "," ","1","-10","[1950]","1","2","","","844","127","10","3","lose","go","1","0"
"pit-trial","196","1439199","0.0-132.0","battery-v0.2","","","649","","","17","844","969","x","elianto","#3366ff99"," "," ","1","+10","[1501]","1","2","","","844","128","8","1","win","go","0","0"
"pit-trial","197","1443044","0.0-133.0","battery-v0.2","","","980.6000000089407","","","17","844","969","n","elianto","#f73b6a7A"," "," ","1","0","[1830.7000000029802]","1","2","","","844","129","10","3","lose","go","0","0"
"pit-trial","198","1447908","0.0-134.0","battery-v0.2","","","-1","","","17","844","969","q","elianto","#f73b6a7A","-1","-1","1","0","[]","0","2","","","844","130","11","4","lose","no-go","0","0"
"pit-trial","199","1451524","0.0-135.0","battery-v0.2","","","752.8000000119209","","","17","844","969","x","elianto","#3366ff99"," "," ","1","+10","[1603.5]","1","2","","","844","131","8","1","win","go","0","0"
"pit-trial","200","1456382","0.0-136.0","battery-v0.2","","","-1","","","17","844","969","f","elianto","#3366ff99","-1","-1","1","+10","[]","0","2","","","844","132","9","2","win","no-go","0","0"
"pit-trial","201","1461248","0.0-137.0","battery-v0.2","","","-1","","","17","844","969","f","elianto","#3366ff99","-1","-1","1","+10","[]","0","2","","","844","133","9","2","win","no-go","0","0"
"pit-trial","202","1466114","0.0-138.0","battery-v0.2","","","-1","","","17","844","969","q","elianto","#f73b6a7A","-1","-1","1","0","[]","0","2","","","844","134","11","4","lose","no-go","0","0"
"pit-trial","203","1469675","0.0-139.0","battery-v0.2","","","704.2000000029802","","","17","844","969","x","elianto","#3366ff99"," "," ","1","+10","[1555.7000000029802]","1","2","","","844","135","8","1","win","go","0","0"
"pit-trial","204","1473894","0.0-140.0","battery-v0.2","","","1363.1000000089407","","","17","844","969","n","elianto","#f73b6a7A"," "," ","1","0","[2213.2999999970198]","1","2","","","844","136","10","3","lose","go","0","0"
"pit-trial","205","1478758","0.0-141.0","battery-v0.2","","","-1","","","17","844","969","q","elianto","#f73b6a7A","-1","-1","1","0","[]","0","2","","","844","137","11","4","lose","no-go","0","0"
"pit-trial","206","1482314","0.0-142.0","battery-v0.2","","","698.4000000059605","","","17","844","969","x","elianto","#3366ff99"," "," ","1","+10","[1548.6000000089407]","1","2","","","844","138","8","1","win","go","0","0"
"pit-trial","207","1487179","0.0-143.0","battery-v0.2","","","-1","","","17","844","969","f","elianto","#3366ff99","-1","-1","1","+10","[]","0","2","","","844","139","9","2","win","no-go","0","0"
"pit-trial","208","1490749","0.0-144.0","battery-v0.2","","","704.0999999940395","","","17","844","969","n","elianto","#f73b6a7A"," "," ","1","0","[1555.7999999970198]","1","2","","","844","140","10","3","lose","go","0","0"
"pit-instructions","209","1616036","0.0-145.0","battery-v0.2","","[{""page_index"":0,""viewing_time"":116928.59999999404},{""page_index"":1,""viewing_time"":8346}]","125275.69999998808","","","","","","","","","","","","","","","","","","","","","","","","",""
"pit-trial","210","1619520","0.0-146.0","battery-v0.2","","","586.2000000029802","","","17","844","969","v","elianto","#3366ff99","-1"," ","0","0","[1443.2000000029802]","1","3","","","844","141","0","2","win","no-go","0","0"
"pit-trial","211","1622825","0.0-147.0","battery-v0.2","","","443.20000000298023","","","17","844","969","k","elianto","#f73b6a7A"," "," ","1","0","[1294]","1","3","","","844","142","3","3","lose","go","0","0"
"pit-trial","212","1626522","0.0-148.0","battery-v0.2","","","817","","","17","844","969","j","elianto","#3366ff99","-1"," ","0","0","[1669]","1","3","","","844","143","1","2","win","no-go","0","0"
"pit-trial","213","1629885","0.0-149.0","battery-v0.2","","","479.70000000298023","","","17","844","969","d","elianto","#3366ff99"," "," ","1","+10","[1334.2999999970198]","1","3","","","844","144","2","1","win","go","0","0"
"pit-trial","214","1634019","0.0-150.0","battery-v0.2","","","1253.5","","","17","844","969","j","elianto","#3366ff99","-1"," ","0","+10","[2108.199999988079]","1","3","","","844","145","1","2","win","no-go","1","0"
"pit-trial","215","1637572","0.0-151.0","battery-v0.2","","","682.9000000059605","","","17","844","969","k","elianto","#f73b6a7A"," "," ","1","0","[1535.0999999940395]","1","3","","","844","146","3","3","lose","go","0","0"
"pit-trial","216","1640970","0.0-152.0","battery-v0.2","","","528.7999999970198","","","17","844","969","d","elianto","#3366ff99"," "," ","1","+10","[1378.9000000059605]","1","3","","","844","147","2","1","win","go","0","0"
"pit-trial","217","1644684","0.0-153.0","battery-v0.2","","","841.5999999940395","","","17","844","969","v","elianto","#3366ff99","-1"," ","0","0","[1696.1000000089407]","1","3","","","844","148","0","2","win","no-go","0","0"
"pit-trial","218","1648266","0.0-154.0","battery-v0.2","","","722.0999999940395","","","17","844","969","j","elianto","#3366ff99","-1"," ","0","+10","[1573.0999999940395]","1","3","","","844","149","1","2","win","no-go","1","0"
"pit-trial","219","1651736","0.0-155.0","battery-v0.2","","","605.3999999910593","","","17","844","969","k","elianto","#f73b6a7A"," "," ","1","0","[1456.1000000089407]","1","3","","","844","150","3","3","lose","go","0","0"
"pit-trial","220","1655222","0.0-156.0","battery-v0.2","","","621.3999999910593","","","17","844","969","d","elianto","#3366ff99"," "," ","1","+10","[1472.0999999940395]","1","3","","","844","151","2","1","win","go","0","0"
"pit-trial","221","1660086","0.0-157.0","battery-v0.2","","","-1","","","17","844","969","v","elianto","#3366ff99","-1","-1","1","+10","[]","0","3","","","844","152","0","2","win","no-go","0","0"
"pit-trial","222","1663626","0.0-158.0","battery-v0.2","","","681.4000000059605","","","17","844","969","k","elianto","#f73b6a7A"," "," ","1","-10","[1533.7999999970198]","1","3","","","844","153","3","3","lose","go","1","0"
"pit-trial","223","1667241","0.0-159.0","battery-v0.2","","","750.7999999970198","","","17","844","969","d","elianto","#3366ff99"," "," ","1","+10","[1601.9000000059605]","1","3","","","844","154","2","1","win","go","0","0"
"pit-trial","224","1670730","0.0-160.0","battery-v0.2","","","622.5","","","17","844","969","j","elianto","#3366ff99","-1"," ","0","0","[1472.5999999940395]","1","3","","","844","155","1","2","win","no-go","0","0"
"pit-trial","225","1675596","0.0-161.0","battery-v0.2","","","-1","","","17","844","969","v","elianto","#3366ff99","-1","-1","1","+10","[]","0","3","","","844","156","0","2","win","no-go","0","0"
"pit-trial","226","1679116","0.0-162.0","battery-v0.2","","","656.3000000119209","","","17","844","969","j","elianto","#3366ff99","-1"," ","0","0","[1506.800000011921]","1","3","","","844","157","1","2","win","no-go","0","0"
"pit-trial","227","1683981","0.0-163.0","battery-v0.2","","","-1","","","17","844","969","v","elianto","#3366ff99","-1","-1","1","+10","[]","0","3","","","844","158","0","2","win","no-go","0","0"
"pit-trial","228","1687537","0.0-164.0","battery-v0.2","","","697.2000000029802","","","17","844","969","k","elianto","#f73b6a7A"," "," ","1","0","[1547.800000011921]","1","3","","","844","159","3","3","lose","go","0","0"
"pit-trial","229","1690937","0.0-165.0","battery-v0.2","","","534.7999999970198","","","17","844","969","d","elianto","#3366ff99"," "," ","1","+10","[1386]","1","3","","","844","160","2","1","win","go","0","0"
"pit-trial","230","1695794","0.0-166.0","battery-v0.2","","","-1","","","17","844","969","v","elianto","#3366ff99","-1","-1","1","+10","[]","0","3","","","844","161","0","2","win","no-go","0","0"
"pit-trial","231","1699213","0.0-167.0","battery-v0.2","","","553.3000000119209","","","17","844","969","d","elianto","#3366ff99"," "," ","1","+10","[1404]","1","3","","","844","162","2","1","win","go","0","0"
"pit-trial","232","1704080","0.0-168.0","battery-v0.2","","","-1","","","17","844","969","j","elianto","#3366ff99","-1","-1","1","+10","[2879.7999999970198]","1","3","","","844","163","1","2","win","no-go","0","0"
"pit-trial","233","1707619","0.0-169.0","battery-v0.2","","","673.2999999970198","","","17","844","969","k","elianto","#f73b6a7A"," "," ","1","-10","[1524.3999999910593]","1","3","","","844","164","3","3","lose","go","1","0"
"pit-trial","234","1711158","0.0-170.0","battery-v0.2","","","673.2000000029802","","","17","844","969","k","elianto","#f73b6a7A"," "," ","1","0","[1525.1000000089407]","1","3","","","844","165","3","3","lose","go","0","0"
"pit-trial","235","1716023","0.0-171.0","battery-v0.2","","","-1","","","17","844","969","v","elianto","#3366ff99","-1","-1","1","0","[]","0","3","","","844","166","0","2","win","no-go","1","0"
"pit-trial","236","1719512","0.0-172.0","battery-v0.2","","","625.0999999940395","","","17","844","969","j","elianto","#3366ff99","-1"," ","0","0","[1475.7000000029802]","1","3","","","844","167","1","2","win","no-go","0","0"
"pit-trial","237","1723025","0.0-173.0","battery-v0.2","","","653.8000000119209","","","17","844","969","d","elianto","#3366ff99"," "," ","1","+10","[1504.800000011921]","1","3","","","844","168","2","1","win","go","0","0"
"pit-trial","238","1726611","0.0-174.0","battery-v0.2","","","729.0999999940395","","","17","844","969","d","elianto","#3366ff99"," "," ","1","0","[1580.2000000029802]","1","3","","","844","169","2","1","win","go","1","0"
"pit-trial","239","1730679","0.0-175.0","battery-v0.2","","","1195.2999999970198","","","17","844","969","k","elianto","#f73b6a7A"," "," ","1","0","[2046.2999999970198]","1","3","","","844","170","3","3","lose","go","0","0"
"pit-trial","240","1735537","0.0-176.0","battery-v0.2","","","-1","","","17","844","969","v","elianto","#3366ff99","-1","-1","1","+10","[]","0","3","","","844","171","0","2","win","no-go","0","0"
"pit-trial","241","1739106","0.0-177.0","battery-v0.2","","","709.7999999970198","","","17","844","969","j","elianto","#3366ff99","-1"," ","0","+10","[1561.2000000029802]","1","3","","","844","172","1","2","win","no-go","1","0"
"pit-trial","242","1743971","0.0-178.0","battery-v0.2","","","-1","","","17","844","969","v","elianto","#3366ff99","-1","-1","1","+10","[]","0","3","","","844","173","0","2","win","no-go","0","0"
"pit-trial","243","1747625","0.0-179.0","battery-v0.2","","","787.5999999940395","","","17","844","969","d","elianto","#3366ff99"," "," ","1","+10","[1638]","1","3","","","844","174","2","1","win","go","0","0"
"pit-trial","244","1752489","0.0-180.0","battery-v0.2","","","-1","","","17","844","969","e","elianto","#f73b6a7A","-1","-1","1","-10","[]","0","3","","","844","175","4","4","lose","no-go","1","0"
"pit-trial","245","1756510","0.0-181.0","battery-v0.2","","","1155.7000000029802","","","17","844","969","w","elianto","#f73b6a7A"," "," ","1","0","[2006.9000000059605]","1","3","","","844","176","5","3","lose","go","0","0"
"pit-trial","246","1760305","0.0-182.0","battery-v0.2","","","930.3999999910593","","","17","844","969","w","elianto","#f73b6a7A"," "," ","1","0","[1780.7999999970198]","1","3","","","844","177","5","3","lose","go","0","0"
"pit-trial","247","1765171","0.0-183.0","battery-v0.2","","","-1","","","17","844","969","v","elianto","#3366ff99","-1","-1","1","+10","[]","0","3","","","844","178","0","2","win","no-go","0","0"
"pit-trial","248","1769148","0.0-184.0","battery-v0.2","","","1119.2000000029802","","","17","844","969","e","elianto","#f73b6a7A","-1"," ","0","0","[1970.0999999940395]","1","3","","","844","179","4","4","lose","no-go","1","0"
"pit-trial","249","1772830","0.0-185.0","battery-v0.2","","","820.5999999940395","","","17","844","969","d","elianto","#3366ff99"," "," ","1","+10","[1670.6000000089407]","1","3","","","844","180","2","1","win","go","0","0"
"pit-trial","250","1776358","0.0-186.0","battery-v0.2","","","661.8999999910593","","","17","844","969","d","elianto","#3366ff99"," "," ","1","+10","[1513.5]","1","3","","","844","181","2","1","win","go","0","0"
"pit-trial","251","1780165","0.0-187.0","battery-v0.2","","","950.5","","","17","844","969","e","elianto","#f73b6a7A","-1"," ","0","-10","[1801.9000000059605]","1","3","","","844","182","4","4","lose","no-go","0","0"
"pit-trial","252","1784240","0.0-188.0","battery-v0.2","","","1211","","","17","844","969","s","elianto","#3366ff99","-1"," ","0","0","[2061.2000000029802]","1","3","","","844","183","6","2","win","no-go","0","0"
"pit-trial","253","1789106","0.0-189.0","battery-v0.2","","","-1","","","17","844","969","w","elianto","#f73b6a7A"," ","-1","0","-10","[]","0","3","","","844","184","5","3","lose","go","0","0"
"pit-trial","254","1792652","0.0-190.0","battery-v0.2","","","681.7999999970198","","","17","844","969","e","elianto","#f73b6a7A","-1"," ","0","-10","[1533]","1","3","","","844","185","4","4","lose","no-go","0","0"
"pit-trial","255","1796396","0.0-191.0","battery-v0.2","","","884.5","","","17","844","969","s","elianto","#3366ff99","-1"," ","0","0","[1735.5]","1","3","","","844","186","6","2","win","no-go","0","0"
"pit-trial","256","1799915","0.0-192.0","battery-v0.2","","","653.4000000059605","","","17","844","969","d","elianto","#3366ff99"," "," ","1","+10","[1505.7000000029802]","1","3","","","844","187","2","1","win","go","0","0"
"pit-trial","257","1803538","0.0-193.0","battery-v0.2","","","751.1000000089407","","","17","844","969","w","elianto","#f73b6a7A"," "," ","1","0","[1601.800000011921]","1","3","","","844","188","5","3","lose","go","0","0"
"pit-trial","258","1807765","0.0-194.0","battery-v0.2","","","1370.800000011921","","","17","844","969","s","elianto","#3366ff99","-1"," ","0","0","[2221.2999999970198]","1","3","","","844","189","6","2","win","no-go","0","0"
"pit-trial","259","1811440","0.0-195.0","battery-v0.2","","","810.7999999970198","","","17","844","969","w","elianto","#f73b6a7A"," "," ","1","0","[1661.5999999940395]","1","3","","","844","190","5","3","lose","go","0","0"
"pit-trial","260","1816297","0.0-196.0","battery-v0.2","","","-1","","","17","844","969","p","elianto","#f73b6a7A","-1","-1","1","0","[]","0","3","","","844","191","7","4","lose","no-go","0","0"
"pit-trial","261","1819860","0.0-197.0","battery-v0.2","","","697.8999999910593","","","17","844","969","e","elianto","#f73b6a7A","-1"," ","0","-10","[1548.1000000089407]","1","3","","","844","192","4","4","lose","no-go","0","0"
"pit-trial","262","1824724","0.0-198.0","battery-v0.2","","","-1","","","17","844","969","p","elianto","#f73b6a7A","-1","-1","1","0","[]","0","3","","","844","193","7","4","lose","no-go","0","0"
"pit-trial","263","1829590","0.0-199.0","battery-v0.2","","","-1","","","17","844","969","e","elianto","#f73b6a7A","-1","-1","1","0","[]","0","3","","","844","194","4","4","lose","no-go","0","0"
"pit-trial","264","1833007","0.0-200.0","battery-v0.2","","","559.3000000119209","","","17","844","969","w","elianto","#f73b6a7A"," "," ","1","0","[1409.8999999910593]","1","3","","","844","195","5","3","lose","go","0","0"
"pit-trial","265","1837873","0.0-201.0","battery-v0.2","","","-1","","","17","844","969","s","elianto","#3366ff99","-1","-1","1","+10","[]","0","3","","","844","196","6","2","win","no-go","0","0"
"pit-trial","266","1842734","0.0-202.0","battery-v0.2","","","-1","","","17","844","969","p","elianto","#f73b6a7A","-1","-1","1","0","[]","0","3","","","844","197","7","4","lose","no-go","0","0"
"pit-trial","267","1847598","0.0-203.0","battery-v0.2","","","-1","","","17","844","969","e","elianto","#f73b6a7A","-1","-1","1","0","[]","0","3","","","844","198","4","4","lose","no-go","0","0"
"pit-trial","268","1851404","0.0-204.0","battery-v0.2","","","947.8000000119209","","","17","844","969","w","elianto","#f73b6a7A"," "," ","1","-10","[1799.3999999910593]","1","3","","","844","199","5","3","lose","go","1","0"
"pit-trial","269","1856263","0.0-205.0","battery-v0.2","","","-1","","","17","844","969","s","elianto","#3366ff99","-1","-1","1","+10","[]","0","3","","","844","200","6","2","win","no-go","0","0"
"pit-trial","270","1861141","0.0-206.0","battery-v0.2","","","-1","","","17","844","969","e","elianto","#f73b6a7A","-1","-1","1","0","[]","0","3","","","844","201","4","4","lose","no-go","0","0"
"pit-trial","271","1866000","0.0-207.0","battery-v0.2","","","-1","","","17","844","969","p","elianto","#f73b6a7A","-1","-1","1","-10","[]","0","3","","","844","202","7","4","lose","no-go","1","0"
"pit-trial","272","1869697","0.0-208.0","battery-v0.2","","","833","","","17","844","969","w","elianto","#f73b6a7A"," "," ","1","0","[1683.4000000059605]","1","3","","","844","203","5","3","lose","go","0","0"
"pit-trial","273","1874573","0.0-209.0","battery-v0.2","","","-1","","","17","844","969","s","elianto","#3366ff99","-1","-1","1","0","[]","0","3","","","844","204","6","2","win","no-go","1","0"
"pit-trial","274","1878138","0.0-210.0","battery-v0.2","","","708.7000000029802","","","17","844","969","w","elianto","#f73b6a7A"," "," ","1","0","[1560.5]","1","3","","","844","205","5","3","lose","go","0","0"
"pit-trial","275","1883000","0.0-211.0","battery-v0.2","","","-1","","","17","844","969","p","elianto","#f73b6a7A","-1","-1","1","0","[]","0","3","","","844","206","7","4","lose","no-go","0","0"
"pit-trial","276","1887861","0.0-212.0","battery-v0.2","","","-1","","","17","844","969","e","elianto","#f73b6a7A","-1","-1","1","0","[]","0","3","","","844","207","4","4","lose","no-go","0","0"
"pit-trial","277","1892727","0.0-213.0","battery-v0.2","","","-1","","","17","844","969","s","elianto","#3366ff99","-1","-1","1","+10","[]","0","3","","","844","208","6","2","win","no-go","0","0"
"pit-trial","278","1897584","0.0-214.0","battery-v0.2","","","-1","","","17","844","969","e","elianto","#f73b6a7A","-1","-1","1","0","[]","0","3","","","844","209","4","4","lose","no-go","0","0"
"pit-trial","279","1902445","0.0-215.0","battery-v0.2","","","-1","","","17","844","969","p","elianto","#f73b6a7A","-1","-1","1","0","[]","0","3","","","844","210","7","4","lose","no-go","0","0"
"pit-trial","280","1907311","0.0-216.0","battery-v0.2","","","-1","","","17","844","969","s","elianto","#3366ff99","-1","-1","1","+10","[]","0","3","","","844","211","6","2","win","no-go","0","0"
"pit-trial","281","1910928","0.0-217.0","battery-v0.2","","","754.3999999910593","","","17","844","969","w","elianto","#f73b6a7A"," "," ","1","0","[1605.5999999940395]","1","3","","","844","212","5","3","lose","go","0","0"
"pit-trial","282","1914443","0.0-218.0","battery-v0.2","","","648.7000000029802","","","17","844","969","w","elianto","#f73b6a7A"," "," ","1","0","[1499.5]","1","3","","","844","213","5","3","lose","go","0","0"
"pit-trial","283","1919309","0.0-219.0","battery-v0.2","","","-1","","","17","844","969","g","elianto","#f73b6a7A","-1","-1","1","0","[]","0","3","","","844","214","8","4","lose","no-go","0","0"
"pit-trial","284","1924174","0.0-220.0","battery-v0.2","","","-1","","","17","844","969","p","elianto","#f73b6a7A","-1","-1","1","0","[]","0","3","","","844","215","7","4","lose","no-go","0","0"
"pit-trial","285","1929051","0.0-221.0","battery-v0.2","","","-1","","","17","844","969","s","elianto","#3366ff99","-1","-1","1","+10","[]","0","3","","","844","216","6","2","win","no-go","0","0"
"pit-trial","286","1933916","0.0-222.0","battery-v0.2","","","-1","","","17","844","969","g","elianto","#f73b6a7A","-1","-1","1","0","[]","0","3","","","844","217","8","4","lose","no-go","0","0"
"pit-trial","287","1937569","0.0-223.0","battery-v0.2","","","795.5999999940395","","","17","844","969","w","elianto","#f73b6a7A"," "," ","1","0","[1646.2999999970198]","1","3","","","844","218","5","3","lose","go","0","0"
"pit-trial","288","1942433","0.0-224.0","battery-v0.2","","","-1","","","17","844","969","p","elianto","#f73b6a7A","-1","-1","1","0","[]","0","3","","","844","219","7","4","lose","no-go","0","0"
"pit-trial","289","1947302","0.0-225.0","battery-v0.2","","","-1","","","17","844","969","s","elianto","#3366ff99","-1","-1","1","0","[]","0","3","","","844","220","6","2","win","no-go","1","0"
"pit-trial","290","1952166","0.0-226.0","battery-v0.2","","","-1","","","17","844","969","g","elianto","#f73b6a7A","-1","-1","1","0","[]","0","3","","","844","221","8","4","lose","no-go","0","0"
"pit-trial","291","1957025","0.0-227.0","battery-v0.2","","","-1","","","17","844","969","s","elianto","#3366ff99","-1","-1","1","+10","[]","0","3","","","844","222","6","2","win","no-go","0","0"
"pit-trial","292","1961890","0.0-228.0","battery-v0.2","","","-1","","","17","844","969","l","elianto","#f73b6a7A"," ","-1","0","-10","[]","0","3","","","844","223","10","3","lose","go","0","0"
"pit-trial","293","1966748","0.0-229.0","battery-v0.2","","","-1","","","17","844","969","a","elianto","#3366ff99"," ","-1","0","0","[]","0","3","","","844","224","9","1","win","go","0","0"
"pit-trial","294","1971613","0.0-230.0","battery-v0.2","","","-1","","","17","844","969","g","elianto","#f73b6a7A","-1","-1","1","-10","[3870.4000000059605]","1","3","","","844","225","8","4","lose","no-go","1","0"
"pit-trial","295","1976477","0.0-231.0","battery-v0.2","","","-1","","","17","844","969","s","elianto","#3366ff99","-1","-1","1","+10","[]","0","3","","","844","226","6","2","win","no-go","0","0"
"pit-trial","296","1980565","0.0-232.0","battery-v0.2","","","1223.7999999970198","","","17","844","969","l","elianto","#f73b6a7A"," "," ","1","0","[2074.2000000029802]","1","3","","","844","227","10","3","lose","go","0","0"
"pit-trial","297","1985435","0.0-233.0","battery-v0.2","","","-1","","","17","844","969","a","elianto","#3366ff99"," ","-1","0","0","[]","0","3","","","844","228","9","1","win","go","0","0"
"pit-trial","298","1990292","0.0-234.0","battery-v0.2","","","-1","","","17","844","969","u","elianto","#3366ff99"," ","-1","0","0","[]","0","3","","","844","229","11","1","win","go","0","0"
"pit-trial","299","1995149","0.0-235.0","battery-v0.2","","","-1","","","17","844","969","g","elianto","#f73b6a7A","-1","-1","1","0","[]","0","3","","","844","230","8","4","lose","no-go","0","0"
"pit-trial","300","1999612","0.0-236.0","battery-v0.2","","","1599.6000000089407","","","17","844","969","l","elianto","#f73b6a7A"," "," ","1","0","[2450.5]","1","3","","","844","231","10","3","lose","go","0","0"
"pit-trial","301","2004469","0.0-237.0","battery-v0.2","","","-1","","","17","844","969","a","elianto","#3366ff99"," ","-1","0","0","[]","0","3","","","844","232","9","1","win","go","0","0"
"pit-trial","302","2009331","0.0-238.0","battery-v0.2","","","-1","","","17","844","969","u","elianto","#3366ff99"," ","-1","0","0","[]","0","3","","","844","233","11","1","win","go","0","0"
"pit-trial","303","2014193","0.0-239.0","battery-v0.2","","","-1","","","17","844","969","g","elianto","#f73b6a7A","-1","-1","1","0","[]","0","3","","","844","234","8","4","lose","no-go","0","0"
"pit-trial","304","2017751","0.0-240.0","battery-v0.2","","","694.5999999940395","","","17","844","969","l","elianto","#f73b6a7A"," "," ","1","0","[1545.2999999970198]","1","3","","","844","235","10","3","lose","go","0","0"
"pit-trial","305","2021629","0.0-241.0","battery-v0.2","","","1019.5","","","17","844","969","a","elianto","#3366ff99"," "," ","1","+10","[1871.6000000089407]","1","3","","","844","236","9","1","win","go","0","0"
"pit-trial","306","2025216","0.0-242.0","battery-v0.2","","","722.7999999970198","","","17","844","969","a","elianto","#3366ff99"," "," ","1","+10","[1573.699999988079]","1","3","","","844","237","9","1","win","go","0","0"
"pit-trial","307","2028828","0.0-243.0","battery-v0.2","","","746.7999999970198","","","17","844","969","l","elianto","#f73b6a7A"," "," ","1","0","[1597]","1","3","","","844","238","10","3","lose","go","0","0"
"pit-trial","308","2032883","0.0-244.0","battery-v0.2","","","1193.6000000089407","","","17","844","969","u","elianto","#3366ff99"," "," ","1","+10","[2045.5]","1","3","","","844","239","11","1","win","go","0","0"
"pit-trial","309","2037741","0.0-245.0","battery-v0.2","","","-1","","","17","844","969","g","elianto","#f73b6a7A","-1","-1","1","-10","[]","0","3","","","844","240","8","4","lose","no-go","1","0"
"pit-trial","310","2042606","0.0-246.0","battery-v0.2","","","-1","","","17","844","969","g","elianto","#f73b6a7A","-1","-1","1","-10","[]","0","3","","","844","241","8","4","lose","no-go","1","0"
"pit-trial","311","2046216","0.0-247.0","battery-v0.2","","","745.8999999910593","","","17","844","969","a","elianto","#3366ff99"," "," ","1","0","[1597.2000000029802]","1","3","","","844","242","9","1","win","go","1","0"
"pit-trial","312","2049809","0.0-248.0","battery-v0.2","","","722.5","","","17","844","969","u","elianto","#3366ff99"," "," ","1","+10","[1574.4000000059605]","1","3","","","844","243","11","1","win","go","0","0"
"pit-trial","313","2053332","0.0-249.0","battery-v0.2","","","658.2000000029802","","","17","844","969","l","elianto","#f73b6a7A"," "," ","1","0","[1509.2999999970198]","1","3","","","844","244","10","3","lose","go","0","0"
"pit-trial","314","2057054","0.0-250.0","battery-v0.2","","","863.5","","","17","844","969","a","elianto","#3366ff99"," "," ","1","+10","[1714.2000000029802]","1","3","","","844","245","9","1","win","go","0","0"
"pit-trial","315","2061049","0.0-251.0","battery-v0.2","","","1126.8999999910593","","","17","844","969","u","elianto","#3366ff99"," "," ","1","+10","[1977.8999999910593]","1","3","","","844","246","11","1","win","go","0","0"
"pit-trial","316","2064615","0.0-252.0","battery-v0.2","","","701.2000000029802","","","17","844","969","l","elianto","#f73b6a7A"," "," ","1","0","[1551.3999999910593]","1","3","","","844","247","10","3","lose","go","0","0"
"pit-trial","317","2068648","0.0-253.0","battery-v0.2","","","1166","","","17","844","969","g","elianto","#f73b6a7A","-1"," ","0","-10","[2016.0999999940395]","1","3","","","844","248","8","4","lose","no-go","0","0"
"pit-trial","318","2072135","0.0-254.0","battery-v0.2","","","621.5999999940395","","","17","844","969","a","elianto","#3366ff99"," "," ","1","+10","[1472.7000000029802]","1","3","","","844","249","9","1","win","go","0","0"
"pit-trial","319","2076999","0.0-255.0","battery-v0.2","","","-1","","","17","844","969","g","elianto","#f73b6a7A","-1","-1","1","-10","[]","0","3","","","844","250","8","4","lose","no-go","1","0"
"pit-trial","320","2081008","0.0-256.0","battery-v0.2","","","1144.5","","","17","844","969","u","elianto","#3366ff99"," "," ","1","+10","[1994.7000000029802]","1","3","","","844","251","11","1","win","go","0","0"
"pit-trial","321","2084834","0.0-257.0","battery-v0.2","","","962.2999999970198","","","17","844","969","l","elianto","#f73b6a7A"," "," ","1","0","[1812.7000000029802]","1","3","","","844","252","10","3","lose","go","0","0"
"pit-trial","322","2088465","0.0-258.0","battery-v0.2","","","768.5","","","17","844","969","l","elianto","#f73b6a7A"," "," ","1","0","[1619.2000000029802]","1","3","","","844","253","10","3","lose","go","0","0"
"pit-trial","323","2092014","0.0-259.0","battery-v0.2","","","690.5999999940395","","","17","844","969","a","elianto","#3366ff99"," "," ","1","+10","[1541.5999999940395]","1","3","","","844","254","9","1","win","go","0","0"
"pit-trial","324","2095457","0.0-260.0","battery-v0.2","","","576.1000000089407","","","17","844","969","u","elianto","#3366ff99"," "," ","1","+10","[1427.2999999970198]","1","3","","","844","255","11","1","win","go","0","0"
"pit-trial","325","2099062","0.0-261.0","battery-v0.2","","","742.2999999970198","","","17","844","969","g","elianto","#f73b6a7A","-1"," ","0","-10","[1592.7000000029802]","1","3","","","844","256","8","4","lose","no-go","0","0"
"pit-trial","326","2102596","0.0-262.0","battery-v0.2","","","668.3000000119209","","","17","844","969","g","elianto","#f73b6a7A","-1"," ","0","0","[1518.6000000089407]","1","3","","","844","257","8","4","lose","no-go","1","0"
"pit-trial","327","2106133","0.0-263.0","battery-v0.2","","","680.2999999970198","","","17","844","969","l","elianto","#f73b6a7A"," "," ","1","-10","[1531.5999999940395]","1","3","","","844","258","10","3","lose","go","1","0"
"pit-trial","328","2109545","0.0-264.0","battery-v0.2","","","554.5","","","17","844","969","a","elianto","#3366ff99"," "," ","1","+10","[1404.5]","1","3","","","844","259","9","1","win","go","0","0"
"pit-trial","329","2113117","0.0-265.0","battery-v0.2","","","705","","","17","844","969","u","elianto","#3366ff99"," "," ","1","+10","[1556.5999999940395]","1","3","","","844","260","11","1","win","go","0","0"
"pit-instructions","330","2122058","0.0-266.0","battery-v0.2","","[{""page_index"":0,""viewing_time"":8936.59999999404}]","8937.5","","","","","","","","","","","","","","","","","","","","","","","","",""
