"trial_type","trial_index","time_elapsed","internal_node_id","task_version","success","view_history","rt","responses","num_errors","age","subject","participantId","rune","rune_set","hex","correct","choice","accuracy","outcome","keys","total_keys","block","practice","value","sub","trial","stimulus","robot","valence","action","sham","browser_interactions"
"pavlovia","0","64","0.0-0.0","battery-v0.2","","","","","","","","","","","","","","","","","","","","","","","","","","","",""
"fullscreen","1","4532","0.0-1.0","battery-v0.2","true","","","","","","","","","","","","","","","","","","","","","","","","","","",""
"pit-instructions","2","11402","0.0-2.0-0.0","battery-v0.2","","[{""page_index"":0,""viewing_time"":6859.600000000035}]","6861.600000000035","","","","","","","","","","","","","","","","","","","","","","","","",""
"pit-comprehension","3","15658","0.0-2.0-1.0-0.0","battery-v0.2","","","4236.700000000012","[""shark""]","0","18","853","562","","","","","","","","","","","","","","","","","","","",""
"pit-instructions","4","19196","0.0-2.0-1.0-1.0","battery-v0.2","","[{""page_index"":0,""viewing_time"":3505.7000000000116}]","3506.9000000000233","","","","","","","","","","","","","","","","","","","","","","","","",""
"pit-comprehension","5","21944","0.0-2.0-2.0-0.0","battery-v0.2","","","2728.899999999965","[""tiger""]","0","18","853","562","","","","","","","","","","","","","","","","","","","",""
"pit-instructions","6","27379","0.0-2.0-2.0-1.0","battery-v0.2","","[{""page_index"":0,""viewing_time"":5424.900000000023}]","5426.100000000035","","","","","","","","","","","","","","","","","","","","","","","","",""
"pit-instructions","7","127072","0.0-2.0-3.0","battery-v0.2","","[{""page_index"":0,""viewing_time"":8386.400000000023},{""page_index"":1,""viewing_time"":6173.099999999977},{""page_index"":2,""viewing_time"":7021.100000000035},{""page_index"":3,""viewing_time"":6264.29999999993},{""page_index"":4,""viewing_time"":5478.600000000093},{""page_index"":5,""viewing_time"":5499.599999999977},{""page_index"":6,""viewing_time"":7040.900000000023},{""page_index"":7,""viewing_time"":6482.79999999993},{""page_index"":8,""viewing_time"":6721.300000000047},{""page_index"":9,""viewing_time"":11127.400000000023},{""page_index"":10,""viewing_time"":7319.199999999953},{""page_index"":11,""viewing_time"":8112.699999999953},{""page_index"":12,""viewing_time"":7199.20000000007},{""page_index"":13,""viewing_time"":6851.099999999977}]","99678.39999999997","","","","","","","","","","","","","","","","","","","","","","","","",""
"pit-trial","8","130640","0.0-2.0-4.0-0.0","battery-v0.2","","","713","","","18","853","562","&#9784;","elianto","#FFFFF080"," "," ","1","&#10004","[1563.0999999999767]","1","0","0","","","","","","","","",""
"pit-trial","9","134420","0.0-2.0-4.1-0.1","battery-v0.2","","","923.6999999999534","","","18","853","562","&#9784;","elianto","#FFFFF080"," "," ","1","&#10004","[1774]","1","0","0","","","","","","","","",""
"pit-trial","10","138140","0.0-2.0-4.2-0.2","battery-v0.2","","","865.5999999999767","","","18","853","562","&#9784;","elianto","#FFFFF080"," "," ","1","&#10004","[1715.7000000000698]","1","0","0","","","","","","","","",""
"pit-trial","11","141745","0.0-2.0-4.3-0.3","battery-v0.2","","","747.9000000000233","","","18","853","562","&#9784;","elianto","#FFFFF080"," "," ","1","&#10004","[1599.5]","1","0","0","","","","","","","","",""
"pit-trial","12","145387","0.0-2.0-4.4-0.4","battery-v0.2","","","786.6999999999534","","","18","853","562","&#9784;","elianto","#FFFFF080"," "," ","1","&#10004","[1637.3000000000466]","1","0","0","","","","","","","","",""
"pit-instructions","13","168481","0.0-2.0-5.0","battery-v0.2","","[{""page_index"":0,""viewing_time"":5908.100000000093},{""page_index"":1,""viewing_time"":5466.5},{""page_index"":2,""viewing_time"":5002.79999999993},{""page_index"":3,""viewing_time"":6702.300000000047}]","23080.5","","","","","","","","","","","","","","","","","","","","","","","","",""
"pit-trial","14","173335","0.0-2.0-6.0-0.0","battery-v0.2","","","-1","","","18","853","562","&#9854;","elianto","#FFFFF080","-1","-1","1","&#10004","[]","0","0","1","","","","","","","","",""
"pit-trial","15","178192","0.0-2.0-6.1-0.1","battery-v0.2","","","-1","","","18","853","562","&#9854;","elianto","#FFFFF080","-1","-1","1","&#10004","[]","0","0","1","","","","","","","","",""
"pit-trial","16","183048","0.0-2.0-6.2-0.2","battery-v0.2","","","-1","","","18","853","562","&#9854;","elianto","#FFFFF080","-1","-1","1","&#10004","[]","0","0","1","","","","","","","","",""
"pit-trial","17","187903","0.0-2.0-6.3-0.3","battery-v0.2","","","-1","","","18","853","562","&#9854;","elianto","#FFFFF080","-1","-1","1","&#10004","[]","0","0","1","","","","","","","","",""
"pit-trial","18","192758","0.0-2.0-6.4-0.4","battery-v0.2","","","-1","","","18","853","562","&#9854;","elianto","#FFFFF080","-1","-1","1","&#10004","[]","0","0","1","","","","","","","","",""
"pit-instructions","19","316419","0.0-2.0-7.0","battery-v0.2","","[{""page_index"":0,""viewing_time"":5826.899999999907},{""page_index"":1,""viewing_time"":6988.20000000007},{""page_index"":2,""viewing_time"":5967.29999999993},{""page_index"":3,""viewing_time"":6901.300000000047},{""page_index"":4,""viewing_time"":6006.699999999953},{""page_index"":5,""viewing_time"":5657.600000000093},{""page_index"":6,""viewing_time"":5489.5},{""page_index"":7,""viewing_time"":8074.5},{""page_index"":8,""viewing_time"":10292.699999999953},{""page_index"":9,""viewing_time"":10443.800000000047},{""page_index"":10,""viewing_time"":6663.29999999993},{""page_index"":11,""viewing_time"":4654.599999999977},{""page_index"":12,""viewing_time"":6385.900000000023},{""page_index"":13,""viewing_time"":6841.70000000007},{""page_index"":14,""viewing_time"":7299.29999999993},{""page_index"":15,""viewing_time"":6296.20000000007},{""page_index"":16,""viewing_time"":6345.399999999907},{""page_index"":17,""viewing_time"":7518.600000000093}]","123654.5","","","","","","","","","","","","","","","","","","","","","","","","",""
"pit-trial","20","321274","0.0-2.0-8.0-0.0","battery-v0.2","","","-1","","","18","853","562","&#9776;","elianto","#3366ff99"," ","-1","0","0","[]","0","0","1","","","","","","","","",""
"pit-trial","21","324688","0.0-2.0-8.0-1.0","battery-v0.2","","","559.5999999999767","","","18","853","562","&#9776;","elianto","#3366ff99"," "," ","1","+10","[1409.5999999999767]","1","0","1","","","","","","","","",""
"pit-trial","22","328039","0.0-2.0-8.0-2.0","battery-v0.2","","","496.20000000006985","","","18","853","562","&#9776;","elianto","#3366ff99"," "," ","1","+10","[1346.1999999999534]","1","0","1","","","","","","","","",""
"pit-trial","23","331383","0.0-2.0-8.0-3.0","battery-v0.2","","","489.0999999999767","","","18","853","562","&#9776;","elianto","#3366ff99"," "," ","1","0","[1339.7999999999302]","1","0","1","","","","","","","","",""
"pit-trial","24","334817","0.0-2.0-8.0-4.0","battery-v0.2","","","577.7999999999302","","","18","853","562","&#9776;","elianto","#3366ff99"," "," ","1","+10","[1430.5]","1","0","1","","","","","","","","",""
"call-function","25","334822","0.0-2.0-9.0","battery-v0.2","","","","","","","","","","","","","","","","","","","","","","","","","","","",""
"pit-instructions","26","373173","0.0-2.0-10.0","battery-v0.2","","[{""page_index"":0,""viewing_time"":5835.900000000023},{""page_index"":1,""viewing_time"":6941.699999999953},{""page_index"":2,""viewing_time"":9230.800000000047},{""page_index"":3,""viewing_time"":8900.699999999953},{""page_index"":4,""viewing_time"":7440.20000000007}]","38350.09999999998","","","","","","","","","","","","","","","","","","","","","","","","",""
"pit-trial","27","378027","0.0-2.0-11.0-0.0","battery-v0.2","","","-1","","","18","853","562","&#9761;","elianto","#3366ff99","-1","-1","1","+10","[]","0","0","2","","","","","","","","",""
"pit-trial","28","382881","0.0-2.0-11.0-1.0","battery-v0.2","","","-1","","","18","853","562","&#9761;","elianto","#3366ff99","-1","-1","1","+10","[]","0","0","2","","","","","","","","",""
"pit-trial","29","387735","0.0-2.0-11.0-2.0","battery-v0.2","","","-1","","","18","853","562","&#9761;","elianto","#3366ff99","-1","-1","1","+10","[]","0","0","2","","","","","","","","",""
"pit-trial","30","392589","0.0-2.0-11.0-3.0","battery-v0.2","","","-1","","","18","853","562","&#9761;","elianto","#3366ff99","-1","-1","1","0","[]","0","0","2","","","","","","","","",""
"pit-trial","31","397444","0.0-2.0-11.0-4.0","battery-v0.2","","","-1","","","18","853","562","&#9761;","elianto","#3366ff99","-1","-1","1","+10","[]","0","0","2","","","","","","","","",""
"call-function","32","397448","0.0-2.0-12.0","battery-v0.2","","","","","","","","","","","","","","","","","","","","","","","","","","","",""
"pit-instructions","33","434241","0.0-2.0-13.0","battery-v0.2","","[{""page_index"":0,""viewing_time"":4727.099999999977},{""page_index"":1,""viewing_time"":6422.800000000047},{""page_index"":2,""viewing_time"":8513.699999999953},{""page_index"":3,""viewing_time"":11497.70000000007},{""page_index"":4,""viewing_time"":5629.79999999993}]","36792.40000000002","","","","","","","","","","","","","","","","","","","","","","","","",""
"pit-trial","34","439098","0.0-2.0-14.0-0.0","battery-v0.2","","","-1","","","18","853","562","&#9826;","elianto","#f73b6a7A","-1","-1","1","0","[]","0","0","3","","","","","","","","",""
"pit-trial","35","443954","0.0-2.0-14.0-1.0","battery-v0.2","","","-1","","","18","853","562","&#9826;","elianto","#f73b6a7A","-1","-1","1","0","[]","0","0","3","","","","","","","","",""
"pit-trial","36","448811","0.0-2.0-14.0-2.0","battery-v0.2","","","-1","","","18","853","562","&#9826;","elianto","#f73b6a7A","-1","-1","1","0","[]","0","0","3","","","","","","","","",""
"pit-trial","37","453668","0.0-2.0-14.0-3.0","battery-v0.2","","","-1","","","18","853","562","&#9826;","elianto","#f73b6a7A","-1","-1","1","-10","[]","0","0","3","","","","","","","","",""
"pit-trial","38","458525","0.0-2.0-14.0-4.0","battery-v0.2","","","-1","","","18","853","562","&#9826;","elianto","#f73b6a7A","-1","-1","1","0","[]","0","0","3","","","","","","","","",""
"call-function","39","458529","0.0-2.0-15.0","battery-v0.2","","","","","","","","","","","","","","","","","","","","","","","","","","","",""
"pit-instructions","40","484224","0.0-2.0-16.0","battery-v0.2","","[{""page_index"":0,""viewing_time"":6580.5},{""page_index"":1,""viewing_time"":8610.899999999907},{""page_index"":2,""viewing_time"":5021.600000000093},{""page_index"":3,""viewing_time"":5478.29999999993}]","25692.79999999993","","","","","","","","","","","","","","","","","","","","","","","","",""
"pit-trial","41","488584","0.0-2.0-17.0-0.0","battery-v0.2","","","1501.1999999999534","","","18","853","562","&#9789;","elianto","#f73b6a7A"," "," ","1","0","[2354.6999999999534]","1","0","4","","","","","","","","",""
"pit-trial","42","492238","0.0-2.0-17.0-1.0","battery-v0.2","","","797","","","18","853","562","&#9789;","elianto","#f73b6a7A"," "," ","1","0","[1647.3000000000466]","1","0","4","","","","","","","","",""
"pit-trial","43","495595","0.0-2.0-17.0-2.0","battery-v0.2","","","500.5","","","18","853","562","&#9789;","elianto","#f73b6a7A"," "," ","1","0","[1351.3000000000466]","1","0","4","","","","","","","","",""
"pit-trial","44","498873","0.0-2.0-17.0-3.0","battery-v0.2","","","420.70000000006985","","","18","853","562","&#9789;","elianto","#f73b6a7A"," "," ","1","-10","[1270.9000000000233]","1","0","4","","","","","","","","",""
"pit-trial","45","502118","0.0-2.0-17.0-4.0","battery-v0.2","","","388.4000000000233","","","18","853","562","&#9789;","elianto","#f73b6a7A"," "," ","1","0","[1238.6999999999534]","1","0","4","","","","","","","","",""
"call-function","46","502122","0.0-2.0-18.0","battery-v0.2","","","","","","","","","","","","","","","","","","","","","","","","","","","",""
"pit-instructions","47","572919","0.0-2.0-19.0","battery-v0.2","","[{""page_index"":0,""viewing_time"":6538.800000000047},{""page_index"":1,""viewing_time"":5885},{""page_index"":2,""viewing_time"":13974.5},{""page_index"":3,""viewing_time"":8255},{""page_index"":4,""viewing_time"":8255.300000000047},{""page_index"":5,""viewing_time"":8931.5},{""page_index"":6,""viewing_time"":8571.899999999907},{""page_index"":7,""viewing_time"":6334.800000000047},{""page_index"":8,""viewing_time"":4047.9000000000233}]","70795.80000000005","","","","","","","","","","","","","","","","","","","","","","","","",""
"pit-comprehension","48","580071","0.0-2.0-20.0-0.0","battery-v0.2","","","7144.100000000093","[""SPACE""]","0","18","853","562","","","","","","","","","","","","","","","","","","","",""
"pit-instructions","49","583601","0.0-2.0-20.0-1.0","battery-v0.2","","[{""page_index"":0,""viewing_time"":3510.5}]","3511.5","","","","","","","","","","","","","","","","","","","","","","","","",""
"pit-comprehension","50","591479","0.0-2.0-21.0-0.0","battery-v0.2","","","7867.800000000047","[""10""]","0","18","853","562","","","","","","","","","","","","","","","","","","","",""
"pit-instructions","51","596411","0.0-2.0-21.0-1.0","battery-v0.2","","[{""page_index"":0,""viewing_time"":4912.800000000047}]","4914","","","","","","","","","","","","","","","","","","","","","","","","",""
"pit-comprehension","52","604470","0.0-2.0-22.0-0.0","battery-v0.2","","","8048.899999999907","[""0""]","0","18","853","562","","","","","","","","","","","","","","","","","","","",""
"pit-instructions","53","609590","0.0-2.0-22.0-1.0","battery-v0.2","","[{""page_index"":0,""viewing_time"":5100.699999999953}]","5102.199999999953","","","","","","","","","","","","","","","","","","","","","","","","",""
"pit-comprehension","54","619994","0.0-2.0-23.0-0.0","battery-v0.2","","","10394.899999999907","[""True""]","0","18","853","562","","","","","","","","","","","","","","","","","","","",""
"pit-instructions","55","625084","0.0-2.0-23.0-1.0","battery-v0.2","","[{""page_index"":0,""viewing_time"":5072.600000000093}]","5073.5","","","","","","","","","","","","","","","","","","","","","","","","",""
"pit-comprehension","56","632584","0.0-2.0-24.0-0.0","battery-v0.2","","","7491.90000000014","[""True""]","0","18","853","562","","","","","","","","","","","","","","","","","","","",""
"pit-instructions","57","634214","0.0-2.0-24.0-1.0","battery-v0.2","","[{""page_index"":0,""viewing_time"":1611.1000000000931}]","1612","","","","","","","","","","","","","","","","","","","","","","","","",""
"pit-comprehension","58","640670","0.0-2.0-25.0-0.0","battery-v0.2","","","6449","[""True""]","0","18","853","562","","","","","","","","","","","","","","","","","","","",""
"pit-instructions","59","644309","0.0-2.0-25.0-1.0","battery-v0.2","","[{""page_index"":0,""viewing_time"":3618.1999999999534}]","3619.600000000093","","","","","","","","","","","","","","","","","","","","","","","","",""
"pit-comprehension","60","651392","0.0-2.0-26.0-0.0","battery-v0.2","","","7072","[""False""]","0","18","853","562","","","","","","","","","","","","","","","","","","","",""
"pit-instructions","61","653836","0.0-2.0-26.0-1.0","battery-v0.2","","[{""page_index"":0,""viewing_time"":2423.899999999907}]","2425","","","","","","","","","","","","","","","","","","","","","","","","",""
"pit-instructions","62","826487","0.0-3.0","battery-v0.2","","[{""page_index"":0,""viewing_time"":4510.300000000047},{""page_index"":1,""viewing_time"":5657},{""page_index"":2,""viewing_time"":162475.30000000005}]","172646.80000000005","","","","","","","","","","","","","","","","","","","","","","","","",""
"pit-trial","63","829973","0.0-4.0","battery-v0.2","","","611.5","","","18","853","562","&#9733;","elianto","#3366ff99","-1"," ","0","0","[1461.7000000001863]","1","1","","","853","1","2","2","win","no-go","0","[]"
"pit-trial","64","833635","0.0-5.0","battery-v0.2","","","798","","","18","853","562","&#9752;","elianto","#f73b6a7A"," "," ","1","0","[1649.1000000000931]","1","1","","","853","2","3","3","lose","go","0","0"
"pit-trial","65","837832","0.0-6.0","battery-v0.2","","","1335.6000000000931","","","18","853","562","&#9730;","elianto","#3366ff99"," "," ","1","+10","[2191.3000000000466]","1","1","","","853","3","1","1","win","go","0","0"
"pit-trial","66","841642","0.0-7.0","battery-v0.2","","","953.5","","","18","853","562","&#9728;","elianto","#f73b6a7A","-1"," ","0","-10","[1803.6999999999534]","1","1","","","853","4","0","4","lose","no-go","0","0"
"pit-trial","67","846497","0.0-8.0","battery-v0.2","","","-1","","","18","853","562","&#9728;","elianto","#f73b6a7A","-1","-1","1","0","[]","0","1","","","853","5","0","4","lose","no-go","0","0"
"pit-trial","68","851353","0.0-9.0","battery-v0.2","","","-1","","","18","853","562","&#9733;","elianto","#3366ff99","-1","-1","1","+10","[]","0","1","","","853","6","2","2","win","no-go","0","0"
"pit-trial","69","855322","0.0-10.0","battery-v0.2","","","1113.1000000000931","","","18","853","562","&#9730;","elianto","#3366ff99"," "," ","1","+10","[1963.2999999998137]","1","1","","","853","7","1","1","win","go","0","0"
"pit-trial","70","860165","0.0-11.0","battery-v0.2","","","1987.3999999999069","","","18","853","562","&#9752;","elianto","#f73b6a7A"," "," ","1","0","[2837.8000000000466]","1","1","","","853","8","3","3","lose","go","0","0"
"pit-trial","71","863941","0.0-12.0","battery-v0.2","","","919.0999999998603","","","18","853","562","&#9728;","elianto","#f73b6a7A","-1"," ","0","0","[1769.5]","1","1","","","853","9","0","4","lose","no-go","1","0"
"pit-trial","72","867738","0.0-13.0","battery-v0.2","","","941.8000000000466","","","18","853","562","&#9730;","elianto","#3366ff99"," "," ","1","+10","[1791.5999999998603]","1","1","","","853","10","1","1","win","go","0","0"
"pit-trial","73","872595","0.0-14.0","battery-v0.2","","","-1","","","18","853","562","&#9733;","elianto","#3366ff99","-1","-1","1","+10","[]","0","1","","","853","11","2","2","win","no-go","0","0"
"pit-trial","74","877452","0.0-15.0","battery-v0.2","","","-1","","","18","853","562","&#9752;","elianto","#f73b6a7A"," ","-1","0","-10","[]","0","1","","","853","12","3","3","lose","go","0","0"
"pit-trial","75","881193","0.0-16.0","battery-v0.2","","","883.3000000000466","","","18","853","562","&#9752;","elianto","#f73b6a7A"," "," ","1","0","[1733.5]","1","1","","","853","13","3","3","lose","go","0","0"
"pit-trial","76","886051","0.0-17.0","battery-v0.2","","","-1","","","18","853","562","&#9733;","elianto","#3366ff99","-1","-1","1","0","[]","0","1","","","853","14","2","2","win","no-go","1","0"
"pit-trial","77","889932","0.0-18.0","battery-v0.2","","","1023.1999999999534","","","18","853","562","&#9728;","elianto","#f73b6a7A","-1"," ","0","-10","[1873.3999999999069]","1","1","","","853","15","0","4","lose","no-go","0","0"
"pit-trial","78","893778","0.0-19.0","battery-v0.2","","","988.8000000000466","","","18","853","562","&#9730;","elianto","#3366ff99"," "," ","1","+10","[1838.8000000000466]","1","1","","","853","16","1","1","win","go","0","0"
"pit-trial","79","898635","0.0-20.0","battery-v0.2","","","-1","","","18","853","562","&#9728;","elianto","#f73b6a7A","-1","-1","1","-10","[]","0","1","","","853","17","0","4","lose","no-go","1","0"
"pit-trial","80","903493","0.0-21.0","battery-v0.2","","","-1","","","18","853","562","&#9752;","elianto","#f73b6a7A"," ","-1","0","-10","[]","0","1","","","853","18","3","3","lose","go","0","0"
"pit-trial","81","907242","0.0-22.0","battery-v0.2","","","890.6000000000931","","","18","853","562","&#9730;","elianto","#3366ff99"," "," ","1","+10","[1740.6000000000931]","1","1","","","853","19","1","1","win","go","0","0"
"pit-trial","82","912098","0.0-23.0","battery-v0.2","","","-1","","","18","853","562","&#9733;","elianto","#3366ff99","-1","-1","1","+10","[]","0","1","","","853","20","2","2","win","no-go","0","0"
"pit-instructions","83","925461","0.0-24.0","battery-v0.2","","[{""page_index"":0,""viewing_time"":6049.100000000093},{""page_index"":1,""viewing_time"":7308.899999999907}]","13359.199999999953","","","","","","","","","","","","","","","","","","","","","","","","",""
"pit-trial","84","929240","0.0-25.0","battery-v0.2","","","919.8000000000466","","","18","853","562","k","elianto","#f73b6a7A"," "," ","1","0","[1769.8000000000466]","1","2","","","853","21","3","3","lose","go","0","0"
"pit-trial","85","934096","0.0-26.0","battery-v0.2","","","-1","","","18","853","562","v","elianto","#3366ff99","-1","-1","1","+10","[]","0","2","","","853","22","0","2","win","no-go","0","0"
"pit-trial","86","937751","0.0-27.0","battery-v0.2","","","797","","","18","853","562","j","elianto","#3366ff99","-1"," ","0","0","[1647.1000000000931]","1","2","","","853","23","1","2","win","no-go","0","0"
"pit-trial","87","941860","0.0-28.0","battery-v0.2","","","1247.5","","","18","853","562","d","elianto","#3366ff99"," "," ","1","+10","[2102.5]","1","2","","","853","24","2","1","win","go","0","0"
"pit-trial","88","946717","0.0-29.0","battery-v0.2","","","-1","","","18","853","562","j","elianto","#3366ff99","-1","-1","1","+10","[]","0","2","","","853","25","1","2","win","no-go","0","0"
"pit-trial","89","951204","0.0-30.0","battery-v0.2","","","1628.7000000001863","","","18","853","562","v","elianto","#3366ff99","-1"," ","0","0","[2478.6999999999534]","1","2","","","853","26","0","2","win","no-go","0","0"
"pit-trial","90","956061","0.0-31.0","battery-v0.2","","","-1","","","18","853","562","d","elianto","#3366ff99"," ","-1","0","0","[]","0","2","","","853","27","2","1","win","go","0","0"
"pit-trial","91","960148","0.0-32.0","battery-v0.2","","","1225.8999999999069","","","18","853","562","k","elianto","#f73b6a7A"," "," ","1","0","[2079.100000000093]","1","2","","","853","28","3","3","lose","go","0","0"
"pit-trial","92","964163","0.0-33.0","battery-v0.2","","","1158.0999999998603","","","18","853","562","v","elianto","#3366ff99","-1"," ","0","0","[2008]","1","2","","","853","29","0","2","win","no-go","0","0"
"pit-trial","93","968513","0.0-34.0","battery-v0.2","","","1488.9000000001397","","","18","853","562","j","elianto","#3366ff99","-1"," ","0","+10","[2339.1999999999534]","1","2","","","853","30","1","2","win","no-go","1","0"
"pit-trial","94","973371","0.0-35.0","battery-v0.2","","","-1","","","18","853","562","d","elianto","#3366ff99"," ","-1","0","0","[]","0","2","","","853","31","2","1","win","go","0","0"
"pit-trial","95","977280","0.0-36.0","battery-v0.2","","","1050.4000000001397","","","18","853","562","k","elianto","#f73b6a7A"," "," ","1","0","[1901.3000000000466]","1","2","","","853","32","3","3","lose","go","0","0"
"pit-trial","96","982138","0.0-37.0","battery-v0.2","","","-1","","","18","853","562","d","elianto","#3366ff99"," ","-1","0","0","[]","0","2","","","853","33","2","1","win","go","0","0"
"pit-trial","97","986997","0.0-38.0","battery-v0.2","","","-1","","","18","853","562","v","elianto","#3366ff99","-1","-1","1","+10","[]","0","2","","","853","34","0","2","win","no-go","0","0"
"pit-trial","98","990663","0.0-39.0","battery-v0.2","","","810.1999999999534","","","18","853","562","k","elianto","#f73b6a7A"," "," ","1","0","[1660.8000000000466]","1","2","","","853","35","3","3","lose","go","0","0"
"pit-trial","99","994085","0.0-40.0","battery-v0.2","","","565.6000000000931","","","18","853","562","j","elianto","#3366ff99","-1"," ","0","0","[1416.3999999999069]","1","2","","","853","36","1","2","win","no-go","0","0"
"pit-trial","100","997590","0.0-41.0","battery-v0.2","","","650","","","18","853","562","d","elianto","#3366ff99"," "," ","1","+10","[1500]","1","2","","","853","37","2","1","win","go","0","0"
"pit-trial","101","1002049","0.0-42.0","battery-v0.2","","","1599","","","18","853","562","v","elianto","#3366ff99","-1"," ","0","+10","[2453]","1","2","","","853","38","0","2","win","no-go","1","0"
"pit-trial","102","1006905","0.0-43.0","battery-v0.2","","","-1","","","18","853","562","k","elianto","#f73b6a7A"," ","-1","0","-10","[]","0","2","","","853","39","3","3","lose","go","0","0"
"pit-trial","103","1011760","0.0-44.0","battery-v0.2","","","-1","","","18","853","562","j","elianto","#3366ff99","-1","-1","1","+10","[]","0","2","","","853","40","1","2","win","no-go","0","0"
"pit-trial","104","1016617","0.0-45.0","battery-v0.2","","","-1","","","18","853","562","k","elianto","#f73b6a7A"," ","-1","0","-10","[]","0","2","","","853","41","3","3","lose","go","0","0"
"pit-trial","105","1020112","0.0-46.0","battery-v0.2","","","636.5999999998603","","","18","853","562","d","elianto","#3366ff99"," "," ","1","+10","[1488.7000000001863]","1","2","","","853","42","2","1","win","go","0","0"
"pit-trial","106","1024969","0.0-47.0","battery-v0.2","","","-1","","","18","853","562","v","elianto","#3366ff99","-1","-1","1","+10","[]","0","2","","","853","43","0","2","win","no-go","0","0"
"pit-trial","107","1029826","0.0-48.0","battery-v0.2","","","-1","","","18","853","562","j","elianto","#3366ff99","-1","-1","1","+10","[]","0","2","","","853","44","1","2","win","no-go","0","0"
"pit-trial","108","1034683","0.0-49.0","battery-v0.2","","","-1","","","18","853","562","d","elianto","#3366ff99"," ","-1","0","0","[]","0","2","","","853","45","2","1","win","go","0","0"
"pit-trial","109","1039540","0.0-50.0","battery-v0.2","","","-1","","","18","853","562","k","elianto","#f73b6a7A"," ","-1","0","-10","[3422.0999999998603]","1","2","","","853","46","3","3","lose","go","0","0"
"pit-trial","110","1044398","0.0-51.0","battery-v0.2","","","-1","","","18","853","562","j","elianto","#3366ff99","-1","-1","1","+10","[]","0","2","","","853","47","1","2","win","no-go","0","0"
"pit-trial","111","1049256","0.0-52.0","battery-v0.2","","","-1","","","18","853","562","v","elianto","#3366ff99","-1","-1","1","+10","[]","0","2","","","853","48","0","2","win","no-go","0","0"
"pit-trial","112","1054114","0.0-53.0","battery-v0.2","","","-1","","","18","853","562","v","elianto","#3366ff99","-1","-1","1","0","[]","0","2","","","853","49","0","2","win","no-go","1","0"
"pit-trial","113","1058972","0.0-54.0","battery-v0.2","","","-1","","","18","853","562","j","elianto","#3366ff99","-1","-1","1","+10","[]","0","2","","","853","50","1","2","win","no-go","0","0"
"pit-trial","114","1062518","0.0-55.0","battery-v0.2","","","687.6000000000931","","","18","853","562","k","elianto","#f73b6a7A"," "," ","1","0","[1537.7999999998137]","1","2","","","853","51","3","3","lose","go","0","0"
"pit-trial","115","1065890","0.0-56.0","battery-v0.2","","","515.4000000001397","","","18","853","562","d","elianto","#3366ff99"," "," ","1","+10","[1365.6999999999534]","1","2","","","853","52","2","1","win","go","0","0"
"pit-trial","116","1069875","0.0-57.0","battery-v0.2","","","1130.5","","","18","853","562","d","elianto","#3366ff99"," "," ","1","+10","[1980.8000000000466]","1","2","","","853","53","2","1","win","go","0","0"
"pit-trial","117","1074730","0.0-58.0","battery-v0.2","","","-1","","","18","853","562","v","elianto","#3366ff99","-1","-1","1","0","[]","0","2","","","853","54","0","2","win","no-go","1","0"
"pit-trial","118","1078899","0.0-59.0","battery-v0.2","","","1313.6999999999534","","","18","853","562","w","elianto","#f73b6a7A"," "," ","1","0","[2163.7000000001863]","1","2","","","853","55","5","3","lose","go","0","0"
"pit-trial","119","1082912","0.0-60.0","battery-v0.2","","","1152.8000000000466","","","18","853","562","e","elianto","#f73b6a7A","-1"," ","0","-10","[2007]","1","2","","","853","56","4","4","lose","no-go","0","0"
"pit-trial","120","1087012","0.0-61.0","battery-v0.2","","","1243.5","","","18","853","562","w","elianto","#f73b6a7A"," "," ","1","0","[2093.9000000001397]","1","2","","","853","57","5","3","lose","go","0","0"
"pit-trial","121","1091868","0.0-62.0","battery-v0.2","","","-1","","","18","853","562","e","elianto","#f73b6a7A","-1","-1","1","0","[]","0","2","","","853","58","4","4","lose","no-go","0","0"
"pit-trial","122","1096006","0.0-63.0","battery-v0.2","","","1280.8999999999069","","","18","853","562","v","elianto","#3366ff99","-1"," ","0","+10","[2131.0999999998603]","1","2","","","853","59","0","2","win","no-go","1","0"
"pit-trial","123","1100862","0.0-64.0","battery-v0.2","","","-1","","","18","853","562","d","elianto","#3366ff99"," ","-1","0","+10","[]","0","2","","","853","60","2","1","win","go","1","0"
"pit-trial","124","1104595","0.0-65.0","battery-v0.2","","","876.1999999999534","","","18","853","562","e","elianto","#f73b6a7A","-1"," ","0","-10","[1726.5]","1","2","","","853","61","4","4","lose","no-go","0","0"
"pit-trial","125","1109453","0.0-66.0","battery-v0.2","","","-1","","","18","853","562","w","elianto","#f73b6a7A"," ","-1","0","0","[]","0","2","","","853","62","5","3","lose","go","1","0"
"pit-trial","126","1114310","0.0-67.0","battery-v0.2","","","-1","","","18","853","562","d","elianto","#3366ff99"," ","-1","0","0","[]","0","2","","","853","63","2","1","win","go","0","0"
"pit-trial","127","1118605","0.0-68.0","battery-v0.2","","","1437.3000000000466","","","18","853","562","s","elianto","#3366ff99","-1"," ","0","+10","[2287.7000000001863]","1","2","","","853","64","6","2","win","no-go","1","0"
"pit-trial","128","1122558","0.0-69.0","battery-v0.2","","","1095.3999999999069","","","18","853","562","e","elianto","#f73b6a7A","-1"," ","0","-10","[1945.6999999999534]","1","2","","","853","65","4","4","lose","no-go","0","0"
"pit-trial","129","1126331","0.0-70.0","battery-v0.2","","","914.5999999998603","","","18","853","562","d","elianto","#3366ff99"," "," ","1","0","[1764.5]","1","2","","","853","66","2","1","win","go","1","0"
"pit-trial","130","1130495","0.0-71.0","battery-v0.2","","","1306.3000000000466","","","18","853","562","w","elianto","#f73b6a7A"," "," ","1","-10","[2156.4000000001397]","1","2","","","853","67","5","3","lose","go","1","0"
"pit-trial","131","1133872","0.0-72.0","battery-v0.2","","","517.3999999999069","","","18","853","562","s","elianto","#3366ff99","-1"," ","0","+10","[1368.4000000001397]","1","2","","","853","68","6","2","win","no-go","1","0"
"pit-trial","132","1138730","0.0-73.0","battery-v0.2","","","-1","","","18","853","562","e","elianto","#f73b6a7A","-1","-1","1","-10","[]","0","2","","","853","69","4","4","lose","no-go","1","0"
"pit-trial","133","1142612","0.0-74.0","battery-v0.2","","","1026.1999999999534","","","18","853","562","p","elianto","#f73b6a7A","-1"," ","0","-10","[1876.3999999999069]","1","2","","","853","70","7","4","lose","no-go","0","0"
"pit-trial","134","1146080","0.0-75.0","battery-v0.2","","","613.0999999998603","","","18","853","562","s","elianto","#3366ff99","-1"," ","0","0","[1463.3999999999069]","1","2","","","853","71","6","2","win","no-go","0","0"
"pit-trial","135","1150936","0.0-76.0","battery-v0.2","","","-1","","","18","853","562","w","elianto","#f73b6a7A"," ","-1","0","-10","[3609.7999999998137]","1","2","","","853","72","5","3","lose","go","0","0"
"pit-trial","136","1155724","0.0-77.0","battery-v0.2","","","1932.5","","","18","853","562","p","elianto","#f73b6a7A","-1"," ","0","-10","[2783.5]","1","2","","","853","73","7","4","lose","no-go","0","0"
"pit-trial","137","1160579","0.0-78.0","battery-v0.2","","","-1","","","18","853","562","e","elianto","#f73b6a7A","-1","-1","1","0","[]","0","2","","","853","74","4","4","lose","no-go","0","0"
"pit-trial","138","1164372","0.0-79.0","battery-v0.2","","","935.5","","","18","853","562","s","elianto","#3366ff99","-1"," ","0","0","[1788.1000000000931]","1","2","","","853","75","6","2","win","no-go","0","0"
"pit-trial","139","1167891","0.0-80.0","battery-v0.2","","","663","","","18","853","562","w","elianto","#f73b6a7A"," "," ","1","0","[1513.2000000001863]","1","2","","","853","76","5","3","lose","go","0","0"
"pit-trial","140","1172747","0.0-81.0","battery-v0.2","","","-1","","","18","853","562","e","elianto","#f73b6a7A","-1","-1","1","0","[]","0","2","","","853","77","4","4","lose","no-go","0","0"
"pit-trial","141","1176367","0.0-82.0","battery-v0.2","","","763.3000000000466","","","18","853","562","w","elianto","#f73b6a7A"," "," ","1","-10","[1613.5]","1","2","","","853","78","5","3","lose","go","1","0"
"pit-trial","142","1179767","0.0-83.0","battery-v0.2","","","542.1999999999534","","","18","853","562","s","elianto","#3366ff99","-1"," ","0","+10","[1392.5999999998603]","1","2","","","853","79","6","2","win","no-go","1","0"
"pit-trial","143","1184624","0.0-84.0","battery-v0.2","","","-1","","","18","853","562","p","elianto","#f73b6a7A","-1","-1","1","0","[]","0","2","","","853","80","7","4","lose","no-go","0","0"
"pit-trial","144","1188496","0.0-85.0","battery-v0.2","","","1014","","","18","853","562","w","elianto","#f73b6a7A"," "," ","1","0","[1864.1999999999534]","1","2","","","853","81","5","3","lose","go","0","0"
"pit-trial","145","1193354","0.0-86.0","battery-v0.2","","","-1","","","18","853","562","e","elianto","#f73b6a7A","-1","-1","1","0","[]","0","2","","","853","82","4","4","lose","no-go","0","0"
"pit-trial","146","1196799","0.0-87.0","battery-v0.2","","","586.8000000000466","","","18","853","562","s","elianto","#3366ff99","-1"," ","0","+10","[1437.1000000000931]","1","2","","","853","83","6","2","win","no-go","1","0"
"pit-trial","147","1201657","0.0-88.0","battery-v0.2","","","-1","","","18","853","562","p","elianto","#f73b6a7A","-1","-1","1","0","[]","0","2","","","853","84","7","4","lose","no-go","0","0"
"pit-trial","148","1205243","0.0-89.0","battery-v0.2","","","727.6999999999534","","","18","853","562","s","elianto","#3366ff99","-1"," ","0","+10","[1577.6999999999534]","1","2","","","853","85","6","2","win","no-go","1","0"
"pit-trial","149","1208736","0.0-90.0","battery-v0.2","","","635.3999999999069","","","18","853","562","w","elianto","#f73b6a7A"," "," ","1","-10","[1485.5]","1","2","","","853","86","5","3","lose","go","1","0"
"pit-trial","150","1213595","0.0-91.0","battery-v0.2","","","-1","","","18","853","562","p","elianto","#f73b6a7A","-1","-1","1","0","[]","0","2","","","853","87","7","4","lose","no-go","0","0"
"pit-trial","151","1218451","0.0-92.0","battery-v0.2","","","-1","","","18","853","562","e","elianto","#f73b6a7A","-1","-1","1","0","[]","0","2","","","853","88","4","4","lose","no-go","0","0"
"pit-trial","152","1223307","0.0-93.0","battery-v0.2","","","-1","","","18","853","562","e","elianto","#f73b6a7A","-1","-1","1","0","[]","0","2","","","853","89","4","4","lose","no-go","0","0"
"pit-trial","153","1228162","0.0-94.0","battery-v0.2","","","-1","","","18","853","562","p","elianto","#f73b6a7A","-1","-1","1","0","[]","0","2","","","853","90","7","4","lose","no-go","0","0"
"pit-trial","154","1231845","0.0-95.0","battery-v0.2","","","824.3999999999069","","","18","853","562","w","elianto","#f73b6a7A"," "," ","1","0","[1676.4000000001397]","1","2","","","853","91","5","3","lose","go","0","0"
"pit-trial","155","1235236","0.0-96.0","battery-v0.2","","","532.3999999999069","","","18","853","562","s","elianto","#3366ff99","-1"," ","0","0","[1385.1999999999534]","1","2","","","853","92","6","2","win","no-go","0","0"
"pit-trial","156","1239059","0.0-97.0","battery-v0.2","","","966.8000000000466","","","18","853","562","w","elianto","#f73b6a7A"," "," ","1","0","[1817.1999999999534]","1","2","","","853","93","5","3","lose","go","0","0"
"pit-trial","157","1243914","0.0-98.0","battery-v0.2","","","-1","","","18","853","562","p","elianto","#f73b6a7A","-1","-1","1","0","[]","0","2","","","853","94","7","4","lose","no-go","0","0"
"pit-trial","158","1247560","0.0-99.0","battery-v0.2","","","789.1999999999534","","","18","853","562","s","elianto","#3366ff99","-1"," ","0","0","[1639.6999999999534]","1","2","","","853","95","6","2","win","no-go","0","0"
"pit-trial","159","1251858","0.0-100.0","battery-v0.2","","","1440.3999999999069","","","18","853","562","g","elianto","#f73b6a7A","-1"," ","0","0","[2290.6999999999534]","1","2","","","853","96","8","4","lose","no-go","1","0"
"pit-trial","160","1255721","0.0-101.0","battery-v0.2","","","1006.8000000000466","","","18","853","562","s","elianto","#3366ff99","-1"," ","0","+10","[1857.1000000000931]","1","2","","","853","97","6","2","win","no-go","1","0"
"pit-trial","161","1260579","0.0-102.0","battery-v0.2","","","-1","","","18","853","562","w","elianto","#f73b6a7A"," ","-1","0","-10","[]","0","2","","","853","98","5","3","lose","go","0","0"
"pit-trial","162","1265436","0.0-103.0","battery-v0.2","","","-1","","","18","853","562","p","elianto","#f73b6a7A","-1","-1","1","0","[]","0","2","","","853","99","7","4","lose","no-go","0","0"
"pit-trial","163","1268876","0.0-104.0","battery-v0.2","","","582.3000000000466","","","18","853","562","g","elianto","#f73b6a7A","-1"," ","0","-10","[1432.5999999998603]","1","2","","","853","100","8","4","lose","no-go","0","0"
"pit-trial","164","1273402","0.0-105.0","battery-v0.2","","","1665.8000000000466","","","18","853","562","a","elianto","#3366ff99"," "," ","1","0","[2518.3000000000466]","1","2","","","853","101","9","1","win","go","1","0"
"pit-trial","165","1277769","0.0-106.0","battery-v0.2","","","1509","","","18","853","562","g","elianto","#f73b6a7A","-1"," ","0","-10","[2359.3000000000466]","1","2","","","853","102","8","4","lose","no-go","0","0"
"pit-trial","166","1282627","0.0-107.0","battery-v0.2","","","-1","","","18","853","562","l","elianto","#f73b6a7A"," ","-1","0","-10","[2948.5]","1","2","","","853","103","10","3","lose","go","0","0"
"pit-trial","167","1286534","0.0-108.0","battery-v0.2","","","1048","","","18","853","562","s","elianto","#3366ff99","-1"," ","0","0","[1898.1999999999534]","1","2","","","853","104","6","2","win","no-go","0","0"
"pit-trial","168","1291391","0.0-109.0","battery-v0.2","","","-1","","","18","853","562","g","elianto","#f73b6a7A","-1","-1","1","0","[]","0","2","","","853","105","8","4","lose","no-go","0","0"
"pit-trial","169","1296247","0.0-110.0","battery-v0.2","","","-1","","","18","853","562","a","elianto","#3366ff99"," ","-1","0","0","[]","0","2","","","853","106","9","1","win","go","0","0"
"pit-trial","170","1301102","0.0-111.0","battery-v0.2","","","-1","","","18","853","562","s","elianto","#3366ff99","-1","-1","1","+10","[]","0","2","","","853","107","6","2","win","no-go","0","0"
"pit-trial","171","1305956","0.0-112.0","battery-v0.2","","","-1","","","18","853","562","l","elianto","#f73b6a7A"," ","-1","0","-10","[]","0","2","","","853","108","10","3","lose","go","0","0"
"pit-trial","172","1309513","0.0-113.0","battery-v0.2","","","701.5","","","18","853","562","a","elianto","#3366ff99"," "," ","1","+10","[1551.8000000000466]","1","2","","","853","109","9","1","win","go","0","0"
"pit-trial","173","1313049","0.0-114.0","battery-v0.2","","","680.6000000000931","","","18","853","562","l","elianto","#f73b6a7A"," "," ","1","0","[1530.8000000000466]","1","2","","","853","110","10","3","lose","go","0","0"
"pit-trial","174","1317905","0.0-115.0","battery-v0.2","","","-1","","","18","853","562","g","elianto","#f73b6a7A","-1","-1","1","0","[]","0","2","","","853","111","8","4","lose","no-go","0","0"
"pit-trial","175","1322761","0.0-116.0","battery-v0.2","","","-1","","","18","853","562","u","elianto","#3366ff99"," ","-1","0","+10","[]","0","2","","","853","112","11","1","win","go","1","0"
"pit-trial","176","1327618","0.0-117.0","battery-v0.2","","","-1","","","18","853","562","u","elianto","#3366ff99"," ","-1","0","+10","[]","0","2","","","853","113","11","1","win","go","1","0"
"pit-trial","177","1331224","0.0-118.0","battery-v0.2","","","749.7000000001863","","","18","853","562","a","elianto","#3366ff99"," "," ","1","+10","[1599.9000000001397]","1","2","","","853","114","9","1","win","go","0","0"
"pit-trial","178","1334879","0.0-119.0","battery-v0.2","","","797.8999999999069","","","18","853","562","l","elianto","#f73b6a7A"," "," ","1","0","[1648.3999999999069]","1","2","","","853","115","10","3","lose","go","0","0"
"pit-trial","179","1339737","0.0-120.0","battery-v0.2","","","-1","","","18","853","562","g","elianto","#f73b6a7A","-1","-1","1","0","[]","0","2","","","853","116","8","4","lose","no-go","0","0"
"pit-trial","180","1344595","0.0-121.0","battery-v0.2","","","-1","","","18","853","562","g","elianto","#f73b6a7A","-1","-1","1","0","[]","0","2","","","853","117","8","4","lose","no-go","0","0"
"pit-trial","181","1349455","0.0-122.0","battery-v0.2","","","-1","","","18","853","562","u","elianto","#3366ff99"," ","-1","0","+10","[]","0","2","","","853","118","11","1","win","go","1","0"
"pit-trial","182","1353194","0.0-123.0","battery-v0.2","","","879","","","18","853","562","a","elianto","#3366ff99"," "," ","1","+10","[1729.8000000000466]","1","2","","","853","119","9","1","win","go","0","0"
"pit-trial","183","1356826","0.0-124.0","battery-v0.2","","","773.6000000000931","","","18","853","562","l","elianto","#f73b6a7A"," "," ","1","0","[1623.5999999998603]","1","2","","","853","120","10","3","lose","go","0","0"
"pit-trial","184","1361684","0.0-125.0","battery-v0.2","","","-1","","","18","853","562","u","elianto","#3366ff99"," ","-1","0","+10","[]","0","2","","","853","121","11","1","win","go","1","0"
"pit-trial","185","1365299","0.0-126.0","battery-v0.2","","","755.6000000000931","","","18","853","562","a","elianto","#3366ff99"," "," ","1","0","[1606.3999999999069]","1","2","","","853","122","9","1","win","go","1","0"
"pit-trial","186","1368825","0.0-127.0","battery-v0.2","","","670.5999999998603","","","18","853","562","l","elianto","#f73b6a7A"," "," ","1","0","[1520.6000000000931]","1","2","","","853","123","10","3","lose","go","0","0"
"pit-trial","187","1373680","0.0-128.0","battery-v0.2","","","-1","","","18","853","562","g","elianto","#f73b6a7A","-1","-1","1","-10","[]","0","2","","","853","124","8","4","lose","no-go","1","0"
"pit-trial","188","1377339","0.0-129.0","battery-v0.2","","","803","","","18","853","562","a","elianto","#3366ff99"," "," ","1","+10","[1653.1999999999534]","1","2","","","853","125","9","1","win","go","0","0"
"pit-trial","189","1382195","0.0-130.0","battery-v0.2","","","-1","","","18","853","562","u","elianto","#3366ff99"," ","-1","0","0","[]","0","2","","","853","126","11","1","win","go","0","0"
"pit-trial","190","1385775","0.0-131.0","battery-v0.2","","","725.2000000001863","","","18","853","562","l","elianto","#f73b6a7A"," "," ","1","0","[1575.3000000000466]","1","2","","","853","127","10","3","lose","go","0","0"
"pit-trial","191","1390631","0.0-132.0","battery-v0.2","","","-1","","","18","853","562","g","elianto","#f73b6a7A","-1","-1","1","0","[]","0","2","","","853","128","8","4","lose","no-go","0","0"
"pit-trial","192","1395488","0.0-133.0","battery-v0.2","","","-1","","","18","853","562","u","elianto","#3366ff99"," ","-1","0","+10","[]","0","2","","","853","129","11","1","win","go","1","0"
"pit-trial","193","1399459","0.0-134.0","battery-v0.2","","","1114.3000000000466","","","18","853","562","a","elianto","#3366ff99"," "," ","1","+10","[1964.5999999998603]","1","2","","","853","130","9","1","win","go","0","0"
"pit-trial","194","1403049","0.0-135.0","battery-v0.2","","","732.8000000000466","","","18","853","562","l","elianto","#f73b6a7A"," "," ","1","-10","[1583]","1","2","","","853","131","10","3","lose","go","1","0"
"pit-trial","195","1407906","0.0-136.0","battery-v0.2","","","-1","","","18","853","562","g","elianto","#f73b6a7A","-1","-1","1","-10","[]","0","2","","","853","132","8","4","lose","no-go","1","0"
"pit-trial","196","1412763","0.0-137.0","battery-v0.2","","","-1","","","18","853","562","u","elianto","#3366ff99"," ","-1","0","+10","[]","0","2","","","853","133","11","1","win","go","1","0"
"pit-trial","197","1417623","0.0-138.0","battery-v0.2","","","-1","","","18","853","562","g","elianto","#f73b6a7A","-1","-1","1","0","[]","0","2","","","853","134","8","4","lose","no-go","0","0"
"pit-trial","198","1421142","0.0-139.0","battery-v0.2","","","661.5","","","18","853","562","a","elianto","#3366ff99"," "," ","1","+10","[1511.5999999998603]","1","2","","","853","135","9","1","win","go","0","0"
"pit-trial","199","1426000","0.0-140.0","battery-v0.2","","","-1","","","18","853","562","l","elianto","#f73b6a7A"," ","-1","0","-10","[]","0","2","","","853","136","10","3","lose","go","0","0"
"pit-trial","200","1430858","0.0-141.0","battery-v0.2","","","-1","","","18","853","562","u","elianto","#3366ff99"," ","-1","0","0","[]","0","2","","","853","137","11","1","win","go","0","0"
"pit-trial","201","1434332","0.0-142.0","battery-v0.2","","","616","","","18","853","562","a","elianto","#3366ff99"," "," ","1","+10","[1466.3999999999069]","1","2","","","853","138","9","1","win","go","0","0"
"pit-trial","202","1439190","0.0-143.0","battery-v0.2","","","-1","","","18","853","562","g","elianto","#f73b6a7A","-1","-1","1","0","[]","0","2","","","853","139","8","4","lose","no-go","0","0"
"pit-trial","203","1442752","0.0-144.0","battery-v0.2","","","705","","","18","853","562","l","elianto","#f73b6a7A"," "," ","1","0","[1555.5]","1","2","","","853","140","10","3","lose","go","0","0"
"pit-instructions","204","1499034","0.0-145.0","battery-v0.2","","[{""page_index"":0,""viewing_time"":46698.19999999995},{""page_index"":1,""viewing_time"":9578.199999999953}]","56278","","","","","","","","","","","","","","","","","","","","","","","","",""
"pit-trial","205","1502925","0.0-146.0","battery-v0.2","","","1023.3000000000466","","","18","853","562","f","elianto","#f73b6a7A","-1"," ","0","0","[1873.4000000001397]","1","3","","","853","141","2","4","lose","no-go","1","0"
"pit-trial","206","1506891","0.0-147.0","battery-v0.2","","","1107.7999999998137","","","18","853","562","x","elianto","#3366ff99"," "," ","1","+10","[1958]","1","3","","","853","142","3","1","win","go","0","0"
"pit-trial","207","1511749","0.0-148.0","battery-v0.2","","","-1","","","18","853","562","q","elianto","#3366ff99","-1","-1","1","+10","[]","0","3","","","853","143","0","2","win","no-go","0","0"
"pit-trial","208","1516607","0.0-149.0","battery-v0.2","","","-1","","","18","853","562","n","elianto","#f73b6a7A"," ","-1","0","-10","[]","0","3","","","853","144","1","3","lose","go","0","0"
"pit-trial","209","1520555","0.0-150.0","battery-v0.2","","","1086.1999999999534","","","18","853","562","x","elianto","#3366ff99"," "," ","1","+10","[1938.5999999998603]","1","3","","","853","145","3","1","win","go","0","0"
"pit-trial","210","1525414","0.0-151.0","battery-v0.2","","","-1","","","18","853","562","q","elianto","#3366ff99","-1","-1","1","+10","[]","0","3","","","853","146","0","2","win","no-go","0","0"
"pit-trial","211","1528967","0.0-152.0","battery-v0.2","","","693.1999999999534","","","18","853","562","f","elianto","#f73b6a7A","-1"," ","0","-10","[1543.4000000001397]","1","3","","","853","147","2","4","lose","no-go","0","0"
"pit-trial","212","1532921","0.0-153.0","battery-v0.2","","","1093.5999999998603","","","18","853","562","n","elianto","#f73b6a7A"," "," ","1","0","[1943.7999999998137]","1","3","","","853","148","1","3","lose","go","0","0"
"pit-trial","213","1537049","0.0-154.0","battery-v0.2","","","1268.5","","","18","853","562","n","elianto","#f73b6a7A"," "," ","1","0","[2118.6999999999534]","1","3","","","853","149","1","3","lose","go","0","0"
"pit-trial","214","1541905","0.0-155.0","battery-v0.2","","","-1","","","18","853","562","f","elianto","#f73b6a7A","-1","-1","1","0","[]","0","3","","","853","150","2","4","lose","no-go","0","0"
"pit-trial","215","1545583","0.0-156.0","battery-v0.2","","","822.8999999999069","","","18","853","562","x","elianto","#3366ff99"," "," ","1","+10","[1673.0999999998603]","1","3","","","853","151","3","1","win","go","0","0"
"pit-trial","216","1550438","0.0-157.0","battery-v0.2","","","-1","","","18","853","562","q","elianto","#3366ff99","-1","-1","1","0","[]","0","3","","","853","152","0","2","win","no-go","1","0"
"pit-trial","217","1554689","0.0-158.0","battery-v0.2","","","1391.6999999999534","","","18","853","562","n","elianto","#f73b6a7A"," "," ","1","0","[2244.6999999999534]","1","3","","","853","153","1","3","lose","go","0","0"
"pit-trial","218","1559545","0.0-159.0","battery-v0.2","","","-1","","","18","853","562","q","elianto","#3366ff99","-1","-1","1","+10","[]","0","3","","","853","154","0","2","win","no-go","0","0"
"pit-trial","219","1563121","0.0-160.0","battery-v0.2","","","719","","","18","853","562","x","elianto","#3366ff99"," "," ","1","0","[1569.1999999999534]","1","3","","","853","155","3","1","win","go","1","0"
"pit-trial","220","1567978","0.0-161.0","battery-v0.2","","","-1","","","18","853","562","f","elianto","#f73b6a7A","-1","-1","1","0","[]","0","3","","","853","156","2","4","lose","no-go","0","0"
"pit-trial","221","1571595","0.0-162.0","battery-v0.2","","","760.1000000000931","","","18","853","562","n","elianto","#f73b6a7A"," "," ","1","0","[1611.3000000000466]","1","3","","","853","157","1","3","lose","go","0","0"
"pit-trial","222","1576453","0.0-163.0","battery-v0.2","","","-1","","","18","853","562","q","elianto","#3366ff99","-1","-1","1","+10","[]","0","3","","","853","158","0","2","win","no-go","0","0"
"pit-trial","223","1580556","0.0-164.0","battery-v0.2","","","1246.3000000000466","","","18","853","562","x","elianto","#3366ff99"," "," ","1","+10","[2096.600000000093]","1","3","","","853","159","3","1","win","go","0","0"
"pit-trial","224","1585413","0.0-165.0","battery-v0.2","","","-1","","","18","853","562","f","elianto","#f73b6a7A","-1","-1","1","0","[]","0","3","","","853","160","2","4","lose","no-go","0","0"
"pit-trial","225","1590271","0.0-166.0","battery-v0.2","","","-1","","","18","853","562","f","elianto","#f73b6a7A","-1","-1","1","0","[]","0","3","","","853","161","2","4","lose","no-go","0","0"
"pit-trial","226","1595129","0.0-167.0","battery-v0.2","","","-1","","","18","853","562","q","elianto","#3366ff99","-1","-1","1","+10","[]","0","3","","","853","162","0","2","win","no-go","0","0"
"pit-trial","227","1598722","0.0-168.0","battery-v0.2","","","734.5999999998603","","","18","853","562","n","elianto","#f73b6a7A"," "," ","1","0","[1584.8999999999069]","1","3","","","853","163","1","3","lose","go","0","0"
"pit-trial","228","1602193","0.0-169.0","battery-v0.2","","","613.1000000000931","","","18","853","562","x","elianto","#3366ff99"," "," ","1","+10","[1463.1999999999534]","1","3","","","853","164","3","1","win","go","0","0"
"pit-trial","229","1607051","0.0-170.0","battery-v0.2","","","-1","","","18","853","562","f","elianto","#f73b6a7A","-1","-1","1","0","[]","0","3","","","853","165","2","4","lose","no-go","0","0"
"pit-trial","230","1611909","0.0-171.0","battery-v0.2","","","-1","","","18","853","562","q","elianto","#3366ff99","-1","-1","1","+10","[]","0","3","","","853","166","0","2","win","no-go","0","0"
"pit-trial","231","1615633","0.0-172.0","battery-v0.2","","","862.6999999999534","","","18","853","562","x","elianto","#3366ff99"," "," ","1","+10","[1715]","1","3","","","853","167","3","1","win","go","0","0"
"pit-trial","232","1619672","0.0-173.0","battery-v0.2","","","1182.2999999998137","","","18","853","562","n","elianto","#f73b6a7A"," "," ","1","0","[2032.6999999999534]","1","3","","","853","168","1","3","lose","go","0","0"
"pit-trial","233","1624527","0.0-174.0","battery-v0.2","","","-1","","","18","853","562","f","elianto","#f73b6a7A","-1","-1","1","0","[]","0","3","","","853","169","2","4","lose","no-go","0","0"
"pit-trial","234","1628467","0.0-175.0","battery-v0.2","","","1085.7999999998137","","","18","853","562","n","elianto","#f73b6a7A"," "," ","1","0","[1935.8999999999069]","1","3","","","853","170","1","3","lose","go","0","0"
"pit-trial","235","1631915","0.0-176.0","battery-v0.2","","","588.6999999997206","","","18","853","562","x","elianto","#3366ff99"," "," ","1","+10","[1442.1000000000931]","1","3","","","853","171","3","1","win","go","0","0"
"pit-trial","236","1636771","0.0-177.0","battery-v0.2","","","-1","","","18","853","562","q","elianto","#3366ff99","-1","-1","1","+10","[]","0","3","","","853","172","0","2","win","no-go","0","0"
"pit-trial","237","1641630","0.0-178.0","battery-v0.2","","","-1","","","18","853","562","f","elianto","#f73b6a7A","-1","-1","1","-10","[]","0","3","","","853","173","2","4","lose","no-go","1","0"
"pit-trial","238","1645814","0.0-179.0","battery-v0.2","","","1326.5","","","18","853","562","t","elianto","#f73b6a7A"," "," ","1","0","[2178.899999999907]","1","3","","","853","174","4","3","lose","go","0","0"
"pit-trial","239","1650670","0.0-180.0","battery-v0.2","","","-1","","","18","853","562","n","elianto","#f73b6a7A"," ","-1","0","-10","[]","0","3","","","853","175","1","3","lose","go","0","0"
"pit-trial","240","1654507","0.0-181.0","battery-v0.2","","","980.3000000002794","","","18","853","562","b","elianto","#f73b6a7A","-1"," ","0","-10","[1830.5]","1","3","","","853","176","5","4","lose","no-go","0","0"
"pit-trial","241","1658153","0.0-182.0","battery-v0.2","","","787","","","18","853","562","t","elianto","#f73b6a7A"," "," ","1","0","[1637.6000000000931]","1","3","","","853","177","4","3","lose","go","0","0"
"pit-trial","242","1663010","0.0-183.0","battery-v0.2","","","-1","","","18","853","562","b","elianto","#f73b6a7A","-1","-1","1","0","[]","0","3","","","853","178","5","4","lose","no-go","0","0"
"pit-trial","243","1666434","0.0-184.0","battery-v0.2","","","565.2000000001863","","","18","853","562","n","elianto","#f73b6a7A"," "," ","1","0","[1415.2999999998137]","1","3","","","853","179","1","3","lose","go","0","0"
"pit-trial","244","1671291","0.0-185.0","battery-v0.2","","","-1","","","18","853","562","f","elianto","#f73b6a7A","-1","-1","1","0","[]","0","3","","","853","180","2","4","lose","no-go","0","0"
"pit-trial","245","1674770","0.0-186.0","battery-v0.2","","","621.1999999997206","","","18","853","562","t","elianto","#f73b6a7A"," "," ","1","0","[1471.5999999996275]","1","3","","","853","181","4","3","lose","go","0","0"
"pit-trial","246","1679104","0.0-187.0","battery-v0.2","","","1475.5999999996275","","","18","853","562","c","elianto","#3366ff99","-1"," ","0","0","[2325.8000000002794]","1","3","","","853","182","6","2","win","no-go","0","0"
"pit-trial","247","1683963","0.0-188.0","battery-v0.2","","","-1","","","18","853","562","f","elianto","#f73b6a7A","-1","-1","1","0","[]","0","3","","","853","183","2","4","lose","no-go","0","0"
"pit-trial","248","1688820","0.0-189.0","battery-v0.2","","","-1","","","18","853","562","b","elianto","#f73b6a7A","-1","-1","1","0","[]","0","3","","","853","184","5","4","lose","no-go","0","0"
"pit-trial","249","1693679","0.0-190.0","battery-v0.2","","","-1","","","18","853","562","b","elianto","#f73b6a7A","-1","-1","1","0","[]","0","3","","","853","185","5","4","lose","no-go","0","0"
"pit-trial","250","1697193","0.0-191.0","battery-v0.2","","","657.2999999998137","","","18","853","562","t","elianto","#f73b6a7A"," "," ","1","0","[1507.3000000002794]","1","3","","","853","186","4","3","lose","go","0","0"
"pit-trial","251","1702048","0.0-192.0","battery-v0.2","","","-1","","","18","853","562","f","elianto","#f73b6a7A","-1","-1","1","0","[]","0","3","","","853","187","2","4","lose","no-go","0","0"
"pit-trial","252","1706904","0.0-193.0","battery-v0.2","","","-1","","","18","853","562","c","elianto","#3366ff99","-1","-1","1","+10","[]","0","3","","","853","188","6","2","win","no-go","0","0"
"pit-trial","253","1710883","0.0-194.0","battery-v0.2","","","1123.7000000001863","","","18","853","562","z","elianto","#3366ff99"," "," ","1","+10","[1974]","1","3","","","853","189","7","1","win","go","0","0"
"pit-trial","254","1714490","0.0-195.0","battery-v0.2","","","751.5","","","18","853","562","t","elianto","#f73b6a7A"," "," ","1","0","[1601.5]","1","3","","","853","190","4","3","lose","go","0","0"
"pit-trial","255","1719345","0.0-196.0","battery-v0.2","","","-1","","","18","853","562","c","elianto","#3366ff99","-1","-1","1","+10","[]","0","3","","","853","191","6","2","win","no-go","0","0"
"pit-trial","256","1724202","0.0-197.0","battery-v0.2","","","-1","","","18","853","562","b","elianto","#f73b6a7A","-1","-1","1","0","[]","0","3","","","853","192","5","4","lose","no-go","0","0"
"pit-trial","257","1729058","0.0-198.0","battery-v0.2","","","-1","","","18","853","562","c","elianto","#3366ff99","-1","-1","1","+10","[]","0","3","","","853","193","6","2","win","no-go","0","0"
"pit-trial","258","1733225","0.0-199.0","battery-v0.2","","","1309.2000000001863","","","18","853","562","z","elianto","#3366ff99"," "," ","1","0","[2159.2000000001863]","1","3","","","853","194","7","1","win","go","1","0"
"pit-trial","259","1738081","0.0-200.0","battery-v0.2","","","-1","","","18","853","562","b","elianto","#f73b6a7A","-1","-1","1","0","[]","0","3","","","853","195","5","4","lose","no-go","0","0"
"pit-trial","260","1741530","0.0-201.0","battery-v0.2","","","588.2999999998137","","","18","853","562","t","elianto","#f73b6a7A"," "," ","1","0","[1441.2000000001863]","1","3","","","853","196","4","3","lose","go","0","0"
"pit-trial","261","1746387","0.0-202.0","battery-v0.2","","","-1","","","18","853","562","b","elianto","#f73b6a7A","-1","-1","1","0","[]","0","3","","","853","197","5","4","lose","no-go","0","0"
"pit-trial","262","1751244","0.0-203.0","battery-v0.2","","","-1","","","18","853","562","c","elianto","#3366ff99","-1","-1","1","0","[]","0","3","","","853","198","6","2","win","no-go","1","0"
"pit-trial","263","1754718","0.0-204.0","battery-v0.2","","","615.6000000000931","","","18","853","562","z","elianto","#3366ff99"," "," ","1","+10","[1465.7000000001863]","1","3","","","853","199","7","1","win","go","0","0"
"pit-trial","264","1758182","0.0-205.0","battery-v0.2","","","605.8999999999069","","","18","853","562","t","elianto","#f73b6a7A"," "," ","1","0","[1456.1999999997206]","1","3","","","853","200","4","3","lose","go","0","0"
"pit-trial","265","1763040","0.0-206.0","battery-v0.2","","","-1","","","18","853","562","c","elianto","#3366ff99","-1","-1","1","+10","[]","0","3","","","853","201","6","2","win","no-go","0","0"
"pit-trial","266","1766589","0.0-207.0","battery-v0.2","","","691.1000000000931","","","18","853","562","z","elianto","#3366ff99"," "," ","1","+10","[1541.1000000000931]","1","3","","","853","202","7","1","win","go","0","0"
"pit-trial","267","1770156","0.0-208.0","battery-v0.2","","","708.5","","","18","853","562","t","elianto","#f73b6a7A"," "," ","1","0","[1559]","1","3","","","853","203","4","3","lose","go","0","0"
"pit-trial","268","1775013","0.0-209.0","battery-v0.2","","","-1","","","18","853","562","b","elianto","#f73b6a7A","-1","-1","1","0","[]","0","3","","","853","204","5","4","lose","no-go","0","0"
"pit-trial","269","1779869","0.0-210.0","battery-v0.2","","","-1","","","18","853","562","b","elianto","#f73b6a7A","-1","-1","1","0","[]","0","3","","","853","205","5","4","lose","no-go","0","0"
"pit-trial","270","1783567","0.0-211.0","battery-v0.2","","","842.3999999999069","","","18","853","562","t","elianto","#f73b6a7A"," "," ","1","0","[1692.7999999998137]","1","3","","","853","206","4","3","lose","go","0","0"
"pit-trial","271","1788422","0.0-212.0","battery-v0.2","","","-1","","","18","853","562","c","elianto","#3366ff99","-1","-1","1","+10","[]","0","3","","","853","207","6","2","win","no-go","0","0"
"pit-trial","272","1791870","0.0-213.0","battery-v0.2","","","588.3999999999069","","","18","853","562","z","elianto","#3366ff99"," "," ","1","+10","[1442.1000000000931]","1","3","","","853","208","7","1","win","go","0","0"
"pit-trial","273","1795649","0.0-214.0","battery-v0.2","","","923.3999999999069","","","18","853","562","z","elianto","#3366ff99"," "," ","1","+10","[1773.5]","1","3","","","853","209","7","1","win","go","0","0"
"pit-trial","274","1799431","0.0-215.0","battery-v0.2","","","918.4000000003725","","","18","853","562","t","elianto","#f73b6a7A"," "," ","1","-10","[1773.8000000002794]","1","3","","","853","210","4","3","lose","go","1","0"
"pit-trial","275","1804288","0.0-216.0","battery-v0.2","","","-1","","","18","853","562","b","elianto","#f73b6a7A","-1","-1","1","0","[]","0","3","","","853","211","5","4","lose","no-go","0","0"
"pit-trial","276","1809145","0.0-217.0","battery-v0.2","","","-1","","","18","853","562","c","elianto","#3366ff99","-1","-1","1","+10","[]","0","3","","","853","212","6","2","win","no-go","0","0"
"pit-trial","277","1814002","0.0-218.0","battery-v0.2","","","-1","","","18","853","562","c","elianto","#3366ff99","-1","-1","1","+10","[]","0","3","","","853","213","6","2","win","no-go","0","0"
"pit-trial","278","1817528","0.0-219.0","battery-v0.2","","","669.2999999998137","","","18","853","562","z","elianto","#3366ff99"," "," ","1","+10","[1519.5]","1","3","","","853","214","7","1","win","go","0","0"
"pit-trial","279","1821151","0.0-220.0","battery-v0.2","","","764.3999999999069","","","18","853","562","t","elianto","#f73b6a7A"," "," ","1","0","[1615.3000000002794]","1","3","","","853","215","4","3","lose","go","0","0"
"pit-trial","280","1825882","0.0-221.0","battery-v0.2","","","1873.5","","","18","853","562","h","elianto","#3366ff99"," "," ","1","+10","[2723.7999999998137]","1","3","","","853","216","8","1","win","go","0","0"
"pit-trial","281","1830740","0.0-222.0","battery-v0.2","","","-1","","","18","853","562","c","elianto","#3366ff99","-1","-1","1","+10","[]","0","3","","","853","217","6","2","win","no-go","0","0"
"pit-trial","282","1834593","0.0-223.0","battery-v0.2","","","994.3000000002794","","","18","853","562","t","elianto","#f73b6a7A"," "," ","1","0","[1844.5]","1","3","","","853","218","4","3","lose","go","0","0"
"pit-trial","283","1838354","0.0-224.0","battery-v0.2","","","902.3999999999069","","","18","853","562","h","elianto","#3366ff99"," "," ","1","+10","[1752.6000000000931]","1","3","","","853","219","8","1","win","go","0","0"
"pit-trial","284","1842345","0.0-225.0","battery-v0.2","","","1133","","","18","853","562","z","elianto","#3366ff99"," "," ","1","0","[1983.1999999997206]","1","3","","","853","220","7","1","win","go","1","0"
"pit-trial","285","1847203","0.0-226.0","battery-v0.2","","","-1","","","18","853","562","c","elianto","#3366ff99","-1","-1","1","0","[]","0","3","","","853","221","6","2","win","no-go","1","0"
"pit-trial","286","1850860","0.0-227.0","battery-v0.2","","","800.5","","","18","853","562","h","elianto","#3366ff99"," "," ","1","+10","[1650.7000000001863]","1","3","","","853","222","8","1","win","go","0","0"
"pit-trial","287","1855035","0.0-228.0","battery-v0.2","","","1317.5999999996275","","","18","853","562","y","elianto","#3366ff99","-1"," ","0","0","[2169.1999999997206]","1","3","","","853","223","9","2","win","no-go","0","0"
"pit-trial","288","1859088","0.0-229.0","battery-v0.2","","","1197.5","","","18","853","562","z","elianto","#3366ff99"," "," ","1","+10","[2047.6000000000931]","1","3","","","853","224","7","1","win","go","0","0"
"pit-trial","289","1862802","0.0-230.0","battery-v0.2","","","854.1000000000931","","","18","853","562","z","elianto","#3366ff99"," "," ","1","+10","[1709.2000000001863]","1","3","","","853","225","7","1","win","go","0","0"
"pit-trial","290","1867659","0.0-231.0","battery-v0.2","","","-1","","","18","853","562","y","elianto","#3366ff99","-1","-1","1","+10","[]","0","3","","","853","226","9","2","win","no-go","0","0"
"pit-trial","291","1871108","0.0-232.0","battery-v0.2","","","593.5","","","18","853","562","h","elianto","#3366ff99"," "," ","1","+10","[1443.6000000000931]","1","3","","","853","227","8","1","win","go","0","0"
"pit-trial","292","1875963","0.0-233.0","battery-v0.2","","","-1","","","18","853","562","c","elianto","#3366ff99","-1","-1","1","0","[]","0","3","","","853","228","6","2","win","no-go","1","0"
"pit-trial","293","1880166","0.0-234.0","battery-v0.2","","","1341.8999999999069","","","18","853","562","r","elianto","#f73b6a7A"," "," ","1","0","[2197]","1","3","","","853","229","10","3","lose","go","0","0"
"pit-trial","294","1883799","0.0-235.0","battery-v0.2","","","776.5","","","18","853","562","h","elianto","#3366ff99"," "," ","1","+10","[1626.6000000000931]","1","3","","","853","230","8","1","win","go","0","0"
"pit-trial","295","1888656","0.0-236.0","battery-v0.2","","","-1","","","18","853","562","y","elianto","#3366ff99","-1","-1","1","+10","[3086.100000000093]","1","3","","","853","231","9","2","win","no-go","0","0"
"pit-trial","296","1893514","0.0-237.0","battery-v0.2","","","-1","","","18","853","562","m","elianto","#f73b6a7A","-1","-1","1","0","[]","0","3","","","853","232","11","4","lose","no-go","0","0"
"pit-trial","297","1898372","0.0-238.0","battery-v0.2","","","-1","","","18","853","562","y","elianto","#3366ff99","-1","-1","1","+10","[]","0","3","","","853","233","9","2","win","no-go","0","0"
"pit-trial","298","1901809","0.0-239.0","battery-v0.2","","","578.8000000002794","","","18","853","562","h","elianto","#3366ff99"," "," ","1","+10","[1429.7999999998137]","1","3","","","853","234","8","1","win","go","0","0"
"pit-trial","299","1906667","0.0-240.0","battery-v0.2","","","-1","","","18","853","562","m","elianto","#f73b6a7A","-1","-1","1","-10","[]","0","3","","","853","235","11","4","lose","no-go","1","0"
"pit-trial","300","1911526","0.0-241.0","battery-v0.2","","","-1","","","18","853","562","r","elianto","#f73b6a7A"," ","-1","0","-10","[]","0","3","","","853","236","10","3","lose","go","0","0"
"pit-trial","301","1915088","0.0-242.0","battery-v0.2","","","703.7000000001863","","","18","853","562","h","elianto","#3366ff99"," "," ","1","+10","[1554.1000000000931]","1","3","","","853","237","8","1","win","go","0","0"
"pit-trial","302","1919458","0.0-243.0","battery-v0.2","","","1511.6000000000931","","","18","853","562","r","elianto","#f73b6a7A"," "," ","1","0","[2362]","1","3","","","853","238","10","3","lose","go","0","0"
"pit-trial","303","1924317","0.0-244.0","battery-v0.2","","","-1","","","18","853","562","y","elianto","#3366ff99","-1","-1","1","+10","[]","0","3","","","853","239","9","2","win","no-go","0","0"
"pit-trial","304","1929173","0.0-245.0","battery-v0.2","","","-1","","","18","853","562","m","elianto","#f73b6a7A","-1","-1","1","-10","[]","0","3","","","853","240","11","4","lose","no-go","1","0"
"pit-trial","305","1934029","0.0-246.0","battery-v0.2","","","-1","","","18","853","562","y","elianto","#3366ff99","-1","-1","1","+10","[]","0","3","","","853","241","9","2","win","no-go","0","0"
"pit-trial","306","1937507","0.0-247.0","battery-v0.2","","","621.7999999998137","","","18","853","562","h","elianto","#3366ff99"," "," ","1","0","[1472]","1","3","","","853","242","8","1","win","go","1","0"
"pit-trial","307","1941234","0.0-248.0","battery-v0.2","","","871.2999999998137","","","18","853","562","m","elianto","#f73b6a7A","-1"," ","0","-10","[1721.6999999997206]","1","3","","","853","243","11","4","lose","no-go","0","0"
"pit-trial","308","1944848","0.0-249.0","battery-v0.2","","","756.3999999999069","","","18","853","562","r","elianto","#f73b6a7A"," "," ","1","0","[1607.7999999998137]","1","3","","","853","244","10","3","lose","go","0","0"
"pit-trial","309","1948240","0.0-250.0","battery-v0.2","","","534.8000000002794","","","18","853","562","h","elianto","#3366ff99"," "," ","1","+10","[1386.3999999999069]","1","3","","","853","245","8","1","win","go","0","0"
"pit-trial","310","1951877","0.0-251.0","battery-v0.2","","","780.1999999997206","","","18","853","562","r","elianto","#f73b6a7A"," "," ","1","0","[1630.3999999999069]","1","3","","","853","246","10","3","lose","go","0","0"
"pit-trial","311","1956733","0.0-252.0","battery-v0.2","","","-1","","","18","853","562","y","elianto","#3366ff99","-1","-1","1","+10","[]","0","3","","","853","247","9","2","win","no-go","0","0"
"pit-trial","312","1961590","0.0-253.0","battery-v0.2","","","-1","","","18","853","562","m","elianto","#f73b6a7A","-1","-1","1","0","[]","0","3","","","853","248","11","4","lose","no-go","0","0"
"pit-trial","313","1966447","0.0-254.0","battery-v0.2","","","-1","","","18","853","562","y","elianto","#3366ff99","-1","-1","1","+10","[]","0","3","","","853","249","9","2","win","no-go","0","0"
"pit-trial","314","1970042","0.0-255.0","battery-v0.2","","","737.1000000000931","","","18","853","562","h","elianto","#3366ff99"," "," ","1","0","[1587.5]","1","3","","","853","250","8","1","win","go","1","0"
"pit-trial","315","1974900","0.0-256.0","battery-v0.2","","","-1","","","18","853","562","m","elianto","#f73b6a7A","-1","-1","1","0","[]","0","3","","","853","251","11","4","lose","no-go","0","0"
"pit-trial","316","1978505","0.0-257.0","battery-v0.2","","","745.2999999998137","","","18","853","562","r","elianto","#f73b6a7A"," "," ","1","-10","[1598.5]","1","3","","","853","252","10","3","lose","go","1","0"
"pit-trial","317","1982249","0.0-258.0","battery-v0.2","","","886.1999999997206","","","18","853","562","r","elianto","#f73b6a7A"," "," ","1","0","[1736.5]","1","3","","","853","253","10","3","lose","go","0","0"
"pit-trial","318","1987108","0.0-259.0","battery-v0.2","","","-1","","","18","853","562","m","elianto","#f73b6a7A","-1","-1","1","0","[]","0","3","","","853","254","11","4","lose","no-go","0","0"
"pit-trial","319","1990829","0.0-260.0","battery-v0.2","","","857.8999999999069","","","18","853","562","h","elianto","#3366ff99"," "," ","1","+10","[1711.7999999998137]","1","3","","","853","255","8","1","win","go","0","0"
"pit-trial","320","1995686","0.0-261.0","battery-v0.2","","","-1","","","18","853","562","y","elianto","#3366ff99","-1","-1","1","0","[]","0","3","","","853","256","9","2","win","no-go","1","0"
"pit-trial","321","1999922","0.0-262.0","battery-v0.2","","","1377.2999999998137","","","18","853","562","r","elianto","#f73b6a7A"," "," ","1","0","[2227.600000000093]","1","3","","","853","257","10","3","lose","go","0","0"
"pit-trial","322","2003714","0.0-263.0","battery-v0.2","","","932.2999999998137","","","18","853","562","h","elianto","#3366ff99"," "," ","1","+10","[1783.6000000000931]","1","3","","","853","258","8","1","win","go","0","0"
"pit-trial","323","2008574","0.0-264.0","battery-v0.2","","","-1","","","18","853","562","m","elianto","#f73b6a7A","-1","-1","1","-10","[]","0","3","","","853","259","11","4","lose","no-go","1","0"
"pit-trial","324","2013429","0.0-265.0","battery-v0.2","","","-1","","","18","853","562","y","elianto","#3366ff99","-1","-1","1","+10","[]","0","3","","","853","260","9","2","win","no-go","0","0"
"pit-instructions","325","2023857","0.0-266.0","battery-v0.2","","[{""page_index"":0,""viewing_time"":10422.700000000186}]","10423.600000000093","","","","","","","","","","","","","","","","","","","","","","","","",""
