"trial_type","trial_index","time_elapsed","internal_node_id","task_version","subject_id","interactions","blur_events","focus_events","fullscreenenter_events","fullscreenexit_events","success","view_history","rt","responses","num_errors","age","subject","participantId","rune","rune_set","hex","correct","choice","accuracy","outcome","keys","total_keys","block","practice","value","sub","trial","stimulus","robot","valence","action","sham","browser_interactions"
"pavlovia","0","57","0.0-0.0","battery-v0.2","","""event"",""trial"",""time""
""fullscreenenter"",""1"",""7688""
","
","
","""event"",""trial"",""time""
""fullscreenenter"",""1"",""7688""
","
","","","","","","","","","","","","","","","","","","","","","","","","","","","",""
"fullscreen","1","8672","0.0-1.0","battery-v0.2","","""event"",""trial"",""time""
""fullscreenenter"",""1"",""7688""
","
","
","""event"",""trial"",""time""
""fullscreenenter"",""1"",""7688""
","
","true","","","","","","","","","","","","","","","","","","","","","","","","","","",""
"pit-instructions","2","12873","0.0-2.0-0.0","battery-v0.2","","""event"",""trial"",""time""
""fullscreenenter"",""1"",""7688""
","
","
","""event"",""trial"",""time""
""fullscreenenter"",""1"",""7688""
","
","","[{""page_index"":0,""viewing_time"":4184.400000000023}]","4187","","","","","","","","","","","","","","","","","","","","","","","","",""
"pit-comprehension","3","17615","0.0-2.0-1.0-0.0","battery-v0.2","","""event"",""trial"",""time""
""fullscreenenter"",""1"",""7688""
","
","
","""event"",""trial"",""time""
""fullscreenenter"",""1"",""7688""
","
","","","4721.299999999988","[""shark""]","0","16","1331","603","","","","","","","","","","","","","","","","","","","",""
"pit-instructions","4","19525","0.0-2.0-1.0-1.0","battery-v0.2","","""event"",""trial"",""time""
""fullscreenenter"",""1"",""7688""
","
","
","""event"",""trial"",""time""
""fullscreenenter"",""1"",""7688""
","
","","[{""page_index"":0,""viewing_time"":1868.100000000035}]","1868.7999999999884","","","","","","","","","","","","","","","","","","","","","","","","",""
"pit-comprehension","5","23427","0.0-2.0-2.0-0.0","battery-v0.2","","""event"",""trial"",""time""
""fullscreenenter"",""1"",""7688""
","
","
","""event"",""trial"",""time""
""fullscreenenter"",""1"",""7688""
","
","","","3889.100000000035","[""tiger""]","0","16","1331","603","","","","","","","","","","","","","","","","","","","",""
"pit-instructions","6","24883","0.0-2.0-2.0-1.0","battery-v0.2","","""event"",""trial"",""time""
""fullscreenenter"",""1"",""7688""
","
","
","""event"",""trial"",""time""
""fullscreenenter"",""1"",""7688""
","
","","[{""page_index"":0,""viewing_time"":1439}]","1440.2999999999884","","","","","","","","","","","","","","","","","","","","","","","","",""
"pit-instructions","7","118986","0.0-2.0-3.0","battery-v0.2","","""event"",""trial"",""time""
""fullscreenenter"",""1"",""7688""
","
","
","""event"",""trial"",""time""
""fullscreenenter"",""1"",""7688""
","
","","[{""page_index"":0,""viewing_time"":8338.299999999988},{""page_index"":1,""viewing_time"":5667.399999999965},{""page_index"":2,""viewing_time"":6611.5},{""page_index"":3,""viewing_time"":5287.800000000047},{""page_index"":4,""viewing_time"":6167.099999999977},{""page_index"":5,""viewing_time"":6160.700000000012},{""page_index"":6,""viewing_time"":7341.200000000012},{""page_index"":7,""viewing_time"":6232.799999999988},{""page_index"":8,""viewing_time"":7660.5},{""page_index"":9,""viewing_time"":8398.299999999988},{""page_index"":10,""viewing_time"":7135.599999999977},{""page_index"":11,""viewing_time"":7265.900000000023},{""page_index"":12,""viewing_time"":6212.200000000012},{""page_index"":13,""viewing_time"":5608.299999999988}]","94089.5","","","","","","","","","","","","","","","","","","","","","","","","",""
"pit-trial","8","122619","0.0-2.0-4.0-0.0","battery-v0.2","","""event"",""trial"",""time""
""fullscreenenter"",""1"",""7688""
","
","
","""event"",""trial"",""time""
""fullscreenenter"",""1"",""7688""
","
","","","766.5999999999767","","","16","1331","603","&#9784;","elianto","#FFFFF080"," "," ","1","&#10004","[1621.399999999965]","1","0","0","","","","","","","","",""
"pit-trial","9","126028","0.0-2.0-4.1-0.1","battery-v0.2","","""event"",""trial"",""time""
""fullscreenenter"",""1"",""7688""
","
","
","""event"",""trial"",""time""
""fullscreenenter"",""1"",""7688""
","
","","","544","","","16","1331","603","&#9784;","elianto","#FFFFF080"," "," ","1","&#10004","[1398.7000000000116]","1","0","0","","","","","","","","",""
"pit-trial","10","129376","0.0-2.0-4.2-0.2","battery-v0.2","","""event"",""trial"",""time""
""fullscreenenter"",""1"",""7688""
","
","
","""event"",""trial"",""time""
""fullscreenenter"",""1"",""7688""
","
","","","486.79999999998836","","","16","1331","603","&#9784;","elianto","#FFFFF080"," "," ","1","&#10004","[1337.399999999965]","1","0","0","","","","","","","","",""
"pit-trial","11","132651","0.0-2.0-4.3-0.3","battery-v0.2","","""event"",""trial"",""time""
""fullscreenenter"",""1"",""7688""
","
","
","""event"",""trial"",""time""
""fullscreenenter"",""1"",""7688""
","
","","","416.20000000001164","","","16","1331","603","&#9784;","elianto","#FFFFF080"," "," ","1","&#10004","[1266.1999999999534]","1","0","0","","","","","","","","",""
"pit-trial","12","135699","0.0-2.0-4.4-0.4","battery-v0.2","","""event"",""trial"",""time""
""fullscreenenter"",""1"",""7688""
","
","
","""event"",""trial"",""time""
""fullscreenenter"",""1"",""7688""
","
","","","184.5","","","16","1331","603","&#9784;","elianto","#FFFFF080"," "," ","1","&#10004","[1037.2999999999884]","1","0","0","","","","","","","","",""
"pit-instructions","13","156899","0.0-2.0-5.0","battery-v0.2","","""event"",""trial"",""time""
""fullscreenenter"",""1"",""7688""
","
","
","""event"",""trial"",""time""
""fullscreenenter"",""1"",""7688""
","
","","[{""page_index"":0,""viewing_time"":4717.299999999988},{""page_index"":1,""viewing_time"":5858.299999999988},{""page_index"":2,""viewing_time"":5534.200000000012},{""page_index"":3,""viewing_time"":5078}]","21189.20000000001","","","","","","","","","","","","","","","","","","","","","","","","",""
"pit-trial","14","161759","0.0-2.0-6.0-0.0","battery-v0.2","","""event"",""trial"",""time""
""fullscreenenter"",""1"",""7688""
","
","
","""event"",""trial"",""time""
""fullscreenenter"",""1"",""7688""
","
","","","-1","","","16","1331","603","&#9854;","elianto","#FFFFF080","-1","-1","1","&#10004","[]","0","0","1","","","","","","","","",""
"pit-trial","15","166634","0.0-2.0-6.1-0.1","battery-v0.2","","""event"",""trial"",""time""
""fullscreenenter"",""1"",""7688""
","
","
","""event"",""trial"",""time""
""fullscreenenter"",""1"",""7688""
","
","","","-1","","","16","1331","603","&#9854;","elianto","#FFFFF080","-1","-1","1","&#10004","[]","0","0","1","","","","","","","","",""
"pit-trial","16","171496","0.0-2.0-6.2-0.2","battery-v0.2","","""event"",""trial"",""time""
""fullscreenenter"",""1"",""7688""
","
","
","""event"",""trial"",""time""
""fullscreenenter"",""1"",""7688""
","
","","","-1","","","16","1331","603","&#9854;","elianto","#FFFFF080","-1","-1","1","&#10004","[]","0","0","1","","","","","","","","",""
"pit-trial","17","176357","0.0-2.0-6.3-0.3","battery-v0.2","","""event"",""trial"",""time""
""fullscreenenter"",""1"",""7688""
","
","
","""event"",""trial"",""time""
""fullscreenenter"",""1"",""7688""
","
","","","-1","","","16","1331","603","&#9854;","elianto","#FFFFF080","-1","-1","1","&#10004","[]","0","0","1","","","","","","","","",""
"pit-trial","18","181219","0.0-2.0-6.4-0.4","battery-v0.2","","""event"",""trial"",""time""
""fullscreenenter"",""1"",""7688""
","
","
","""event"",""trial"",""time""
""fullscreenenter"",""1"",""7688""
","
","","","-1","","","16","1331","603","&#9854;","elianto","#FFFFF080","-1","-1","1","&#10004","[]","0","0","1","","","","","","","","",""
"pit-instructions","19","294807","0.0-2.0-7.0","battery-v0.2","","""event"",""trial"",""time""
""fullscreenenter"",""1"",""7688""
","
","
","""event"",""trial"",""time""
""fullscreenenter"",""1"",""7688""
","
","","[{""page_index"":0,""viewing_time"":5345.200000000012},{""page_index"":1,""viewing_time"":6886.200000000012},{""page_index"":2,""viewing_time"":5898.799999999988},{""page_index"":3,""viewing_time"":6248.900000000023},{""page_index"":4,""viewing_time"":5221.899999999965},{""page_index"":5,""viewing_time"":6918.600000000035},{""page_index"":6,""viewing_time"":5023.29999999993},{""page_index"":7,""viewing_time"":8382.300000000047},{""page_index"":8,""viewing_time"":6459.699999999953},{""page_index"":9,""viewing_time"":5609.5},{""page_index"":10,""viewing_time"":6744.100000000093},{""page_index"":11,""viewing_time"":4204.29999999993},{""page_index"":12,""viewing_time"":7107.400000000023},{""page_index"":13,""viewing_time"":6878.800000000047},{""page_index"":14,""viewing_time"":7471.599999999977},{""page_index"":15,""viewing_time"":6988},{""page_index"":16,""viewing_time"":6116.699999999953},{""page_index"":17,""viewing_time"":6070.20000000007}]","113577.50000000006","","","","","","","","","","","","","","","","","","","","","","","","",""
"pit-trial","20","298860","0.0-2.0-8.0-0.0","battery-v0.2","","""event"",""trial"",""time""
""fullscreenenter"",""1"",""7688""
","
","
","""event"",""trial"",""time""
""fullscreenenter"",""1"",""7688""
","
","","","1191.5999999999767","","","16","1331","603","&#9776;","elianto","#3366ff99"," "," ","1","+10","[2041.0999999999767]","1","0","1","","","","","","","","",""
"pit-trial","21","302379","0.0-2.0-8.0-1.0","battery-v0.2","","""event"",""trial"",""time""
""fullscreenenter"",""1"",""7688""
","
","
","""event"",""trial"",""time""
""fullscreenenter"",""1"",""7688""
","
","","","658.7999999999302","","","16","1331","603","&#9776;","elianto","#3366ff99"," "," ","1","+10","[1508.9000000000233]","1","0","1","","","","","","","","",""
"pit-trial","22","305474","0.0-2.0-8.0-2.0","battery-v0.2","","""event"",""trial"",""time""
""fullscreenenter"",""1"",""7688""
","
","
","""event"",""trial"",""time""
""fullscreenenter"",""1"",""7688""
","
","","","234","","","16","1331","603","&#9776;","elianto","#3366ff99"," "," ","1","+10","[1084.7000000000698]","1","0","1","","","","","","","","",""
"pit-trial","23","308557","0.0-2.0-8.0-3.0","battery-v0.2","","""event"",""trial"",""time""
""fullscreenenter"",""1"",""7688""
","
","
","""event"",""trial"",""time""
""fullscreenenter"",""1"",""7688""
","
","","","222.79999999993015","","","16","1331","603","&#9776;","elianto","#3366ff99"," "," ","1","0","[1072.9000000000233]","1","0","1","","","","","","","","",""
"pit-trial","24","311821","0.0-2.0-8.0-4.0","battery-v0.2","","""event"",""trial"",""time""
""fullscreenenter"",""1"",""7688""
","
","
","""event"",""trial"",""time""
""fullscreenenter"",""1"",""7688""
","
","","","403.20000000006985","","","16","1331","603","&#9776;","elianto","#3366ff99"," "," ","1","+10","[1253.7999999999302]","1","0","1","","","","","","","","",""
"call-function","25","311829","0.0-2.0-9.0","battery-v0.2","","""event"",""trial"",""time""
""fullscreenenter"",""1"",""7688""
","
","
","""event"",""trial"",""time""
""fullscreenenter"",""1"",""7688""
","
","","","","","","","","","","","","","","","","","","","","","","","","","","","",""
"pit-instructions","26","352225","0.0-2.0-10.0","battery-v0.2","","""event"",""trial"",""time""
""fullscreenenter"",""1"",""7688""
","
","
","""event"",""trial"",""time""
""fullscreenenter"",""1"",""7688""
","
","","[{""page_index"":0,""viewing_time"":6296.20000000007},{""page_index"":1,""viewing_time"":6898.199999999953},{""page_index"":2,""viewing_time"":9371.199999999953},{""page_index"":3,""viewing_time"":9259.800000000047},{""page_index"":4,""viewing_time"":8564.900000000023}]","40392.80000000005","","","","","","","","","","","","","","","","","","","","","","","","",""
"pit-trial","27","357087","0.0-2.0-11.0-0.0","battery-v0.2","","""event"",""trial"",""time""
""fullscreenenter"",""1"",""7688""
","
","
","""event"",""trial"",""time""
""fullscreenenter"",""1"",""7688""
","
","","","-1","","","16","1331","603","&#9761;","elianto","#3366ff99","-1","-1","1","+10","[]","0","0","2","","","","","","","","",""
"pit-trial","28","361948","0.0-2.0-11.0-1.0","battery-v0.2","","""event"",""trial"",""time""
""fullscreenenter"",""1"",""7688""
","
","
","""event"",""trial"",""time""
""fullscreenenter"",""1"",""7688""
","
","","","-1","","","16","1331","603","&#9761;","elianto","#3366ff99","-1","-1","1","+10","[]","0","0","2","","","","","","","","",""
"pit-trial","29","366810","0.0-2.0-11.0-2.0","battery-v0.2","","""event"",""trial"",""time""
""fullscreenenter"",""1"",""7688""
","
","
","""event"",""trial"",""time""
""fullscreenenter"",""1"",""7688""
","
","","","-1","","","16","1331","603","&#9761;","elianto","#3366ff99","-1","-1","1","+10","[]","0","0","2","","","","","","","","",""
"pit-trial","30","371669","0.0-2.0-11.0-3.0","battery-v0.2","","""event"",""trial"",""time""
""fullscreenenter"",""1"",""7688""
","
","
","""event"",""trial"",""time""
""fullscreenenter"",""1"",""7688""
","
","","","-1","","","16","1331","603","&#9761;","elianto","#3366ff99","-1","-1","1","0","[]","0","0","2","","","","","","","","",""
"pit-trial","31","376527","0.0-2.0-11.0-4.0","battery-v0.2","","""event"",""trial"",""time""
""fullscreenenter"",""1"",""7688""
","
","
","""event"",""trial"",""time""
""fullscreenenter"",""1"",""7688""
","
","","","-1","","","16","1331","603","&#9761;","elianto","#3366ff99","-1","-1","1","+10","[]","0","0","2","","","","","","","","",""
"call-function","32","376534","0.0-2.0-12.0","battery-v0.2","","""event"",""trial"",""time""
""fullscreenenter"",""1"",""7688""
","
","
","""event"",""trial"",""time""
""fullscreenenter"",""1"",""7688""
","
","","","","","","","","","","","","","","","","","","","","","","","","","","","",""
"pit-instructions","33","406999","0.0-2.0-13.0","battery-v0.2","","""event"",""trial"",""time""
""fullscreenenter"",""1"",""7688""
","
","
","""event"",""trial"",""time""
""fullscreenenter"",""1"",""7688""
","
","","[{""page_index"":0,""viewing_time"":4493.300000000047},{""page_index"":1,""viewing_time"":7982.5},{""page_index"":2,""viewing_time"":3078.5999999999767},{""page_index"":3,""viewing_time"":10099.300000000047},{""page_index"":4,""viewing_time"":4807.199999999953}]","30462.20000000007","","","","","","","","","","","","","","","","","","","","","","","","",""
"pit-trial","34","410963","0.0-2.0-14.0-0.0","battery-v0.2","","""event"",""trial"",""time""
""fullscreenenter"",""1"",""7688""
","
","
","""event"",""trial"",""time""
""fullscreenenter"",""1"",""7688""
","
","","","1105.0999999999767","","","16","1331","603","&#9826;","elianto","#f73b6a7A","-1"," ","0","-10","[1955.3000000000466]","1","0","3","","","","","","","","",""
"pit-trial","35","415822","0.0-2.0-14.0-1.0","battery-v0.2","","""event"",""trial"",""time""
""fullscreenenter"",""1"",""7688""
","
","
","""event"",""trial"",""time""
""fullscreenenter"",""1"",""7688""
","
","","","-1","","","16","1331","603","&#9826;","elianto","#f73b6a7A","-1","-1","1","0","[]","0","0","3","","","","","","","","",""
"pit-trial","36","420681","0.0-2.0-14.0-2.0","battery-v0.2","","""event"",""trial"",""time""
""fullscreenenter"",""1"",""7688""
","
","
","""event"",""trial"",""time""
""fullscreenenter"",""1"",""7688""
","
","","","-1","","","16","1331","603","&#9826;","elianto","#f73b6a7A","-1","-1","1","0","[]","0","0","3","","","","","","","","",""
"pit-trial","37","425540","0.0-2.0-14.0-3.0","battery-v0.2","","""event"",""trial"",""time""
""fullscreenenter"",""1"",""7688""
","
","
","""event"",""trial"",""time""
""fullscreenenter"",""1"",""7688""
","
","","","-1","","","16","1331","603","&#9826;","elianto","#f73b6a7A","-1","-1","1","-10","[]","0","0","3","","","","","","","","",""
"pit-trial","38","430399","0.0-2.0-14.0-4.0","battery-v0.2","","""event"",""trial"",""time""
""fullscreenenter"",""1"",""7688""
","
","
","""event"",""trial"",""time""
""fullscreenenter"",""1"",""7688""
","
","","","-1","","","16","1331","603","&#9826;","elianto","#f73b6a7A","-1","-1","1","0","[]","0","0","3","","","","","","","","",""
"call-function","39","430406","0.0-2.0-15.0","battery-v0.2","","""event"",""trial"",""time""
""fullscreenenter"",""1"",""7688""
","
","
","""event"",""trial"",""time""
""fullscreenenter"",""1"",""7688""
","
","","","","","","","","","","","","","","","","","","","","","","","","","","","",""
"pit-instructions","40","454429","0.0-2.0-16.0","battery-v0.2","","""event"",""trial"",""time""
""fullscreenenter"",""1"",""7688""
","
","
","""event"",""trial"",""time""
""fullscreenenter"",""1"",""7688""
","
","","[{""page_index"":0,""viewing_time"":6396.600000000093},{""page_index"":1,""viewing_time"":8789.099999999977},{""page_index"":2,""viewing_time"":4408.29999999993},{""page_index"":3,""viewing_time"":4425.100000000093}]","24020.5","","","","","","","","","","","","","","","","","","","","","","","","",""
"pit-trial","41","457646","0.0-2.0-17.0-0.0","battery-v0.2","","""event"",""trial"",""time""
""fullscreenenter"",""1"",""7688""
","
","
","""event"",""trial"",""time""
""fullscreenenter"",""1"",""7688""
","
","","","358.0999999999767","","","16","1331","603","&#9789;","elianto","#f73b6a7A"," "," ","1","0","[1209.3999999999069]","1","0","4","","","","","","","","",""
"pit-trial","42","460756","0.0-2.0-17.0-1.0","battery-v0.2","","""event"",""trial"",""time""
""fullscreenenter"",""1"",""7688""
","
","
","""event"",""trial"",""time""
""fullscreenenter"",""1"",""7688""
","
","","","252.5","","","16","1331","603","&#9789;","elianto","#f73b6a7A"," "," ","1","0","[1102.5999999999767]","1","0","4","","","","","","","","",""
"pit-trial","43","463831","0.0-2.0-17.0-2.0","battery-v0.2","","""event"",""trial"",""time""
""fullscreenenter"",""1"",""7688""
","
","
","""event"",""trial"",""time""
""fullscreenenter"",""1"",""7688""
","
","","","211.40000000002328","","","16","1331","603","&#9789;","elianto","#f73b6a7A"," "," ","1","0","[1067.4000000000233]","1","0","4","","","","","","","","",""
"pit-trial","44","466993","0.0-2.0-17.0-3.0","battery-v0.2","","""event"",""trial"",""time""
""fullscreenenter"",""1"",""7688""
","
","
","""event"",""trial"",""time""
""fullscreenenter"",""1"",""7688""
","
","","","304.20000000006985","","","16","1331","603","&#9789;","elianto","#f73b6a7A"," "," ","1","-10","[1154.2999999999302]","1","0","4","","","","","","","","",""
"pit-trial","45","469920","0.0-2.0-17.0-4.0","battery-v0.2","","""event"",""trial"",""time""
""fullscreenenter"",""1"",""7688""
","
","
","""event"",""trial"",""time""
""fullscreenenter"",""1"",""7688""
","
","","","68.40000000002328","","","16","1331","603","&#9789;","elianto","#f73b6a7A"," "," ","1","0","[918.4000000000233]","1","0","4","","","","","","","","",""
"call-function","46","469926","0.0-2.0-18.0","battery-v0.2","","""event"",""trial"",""time""
""fullscreenenter"",""1"",""7688""
","
","
","""event"",""trial"",""time""
""fullscreenenter"",""1"",""7688""
","
","","","","","","","","","","","","","","","","","","","","","","","","","","","",""
"pit-instructions","47","538223","0.0-2.0-19.0","battery-v0.2","","""event"",""trial"",""time""
""fullscreenenter"",""1"",""7688""
","
","
","""event"",""trial"",""time""
""fullscreenenter"",""1"",""7688""
","
","","[{""page_index"":0,""viewing_time"":6755},{""page_index"":1,""viewing_time"":4946.70000000007},{""page_index"":2,""viewing_time"":13659.899999999907},{""page_index"":3,""viewing_time"":7111.20000000007},{""page_index"":4,""viewing_time"":8567},{""page_index"":5,""viewing_time"":8425.099999999977},{""page_index"":6,""viewing_time"":8284.800000000047},{""page_index"":7,""viewing_time"":6067.199999999953},{""page_index"":8,""viewing_time"":4476.099999999977}]","68294.80000000005","","","","","","","","","","","","","","","","","","","","","","","","",""
"pit-comprehension","48","543394","0.0-2.0-20.0-0.0","battery-v0.2","","""event"",""trial"",""time""
""fullscreenenter"",""1"",""7688""
","
","
","""event"",""trial"",""time""
""fullscreenenter"",""1"",""7688""
","
","","","5152.5","[""SPACE""]","0","16","1331","603","","","","","","","","","","","","","","","","","","","",""
"pit-instructions","49","545978","0.0-2.0-20.0-1.0","battery-v0.2","","""event"",""trial"",""time""
""fullscreenenter"",""1"",""7688""
","
","
","""event"",""trial"",""time""
""fullscreenenter"",""1"",""7688""
","
","","[{""page_index"":0,""viewing_time"":2511.6999999999534}]","2513.5999999999767","","","","","","","","","","","","","","","","","","","","","","","","",""
"pit-comprehension","50","551954","0.0-2.0-21.0-0.0","battery-v0.2","","""event"",""trial"",""time""
""fullscreenenter"",""1"",""7688""
","
","
","""event"",""trial"",""time""
""fullscreenenter"",""1"",""7688""
","
","","","5956.199999999953","[""10""]","0","16","1331","603","","","","","","","","","","","","","","","","","","","",""
"pit-instructions","51","556023","0.0-2.0-21.0-1.0","battery-v0.2","","""event"",""trial"",""time""
""fullscreenenter"",""1"",""7688""
","
","
","""event"",""trial"",""time""
""fullscreenenter"",""1"",""7688""
","
","","[{""page_index"":0,""viewing_time"":3995.8000000000466}]","3997.5999999999767","","","","","","","","","","","","","","","","","","","","","","","","",""
"pit-comprehension","52","562410","0.0-2.0-22.0-0.0","battery-v0.2","","""event"",""trial"",""time""
""fullscreenenter"",""1"",""7688""
","
","
","""event"",""trial"",""time""
""fullscreenenter"",""1"",""7688""
","
","","","6365.699999999953","[""0""]","0","16","1331","603","","","","","","","","","","","","","","","","","","","",""
"pit-instructions","53","566340","0.0-2.0-22.0-1.0","battery-v0.2","","""event"",""trial"",""time""
""fullscreenenter"",""1"",""7688""
","
","
","""event"",""trial"",""time""
""fullscreenenter"",""1"",""7688""
","
","","[{""page_index"":0,""viewing_time"":3866.0999999999767}]","3867.8000000000466","","","","","","","","","","","","","","","","","","","","","","","","",""
"pit-comprehension","54","580942","0.0-2.0-23.0-0.0","battery-v0.2","","""event"",""trial"",""time""
""fullscreenenter"",""1"",""7688""
","
","
","""event"",""trial"",""time""
""fullscreenenter"",""1"",""7688""
","
","","","14586.900000000023","[""True""]","0","16","1331","603","","","","","","","","","","","","","","","","","","","",""
"pit-instructions","55","582600","0.0-2.0-23.0-1.0","battery-v0.2","","""event"",""trial"",""time""
""fullscreenenter"",""1"",""7688""
","
","
","""event"",""trial"",""time""
""fullscreenenter"",""1"",""7688""
","
","","[{""page_index"":0,""viewing_time"":1581.8000000000466}]","1583","","","","","","","","","","","","","","","","","","","","","","","","",""
"pit-comprehension","56","589864","0.0-2.0-24.0-0.0","battery-v0.2","","""event"",""trial"",""time""
""fullscreenenter"",""1"",""7688""
","
","
","""event"",""trial"",""time""
""fullscreenenter"",""1"",""7688""
","
","","","7250.300000000047","[""False""]","1","16","1331","603","","","","","","","","","","","","","","","","","","","",""
"pit-instructions","57","594113","0.0-2.0-24.0-1.0","battery-v0.2","","""event"",""trial"",""time""
""fullscreenenter"",""1"",""7688""
","
","
","""event"",""trial"",""time""
""fullscreenenter"",""1"",""7688""
","
","","[{""page_index"":0,""viewing_time"":4184.400000000023}]","4185.699999999953","","","","","","","","","","","","","","","","","","","","","","","","",""
"pit-instructions","58","595038","0.0-2.0-24.0-2.0-0.0","battery-v0.2","","""event"",""trial"",""time""
""fullscreenenter"",""1"",""7688""
","
","
","""event"",""trial"",""time""
""fullscreenenter"",""1"",""7688""
","
","","[{""page_index"":0,""viewing_time"":915.4000000000233}]","916.8000000000466","","","","","","","","","","","","","","","","","","","","","","","","",""
"pit-comprehension","59","611137","0.0-2.0-24.1-0.1","battery-v0.2","","""event"",""trial"",""time""
""fullscreenenter"",""1"",""7688""
","
","
","""event"",""trial"",""time""
""fullscreenenter"",""1"",""7688""
","
","","","16088","[""True""]","0","16","1331","603","","","","","","","","","","","","","","","","","","","",""
"pit-instructions","60","613051","0.0-2.0-24.1-1.1","battery-v0.2","","""event"",""trial"",""time""
""fullscreenenter"",""1"",""7688""
","
","
","""event"",""trial"",""time""
""fullscreenenter"",""1"",""7688""
","
","","[{""page_index"":0,""viewing_time"":1848.2000000000698}]","1849.5","","","","","","","","","","","","","","","","","","","","","","","","",""
"pit-comprehension","61","620875","0.0-2.0-25.0-0.0","battery-v0.2","","""event"",""trial"",""time""
""fullscreenenter"",""1"",""7688""
","
","
","""event"",""trial"",""time""
""fullscreenenter"",""1"",""7688""
","
","","","7810.699999999953","[""True""]","0","16","1331","603","","","","","","","","","","","","","","","","","","","",""
"pit-instructions","62","622557","0.0-2.0-25.0-1.0","battery-v0.2","","""event"",""trial"",""time""
""fullscreenenter"",""1"",""7688""
","
","
","""event"",""trial"",""time""
""fullscreenenter"",""1"",""7688""
","
","","[{""page_index"":0,""viewing_time"":1602.2999999999302}]","1603.6999999999534","","","","","","","","","","","","","","","","","","","","","","","","",""
"pit-comprehension","63","628548","0.0-2.0-26.0-0.0","battery-v0.2","","""event"",""trial"",""time""
""fullscreenenter"",""1"",""7688""
","
","
","""event"",""trial"",""time""
""fullscreenenter"",""1"",""7688""
","
","","","5976.800000000047","[""False""]","0","16","1331","603","","","","","","","","","","","","","","","","","","","",""
"pit-instructions","64","629676","0.0-2.0-26.0-1.0","battery-v0.2","","""event"",""trial"",""time""
""fullscreenenter"",""1"",""7688""
","
","
","""event"",""trial"",""time""
""fullscreenenter"",""1"",""7688""
","
","","[{""page_index"":0,""viewing_time"":1057.7000000000698}]","1059.3000000000466","","","","","","","","","","","","","","","","","","","","","","","","",""
"pit-instructions","65","646013","0.0-3.0","battery-v0.2","","""event"",""trial"",""time""
""fullscreenenter"",""1"",""7688""
","
","
","""event"",""trial"",""time""
""fullscreenenter"",""1"",""7688""
","
","","[{""page_index"":0,""viewing_time"":3717},{""page_index"":1,""viewing_time"":5753.699999999953},{""page_index"":2,""viewing_time"":6854.699999999953}]","16326.399999999907","","","","","","","","","","","","","","","","","","","","","","","","",""
"pit-trial","66","649760","0.0-4.0","battery-v0.2","","""event"",""trial"",""time""
""fullscreenenter"",""1"",""7688""
","
","
","""event"",""trial"",""time""
""fullscreenenter"",""1"",""7688""
","
","","","879.2999999999302","","","16","1331","603","&#9728;","elianto","#f73b6a7A","-1"," ","0","-10","[1733.6999999999534]","1","1","","","1331","1","0","4","lose","no-go","0","[]"
"pit-trial","67","653248","0.0-5.0","battery-v0.2","","""event"",""trial"",""time""
""fullscreenenter"",""1"",""7688""
","
","
","""event"",""trial"",""time""
""fullscreenenter"",""1"",""7688""
","
","","","628.0999999999767","","","16","1331","603","&#9730;","elianto","#3366ff99"," "," ","1","+10","[1478.5999999999767]","1","1","","","1331","2","1","1","win","go","0","0"
"pit-trial","68","656791","0.0-6.0","battery-v0.2","","""event"",""trial"",""time""
""fullscreenenter"",""1"",""7688""
","
","
","""event"",""trial"",""time""
""fullscreenenter"",""1"",""7688""
","
","","","687","","","16","1331","603","&#9752;","elianto","#f73b6a7A"," "," ","1","-10","[1537.5]","1","1","","","1331","3","3","3","lose","go","1","0"
"pit-trial","69","660349","0.0-7.0","battery-v0.2","","""event"",""trial"",""time""
""fullscreenenter"",""1"",""7688""
","
","
","""event"",""trial"",""time""
""fullscreenenter"",""1"",""7688""
","
","","","698.2000000000698","","","16","1331","603","&#9733;","elianto","#3366ff99","-1"," ","0","0","[1549]","1","1","","","1331","4","2","2","win","no-go","0","0"
"pit-trial","70","664003","0.0-8.0","battery-v0.2","","""event"",""trial"",""time""
""fullscreenenter"",""1"",""7688""
","
","
","""event"",""trial"",""time""
""fullscreenenter"",""1"",""7688""
","
","","","793.4000000000233","","","16","1331","603","&#9730;","elianto","#3366ff99"," "," ","1","+10","[1644.5]","1","1","","","1331","5","1","1","win","go","0","0"
"pit-trial","71","667530","0.0-9.0","battery-v0.2","","""event"",""trial"",""time""
""fullscreenenter"",""1"",""7688""
","
","
","""event"",""trial"",""time""
""fullscreenenter"",""1"",""7688""
","
","","","668","","","16","1331","603","&#9733;","elianto","#3366ff99","-1"," ","0","0","[1518.5999999999767]","1","1","","","1331","6","2","2","win","no-go","0","0"
"pit-trial","72","672391","0.0-10.0","battery-v0.2","","""event"",""trial"",""time""
""fullscreenenter"",""1"",""7688""
","
","
","""event"",""trial"",""time""
""fullscreenenter"",""1"",""7688""
","
","","","-1","","","16","1331","603","&#9728;","elianto","#f73b6a7A","-1","-1","1","0","[]","0","1","","","1331","7","0","4","lose","no-go","0","0"
"pit-trial","73","677252","0.0-11.0","battery-v0.2","","""event"",""trial"",""time""
""fullscreenenter"",""1"",""7688""
","
","
","""event"",""trial"",""time""
""fullscreenenter"",""1"",""7688""
","
","","","-1","","","16","1331","603","&#9752;","elianto","#f73b6a7A"," ","-1","0","-10","[]","0","1","","","1331","8","3","3","lose","go","0","0"
"pit-trial","74","680887","0.0-12.0","battery-v0.2","","""event"",""trial"",""time""
""fullscreenenter"",""1"",""7688""
","
","
","""event"",""trial"",""time""
""fullscreenenter"",""1"",""7688""
","
","","","775.7999999999302","","","16","1331","603","&#9730;","elianto","#3366ff99"," "," ","1","0","[1626.3000000000466]","1","1","","","1331","9","1","1","win","go","1","0"
"pit-trial","75","685748","0.0-13.0","battery-v0.2","","""event"",""trial"",""time""
""fullscreenenter"",""1"",""7688""
","
","
","""event"",""trial"",""time""
""fullscreenenter"",""1"",""7688""
","
","","","-1","","","16","1331","603","&#9728;","elianto","#f73b6a7A","-1","-1","1","0","[]","0","1","","","1331","10","0","4","lose","no-go","0","0"
"pit-trial","76","689343","0.0-14.0","battery-v0.2","","""event"",""trial"",""time""
""fullscreenenter"",""1"",""7688""
","
","
","""event"",""trial"",""time""
""fullscreenenter"",""1"",""7688""
","
","","","735","","","16","1331","603","&#9733;","elianto","#3366ff99","-1"," ","0","0","[1585.0999999999767]","1","1","","","1331","11","2","2","win","no-go","0","0"
"pit-trial","77","694204","0.0-15.0","battery-v0.2","","""event"",""trial"",""time""
""fullscreenenter"",""1"",""7688""
","
","
","""event"",""trial"",""time""
""fullscreenenter"",""1"",""7688""
","
","","","-1","","","16","1331","603","&#9752;","elianto","#f73b6a7A"," ","-1","0","-10","[]","0","1","","","1331","12","3","3","lose","go","0","0"
"pit-trial","78","699066","0.0-16.0","battery-v0.2","","""event"",""trial"",""time""
""fullscreenenter"",""1"",""7688""
","
","
","""event"",""trial"",""time""
""fullscreenenter"",""1"",""7688""
","
","","","-1","","","16","1331","603","&#9728;","elianto","#f73b6a7A","-1","-1","1","0","[]","0","1","","","1331","13","0","4","lose","no-go","0","0"
"pit-trial","79","703262","0.0-17.0","battery-v0.2","","""event"",""trial"",""time""
""fullscreenenter"",""1"",""7688""
","
","
","""event"",""trial"",""time""
""fullscreenenter"",""1"",""7688""
","
","","","1336.3000000000466","","","16","1331","603","&#9730;","elianto","#3366ff99"," "," ","1","+10","[2187.1999999999534]","1","1","","","1331","14","1","1","win","go","0","0"
"pit-trial","80","708121","0.0-18.0","battery-v0.2","","""event"",""trial"",""time""
""fullscreenenter"",""1"",""7688""
","
","
","""event"",""trial"",""time""
""fullscreenenter"",""1"",""7688""
","
","","","-1","","","16","1331","603","&#9733;","elianto","#3366ff99","-1","-1","1","+10","[]","0","1","","","1331","15","2","2","win","no-go","0","0"
"pit-trial","81","712217","0.0-19.0","battery-v0.2","","""event"",""trial"",""time""
""fullscreenenter"",""1"",""7688""
","
","
","""event"",""trial"",""time""
""fullscreenenter"",""1"",""7688""
","
","","","1237.5","","","16","1331","603","&#9752;","elianto","#f73b6a7A"," "," ","1","0","[2087.79999999993]","1","1","","","1331","16","3","3","lose","go","0","0"
"pit-trial","82","716170","0.0-20.0","battery-v0.2","","""event"",""trial"",""time""
""fullscreenenter"",""1"",""7688""
","
","
","""event"",""trial"",""time""
""fullscreenenter"",""1"",""7688""
","
","","","1095.8000000000466","","","16","1331","603","&#9752;","elianto","#f73b6a7A"," "," ","1","0","[1946]","1","1","","","1331","17","3","3","lose","go","0","0"
"pit-trial","83","720332","0.0-21.0","battery-v0.2","","""event"",""trial"",""time""
""fullscreenenter"",""1"",""7688""
","
","
","""event"",""trial"",""time""
""fullscreenenter"",""1"",""7688""
","
","","","1304.4000000000233","","","16","1331","603","&#9733;","elianto","#3366ff99","-1"," ","0","+10","[2154.899999999907]","1","1","","","1331","18","2","2","win","no-go","1","0"
"pit-trial","84","725191","0.0-22.0","battery-v0.2","","""event"",""trial"",""time""
""fullscreenenter"",""1"",""7688""
","
","
","""event"",""trial"",""time""
""fullscreenenter"",""1"",""7688""
","
","","","-1","","","16","1331","603","&#9728;","elianto","#f73b6a7A","-1","-1","1","-10","[]","0","1","","","1331","19","0","4","lose","no-go","1","0"
"pit-trial","85","730049","0.0-23.0","battery-v0.2","","""event"",""trial"",""time""
""fullscreenenter"",""1"",""7688""
","
","
","""event"",""trial"",""time""
""fullscreenenter"",""1"",""7688""
","
","","","-1","","","16","1331","603","&#9730;","elianto","#3366ff99"," ","-1","0","0","[]","0","1","","","1331","20","1","1","win","go","0","0"
"pit-instructions","86","742252","0.0-24.0","battery-v0.2","","""event"",""trial"",""time""
""fullscreenenter"",""1"",""7688""
","
","
","""event"",""trial"",""time""
""fullscreenenter"",""1"",""7688""
","
","","[{""page_index"":0,""viewing_time"":5397.900000000023},{""page_index"":1,""viewing_time"":6797.29999999993}]","12196.5","","","","","","","","","","","","","","","","","","","","","","","","",""
"pit-trial","87","746311","0.0-25.0","battery-v0.2","","""event"",""trial"",""time""
""fullscreenenter"",""1"",""7688""
","
","
","""event"",""trial"",""time""
""fullscreenenter"",""1"",""7688""
","
","","","1194.3999999999069","","","16","1331","603","r","elianto","#f73b6a7A"," "," ","1","-10","[2044.3000000000466]","1","2","","","1331","21","1","3","lose","go","1","0"
"pit-trial","88","750248","0.0-26.0","battery-v0.2","","""event"",""trial"",""time""
""fullscreenenter"",""1"",""7688""
","
","
","""event"",""trial"",""time""
""fullscreenenter"",""1"",""7688""
","
","","","1074.3999999999069","","","16","1331","603","m","elianto","#3366ff99","-1"," ","0","0","[1929]","1","2","","","1331","22","0","2","win","no-go","0","0"
"pit-trial","89","754225","0.0-27.0","battery-v0.2","","""event"",""trial"",""time""
""fullscreenenter"",""1"",""7688""
","
","
","""event"",""trial"",""time""
""fullscreenenter"",""1"",""7688""
","
","","","1118.0999999998603","","","16","1331","603","h","elianto","#3366ff99"," "," ","1","+10","[1968.8000000000466]","1","2","","","1331","23","3","1","win","go","0","0"
"pit-trial","90","759084","0.0-28.0","battery-v0.2","","""event"",""trial"",""time""
""fullscreenenter"",""1"",""7688""
","
","
","""event"",""trial"",""time""
""fullscreenenter"",""1"",""7688""
","
","","","-1","","","16","1331","603","y","elianto","#f73b6a7A","-1","-1","1","-10","[]","0","2","","","1331","24","2","4","lose","no-go","1","0"
"pit-trial","91","763022","0.0-29.0","battery-v0.2","","""event"",""trial"",""time""
""fullscreenenter"",""1"",""7688""
","
","
","""event"",""trial"",""time""
""fullscreenenter"",""1"",""7688""
","
","","","1078.2000000001863","","","16","1331","603","y","elianto","#f73b6a7A","-1"," ","0","-10","[1928.6000000000931]","1","2","","","1331","25","2","4","lose","no-go","0","0"
"pit-trial","92","767329","0.0-30.0","battery-v0.2","","""event"",""trial"",""time""
""fullscreenenter"",""1"",""7688""
","
","
","""event"",""trial"",""time""
""fullscreenenter"",""1"",""7688""
","
","","","1443.8000000000466","","","16","1331","603","m","elianto","#3366ff99","-1"," ","0","0","[2297.5]","1","2","","","1331","26","0","2","win","no-go","0","0"
"pit-trial","93","771044","0.0-31.0","battery-v0.2","","""event"",""trial"",""time""
""fullscreenenter"",""1"",""7688""
","
","
","""event"",""trial"",""time""
""fullscreenenter"",""1"",""7688""
","
","","","855.6999999999534","","","16","1331","603","h","elianto","#3366ff99"," "," ","1","0","[1706.3000000000466]","1","2","","","1331","27","3","1","win","go","1","0"
"pit-trial","94","775903","0.0-32.0","battery-v0.2","","""event"",""trial"",""time""
""fullscreenenter"",""1"",""7688""
","
","
","""event"",""trial"",""time""
""fullscreenenter"",""1"",""7688""
","
","","","-1","","","16","1331","603","r","elianto","#f73b6a7A"," ","-1","0","-10","[]","0","2","","","1331","28","1","3","lose","go","0","0"
"pit-trial","95","780041","0.0-33.0","battery-v0.2","","""event"",""trial"",""time""
""fullscreenenter"",""1"",""7688""
","
","
","""event"",""trial"",""time""
""fullscreenenter"",""1"",""7688""
","
","","","1277.0999999998603","","","16","1331","603","y","elianto","#f73b6a7A","-1"," ","0","0","[2129.100000000093]","1","2","","","1331","29","2","4","lose","no-go","1","0"
"pit-trial","96","784901","0.0-34.0","battery-v0.2","","""event"",""trial"",""time""
""fullscreenenter"",""1"",""7688""
","
","
","""event"",""trial"",""time""
""fullscreenenter"",""1"",""7688""
","
","","","-1","","","16","1331","603","h","elianto","#3366ff99"," ","-1","0","0","[]","0","2","","","1331","30","3","1","win","go","0","0"
"pit-trial","97","788672","0.0-35.0","battery-v0.2","","""event"",""trial"",""time""
""fullscreenenter"",""1"",""7688""
","
","
","""event"",""trial"",""time""
""fullscreenenter"",""1"",""7688""
","
","","","912.3999999999069","","","16","1331","603","m","elianto","#3366ff99","-1"," ","0","0","[1762.5]","1","2","","","1331","31","0","2","win","no-go","0","0"
"pit-trial","98","793532","0.0-36.0","battery-v0.2","","""event"",""trial"",""time""
""fullscreenenter"",""1"",""7688""
","
","
","""event"",""trial"",""time""
""fullscreenenter"",""1"",""7688""
","
","","","-1","","","16","1331","603","r","elianto","#f73b6a7A"," ","-1","0","0","[]","0","2","","","1331","32","1","3","lose","go","1","0"
"pit-trial","99","798067","0.0-37.0","battery-v0.2","","""event"",""trial"",""time""
""fullscreenenter"",""1"",""7688""
","
","
","""event"",""trial"",""time""
""fullscreenenter"",""1"",""7688""
","
","","","1676.2000000001863","","","16","1331","603","h","elianto","#3366ff99"," "," ","1","+10","[2526.399999999907]","1","2","","","1331","33","3","1","win","go","0","0"
"pit-trial","100","802927","0.0-38.0","battery-v0.2","","""event"",""trial"",""time""
""fullscreenenter"",""1"",""7688""
","
","
","""event"",""trial"",""time""
""fullscreenenter"",""1"",""7688""
","
","","","-1","","","16","1331","603","r","elianto","#f73b6a7A"," ","-1","0","-10","[]","0","2","","","1331","34","1","3","lose","go","0","0"
"pit-trial","101","807531","0.0-39.0","battery-v0.2","","""event"",""trial"",""time""
""fullscreenenter"",""1"",""7688""
","
","
","""event"",""trial"",""time""
""fullscreenenter"",""1"",""7688""
","
","","","1744.5999999998603","","","16","1331","603","m","elianto","#3366ff99","-1"," ","0","0","[2595.100000000093]","1","2","","","1331","35","0","2","win","no-go","0","0"
"pit-trial","102","812051","0.0-40.0","battery-v0.2","","""event"",""trial"",""time""
""fullscreenenter"",""1"",""7688""
","
","
","""event"",""trial"",""time""
""fullscreenenter"",""1"",""7688""
","
","","","1660.1999999999534","","","16","1331","603","y","elianto","#f73b6a7A","-1"," ","0","-10","[2510.6999999999534]","1","2","","","1331","36","2","4","lose","no-go","0","0"
"pit-trial","103","815940","0.0-41.0","battery-v0.2","","""event"",""trial"",""time""
""fullscreenenter"",""1"",""7688""
","
","
","""event"",""trial"",""time""
""fullscreenenter"",""1"",""7688""
","
","","","1024.1999999999534","","","16","1331","603","h","elianto","#3366ff99"," "," ","1","+10","[1880.8999999999069]","1","2","","","1331","37","3","1","win","go","0","0"
"pit-trial","104","820800","0.0-42.0","battery-v0.2","","""event"",""trial"",""time""
""fullscreenenter"",""1"",""7688""
","
","
","""event"",""trial"",""time""
""fullscreenenter"",""1"",""7688""
","
","","","-1","","","16","1331","603","y","elianto","#f73b6a7A","-1","-1","1","-10","[]","0","2","","","1331","38","2","4","lose","no-go","1","0"
"pit-trial","105","825661","0.0-43.0","battery-v0.2","","""event"",""trial"",""time""
""fullscreenenter"",""1"",""7688""
","
","
","""event"",""trial"",""time""
""fullscreenenter"",""1"",""7688""
","
","","","-1","","","16","1331","603","m","elianto","#3366ff99","-1","-1","1","+10","[]","0","2","","","1331","39","0","2","win","no-go","0","0"
"pit-trial","106","830523","0.0-44.0","battery-v0.2","","""event"",""trial"",""time""
""fullscreenenter"",""1"",""7688""
","
","
","""event"",""trial"",""time""
""fullscreenenter"",""1"",""7688""
","
","","","-1","","","16","1331","603","r","elianto","#f73b6a7A"," ","-1","0","-10","[]","0","2","","","1331","40","1","3","lose","go","0","0"
"pit-trial","107","835385","0.0-45.0","battery-v0.2","","""event"",""trial"",""time""
""fullscreenenter"",""1"",""7688""
","
","
","""event"",""trial"",""time""
""fullscreenenter"",""1"",""7688""
","
","","","-1","","","16","1331","603","y","elianto","#f73b6a7A","-1","-1","1","0","[]","0","2","","","1331","41","2","4","lose","no-go","0","0"
"pit-trial","108","839245","0.0-46.0","battery-v0.2","","""event"",""trial"",""time""
""fullscreenenter"",""1"",""7688""
","
","
","""event"",""trial"",""time""
""fullscreenenter"",""1"",""7688""
","
","","","997.8999999999069","","","16","1331","603","h","elianto","#3366ff99"," "," ","1","+10","[1848.3000000000466]","1","2","","","1331","42","3","1","win","go","0","0"
"pit-trial","109","843215","0.0-47.0","battery-v0.2","","""event"",""trial"",""time""
""fullscreenenter"",""1"",""7688""
","
","
","""event"",""trial"",""time""
""fullscreenenter"",""1"",""7688""
","
","","","1108.1999999999534","","","16","1331","603","m","elianto","#3366ff99","-1"," ","0","0","[1959]","1","2","","","1331","43","0","2","win","no-go","0","0"
"pit-trial","110","848077","0.0-48.0","battery-v0.2","","""event"",""trial"",""time""
""fullscreenenter"",""1"",""7688""
","
","
","""event"",""trial"",""time""
""fullscreenenter"",""1"",""7688""
","
","","","-1","","","16","1331","603","r","elianto","#f73b6a7A"," ","-1","0","-10","[]","0","2","","","1331","44","1","3","lose","go","0","0"
"pit-trial","111","851782","0.0-49.0","battery-v0.2","","""event"",""trial"",""time""
""fullscreenenter"",""1"",""7688""
","
","
","""event"",""trial"",""time""
""fullscreenenter"",""1"",""7688""
","
","","","844.1999999999534","","","16","1331","603","h","elianto","#3366ff99"," "," ","1","+10","[1694.5]","1","2","","","1331","45","3","1","win","go","0","0"
"pit-trial","112","856643","0.0-50.0","battery-v0.2","","""event"",""trial"",""time""
""fullscreenenter"",""1"",""7688""
","
","
","""event"",""trial"",""time""
""fullscreenenter"",""1"",""7688""
","
","","","-1","","","16","1331","603","y","elianto","#f73b6a7A","-1","-1","1","0","[]","0","2","","","1331","46","2","4","lose","no-go","0","0"
"pit-trial","113","861506","0.0-51.0","battery-v0.2","","""event"",""trial"",""time""
""fullscreenenter"",""1"",""7688""
","
","
","""event"",""trial"",""time""
""fullscreenenter"",""1"",""7688""
","
","","","-1","","","16","1331","603","m","elianto","#3366ff99","-1","-1","1","+10","[]","0","2","","","1331","47","0","2","win","no-go","0","0"
"pit-trial","114","866370","0.0-52.0","battery-v0.2","","""event"",""trial"",""time""
""fullscreenenter"",""1"",""7688""
","
","
","""event"",""trial"",""time""
""fullscreenenter"",""1"",""7688""
","
","","","-1","","","16","1331","603","r","elianto","#f73b6a7A"," ","-1","0","-10","[]","0","2","","","1331","48","1","3","lose","go","0","0"
"pit-trial","115","870041","0.0-53.0","battery-v0.2","","""event"",""trial"",""time""
""fullscreenenter"",""1"",""7688""
","
","
","""event"",""trial"",""time""
""fullscreenenter"",""1"",""7688""
","
","","","809.2999999998137","","","16","1331","603","h","elianto","#3366ff99"," "," ","1","+10","[1659.5]","1","2","","","1331","49","3","1","win","go","0","0"
"pit-trial","116","874259","0.0-54.0","battery-v0.2","","""event"",""trial"",""time""
""fullscreenenter"",""1"",""7688""
","
","
","""event"",""trial"",""time""
""fullscreenenter"",""1"",""7688""
","
","","","1354.5","","","16","1331","603","r","elianto","#f73b6a7A"," "," ","1","0","[2205.4000000001397]","1","2","","","1331","50","1","3","lose","go","0","0"
"pit-trial","117","879119","0.0-55.0","battery-v0.2","","""event"",""trial"",""time""
""fullscreenenter"",""1"",""7688""
","
","
","""event"",""trial"",""time""
""fullscreenenter"",""1"",""7688""
","
","","","-1","","","16","1331","603","m","elianto","#3366ff99","-1","-1","1","+10","[]","0","2","","","1331","51","0","2","win","no-go","0","0"
"pit-trial","118","883982","0.0-56.0","battery-v0.2","","""event"",""trial"",""time""
""fullscreenenter"",""1"",""7688""
","
","
","""event"",""trial"",""time""
""fullscreenenter"",""1"",""7688""
","
","","","-1","","","16","1331","603","y","elianto","#f73b6a7A","-1","-1","1","0","[]","0","2","","","1331","52","2","4","lose","no-go","0","0"
"pit-trial","119","888844","0.0-57.0","battery-v0.2","","""event"",""trial"",""time""
""fullscreenenter"",""1"",""7688""
","
","
","""event"",""trial"",""time""
""fullscreenenter"",""1"",""7688""
","
","","","-1","","","16","1331","603","z","elianto","#f73b6a7A"," ","-1","0","-10","[]","0","2","","","1331","53","4","3","lose","go","0","0"
"pit-trial","120","893129","0.0-58.0","battery-v0.2","","""event"",""trial"",""time""
""fullscreenenter"",""1"",""7688""
","
","
","""event"",""trial"",""time""
""fullscreenenter"",""1"",""7688""
","
","","","1423.6999999999534","","","16","1331","603","c","elianto","#f73b6a7A","-1"," ","0","-10","[2273.6999999999534]","1","2","","","1331","54","5","4","lose","no-go","0","0"
"pit-trial","121","897987","0.0-59.0","battery-v0.2","","""event"",""trial"",""time""
""fullscreenenter"",""1"",""7688""
","
","
","""event"",""trial"",""time""
""fullscreenenter"",""1"",""7688""
","
","","","-1","","","16","1331","603","y","elianto","#f73b6a7A","-1","-1","1","0","[]","0","2","","","1331","55","2","4","lose","no-go","0","0"
"pit-trial","122","902644","0.0-60.0","battery-v0.2","","""event"",""trial"",""time""
""fullscreenenter"",""1"",""7688""
","
","
","""event"",""trial"",""time""
""fullscreenenter"",""1"",""7688""
","
","","","1796.8999999999069","","","16","1331","603","r","elianto","#f73b6a7A"," "," ","1","0","[2650]","1","2","","","1331","56","1","3","lose","go","0","0"
"pit-trial","123","906615","0.0-61.0","battery-v0.2","","""event"",""trial"",""time""
""fullscreenenter"",""1"",""7688""
","
","
","""event"",""trial"",""time""
""fullscreenenter"",""1"",""7688""
","
","","","1113.3000000000466","","","16","1331","603","z","elianto","#f73b6a7A"," "," ","1","0","[1963.6000000000931]","1","2","","","1331","57","4","3","lose","go","0","0"
"pit-trial","124","911474","0.0-62.0","battery-v0.2","","""event"",""trial"",""time""
""fullscreenenter"",""1"",""7688""
","
","
","""event"",""trial"",""time""
""fullscreenenter"",""1"",""7688""
","
","","","-1","","","16","1331","603","y","elianto","#f73b6a7A","-1","-1","1","0","[]","0","2","","","1331","58","2","4","lose","no-go","0","0"
"pit-trial","125","915544","0.0-63.0","battery-v0.2","","""event"",""trial"",""time""
""fullscreenenter"",""1"",""7688""
","
","
","""event"",""trial"",""time""
""fullscreenenter"",""1"",""7688""
","
","","","1211.1999999999534","","","16","1331","603","r","elianto","#f73b6a7A"," "," ","1","0","[2061.8000000000466]","1","2","","","1331","59","1","3","lose","go","0","0"
"pit-trial","126","919732","0.0-64.0","battery-v0.2","","""event"",""trial"",""time""
""fullscreenenter"",""1"",""7688""
","
","
","""event"",""trial"",""time""
""fullscreenenter"",""1"",""7688""
","
","","","1329.5","","","16","1331","603","c","elianto","#f73b6a7A","-1"," ","0","-10","[2179.6999999999534]","1","2","","","1331","60","5","4","lose","no-go","0","0"
"pit-trial","127","923539","0.0-65.0","battery-v0.2","","""event"",""trial"",""time""
""fullscreenenter"",""1"",""7688""
","
","
","""event"",""trial"",""time""
""fullscreenenter"",""1"",""7688""
","
","","","948.1999999999534","","","16","1331","603","c","elianto","#f73b6a7A","-1"," ","0","-10","[1798.2999999998137]","1","2","","","1331","61","5","4","lose","no-go","0","0"
"pit-trial","128","928399","0.0-66.0","battery-v0.2","","""event"",""trial"",""time""
""fullscreenenter"",""1"",""7688""
","
","
","""event"",""trial"",""time""
""fullscreenenter"",""1"",""7688""
","
","","","-1","","","16","1331","603","y","elianto","#f73b6a7A","-1","-1","1","-10","[]","0","2","","","1331","62","2","4","lose","no-go","1","0"
"pit-trial","129","932561","0.0-67.0","battery-v0.2","","""event"",""trial"",""time""
""fullscreenenter"",""1"",""7688""
","
","
","""event"",""trial"",""time""
""fullscreenenter"",""1"",""7688""
","
","","","1302.6999999999534","","","16","1331","603","b","elianto","#3366ff99","-1"," ","0","0","[2153.3000000000466]","1","2","","","1331","63","6","2","win","no-go","0","0"
"pit-trial","130","937419","0.0-68.0","battery-v0.2","","""event"",""trial"",""time""
""fullscreenenter"",""1"",""7688""
","
","
","""event"",""trial"",""time""
""fullscreenenter"",""1"",""7688""
","
","","","-1","","","16","1331","603","z","elianto","#f73b6a7A"," ","-1","0","-10","[3028.8000000000466]","1","2","","","1331","64","4","3","lose","go","0","0"
"pit-trial","131","942280","0.0-69.0","battery-v0.2","","""event"",""trial"",""time""
""fullscreenenter"",""1"",""7688""
","
","
","""event"",""trial"",""time""
""fullscreenenter"",""1"",""7688""
","
","","","-1","","","16","1331","603","z","elianto","#f73b6a7A"," ","-1","0","-10","[]","0","2","","","1331","65","4","3","lose","go","0","0"
"pit-trial","132","947139","0.0-70.0","battery-v0.2","","""event"",""trial"",""time""
""fullscreenenter"",""1"",""7688""
","
","
","""event"",""trial"",""time""
""fullscreenenter"",""1"",""7688""
","
","","","-1","","","16","1331","603","y","elianto","#f73b6a7A","-1","-1","1","0","[]","0","2","","","1331","66","2","4","lose","no-go","0","0"
"pit-trial","133","951152","0.0-71.0","battery-v0.2","","""event"",""trial"",""time""
""fullscreenenter"",""1"",""7688""
","
","
","""event"",""trial"",""time""
""fullscreenenter"",""1"",""7688""
","
","","","1153.5999999998603","","","16","1331","603","b","elianto","#3366ff99","-1"," ","0","0","[2003.8000000000466]","1","2","","","1331","67","6","2","win","no-go","0","0"
"pit-trial","134","956011","0.0-72.0","battery-v0.2","","""event"",""trial"",""time""
""fullscreenenter"",""1"",""7688""
","
","
","""event"",""trial"",""time""
""fullscreenenter"",""1"",""7688""
","
","","","-1","","","16","1331","603","c","elianto","#f73b6a7A","-1","-1","1","0","[]","0","2","","","1331","68","5","4","lose","no-go","0","0"
"pit-trial","135","959691","0.0-73.0","battery-v0.2","","""event"",""trial"",""time""
""fullscreenenter"",""1"",""7688""
","
","
","""event"",""trial"",""time""
""fullscreenenter"",""1"",""7688""
","
","","","822.0999999998603","","","16","1331","603","b","elianto","#3366ff99","-1"," ","0","0","[1672.3999999999069]","1","2","","","1331","69","6","2","win","no-go","0","0"
"pit-trial","136","963546","0.0-74.0","battery-v0.2","","""event"",""trial"",""time""
""fullscreenenter"",""1"",""7688""
","
","
","""event"",""trial"",""time""
""fullscreenenter"",""1"",""7688""
","
","","","997.8000000000466","","","16","1331","603","t","elianto","#3366ff99"," "," ","1","+10","[1848.1999999999534]","1","2","","","1331","70","7","1","win","go","0","0"
"pit-trial","137","968406","0.0-75.0","battery-v0.2","","""event"",""trial"",""time""
""fullscreenenter"",""1"",""7688""
","
","
","""event"",""trial"",""time""
""fullscreenenter"",""1"",""7688""
","
","","","-1","","","16","1331","603","c","elianto","#f73b6a7A","-1","-1","1","0","[]","0","2","","","1331","71","5","4","lose","no-go","0","0"
"pit-trial","138","972869","0.0-76.0","battery-v0.2","","""event"",""trial"",""time""
""fullscreenenter"",""1"",""7688""
","
","
","""event"",""trial"",""time""
""fullscreenenter"",""1"",""7688""
","
","","","1597.3000000000466","","","16","1331","603","z","elianto","#f73b6a7A"," "," ","1","0","[2453.5999999998603]","1","2","","","1331","72","4","3","lose","go","0","0"
"pit-trial","139","977728","0.0-77.0","battery-v0.2","","""event"",""trial"",""time""
""fullscreenenter"",""1"",""7688""
","
","
","""event"",""trial"",""time""
""fullscreenenter"",""1"",""7688""
","
","","","-1","","","16","1331","603","c","elianto","#f73b6a7A","-1","-1","1","0","[]","0","2","","","1331","73","5","4","lose","no-go","0","0"
"pit-trial","140","982374","0.0-78.0","battery-v0.2","","""event"",""trial"",""time""
""fullscreenenter"",""1"",""7688""
","
","
","""event"",""trial"",""time""
""fullscreenenter"",""1"",""7688""
","
","","","1787.1000000000931","","","16","1331","603","b","elianto","#3366ff99","-1"," ","0","0","[2637.1999999999534]","1","2","","","1331","74","6","2","win","no-go","0","0"
"pit-trial","141","987235","0.0-79.0","battery-v0.2","","""event"",""trial"",""time""
""fullscreenenter"",""1"",""7688""
","
","
","""event"",""trial"",""time""
""fullscreenenter"",""1"",""7688""
","
","","","-1","","","16","1331","603","z","elianto","#f73b6a7A"," ","-1","0","-10","[2988]","1","2","","","1331","75","4","3","lose","go","0","0"
"pit-trial","142","991421","0.0-80.0","battery-v0.2","","""event"",""trial"",""time""
""fullscreenenter"",""1"",""7688""
","
","
","""event"",""trial"",""time""
""fullscreenenter"",""1"",""7688""
","
","","","1321.8999999999069","","","16","1331","603","t","elianto","#3366ff99"," "," ","1","0","[2176.1999999999534]","1","2","","","1331","76","7","1","win","go","1","0"
"pit-trial","143","996277","0.0-81.0","battery-v0.2","","""event"",""trial"",""time""
""fullscreenenter"",""1"",""7688""
","
","
","""event"",""trial"",""time""
""fullscreenenter"",""1"",""7688""
","
","","","1996.8000000000466","","","16","1331","603","z","elianto","#f73b6a7A"," "," ","1","0","[2846.7999999998137]","1","2","","","1331","77","4","3","lose","go","0","0"
"pit-trial","144","1000033","0.0-82.0","battery-v0.2","","""event"",""trial"",""time""
""fullscreenenter"",""1"",""7688""
","
","
","""event"",""trial"",""time""
""fullscreenenter"",""1"",""7688""
","
","","","895.8000000000466","","","16","1331","603","b","elianto","#3366ff99","-1"," ","0","+10","[1746.3000000000466]","1","2","","","1331","78","6","2","win","no-go","1","0"
"pit-trial","145","1004893","0.0-83.0","battery-v0.2","","""event"",""trial"",""time""
""fullscreenenter"",""1"",""7688""
","
","
","""event"",""trial"",""time""
""fullscreenenter"",""1"",""7688""
","
","","","-1","","","16","1331","603","t","elianto","#3366ff99"," ","-1","0","+10","[]","0","2","","","1331","79","7","1","win","go","1","0"
"pit-trial","146","1009754","0.0-84.0","battery-v0.2","","""event"",""trial"",""time""
""fullscreenenter"",""1"",""7688""
","
","
","""event"",""trial"",""time""
""fullscreenenter"",""1"",""7688""
","
","","","-1","","","16","1331","603","c","elianto","#f73b6a7A","-1","-1","1","0","[]","0","2","","","1331","80","5","4","lose","no-go","0","0"
"pit-trial","147","1013695","0.0-85.0","battery-v0.2","","""event"",""trial"",""time""
""fullscreenenter"",""1"",""7688""
","
","
","""event"",""trial"",""time""
""fullscreenenter"",""1"",""7688""
","
","","","1081.8000000000466","","","16","1331","603","z","elianto","#f73b6a7A"," "," ","1","0","[1932.3999999999069]","1","2","","","1331","81","4","3","lose","go","0","0"
"pit-trial","148","1018303","0.0-86.0","battery-v0.2","","""event"",""trial"",""time""
""fullscreenenter"",""1"",""7688""
","
","
","""event"",""trial"",""time""
""fullscreenenter"",""1"",""7688""
","
","","","1747.5","","","16","1331","603","c","elianto","#f73b6a7A","-1"," ","0","0","[2597.7000000001863]","1","2","","","1331","82","5","4","lose","no-go","1","0"
"pit-trial","149","1022182","0.0-87.0","battery-v0.2","","""event"",""trial"",""time""
""fullscreenenter"",""1"",""7688""
","
","
","""event"",""trial"",""time""
""fullscreenenter"",""1"",""7688""
","
","","","1017.9000000001397","","","16","1331","603","t","elianto","#3366ff99"," "," ","1","0","[1868.1000000000931]","1","2","","","1331","83","7","1","win","go","1","0"
"pit-trial","150","1025944","0.0-88.0","battery-v0.2","","""event"",""trial"",""time""
""fullscreenenter"",""1"",""7688""
","
","
","""event"",""trial"",""time""
""fullscreenenter"",""1"",""7688""
","
","","","899.8999999999069","","","16","1331","603","b","elianto","#3366ff99","-1"," ","0","0","[1750.4000000001397]","1","2","","","1331","84","6","2","win","no-go","0","0"
"pit-trial","151","1030805","0.0-89.0","battery-v0.2","","""event"",""trial"",""time""
""fullscreenenter"",""1"",""7688""
","
","
","""event"",""trial"",""time""
""fullscreenenter"",""1"",""7688""
","
","","","-1","","","16","1331","603","c","elianto","#f73b6a7A","-1","-1","1","0","[]","0","2","","","1331","85","5","4","lose","no-go","0","0"
"pit-trial","152","1034845","0.0-90.0","battery-v0.2","","""event"",""trial"",""time""
""fullscreenenter"",""1"",""7688""
","
","
","""event"",""trial"",""time""
""fullscreenenter"",""1"",""7688""
","
","","","1179.5","","","16","1331","603","z","elianto","#f73b6a7A"," "," ","1","0","[2029.6999999999534]","1","2","","","1331","86","4","3","lose","go","0","0"
"pit-trial","153","1039707","0.0-91.0","battery-v0.2","","""event"",""trial"",""time""
""fullscreenenter"",""1"",""7688""
","
","
","""event"",""trial"",""time""
""fullscreenenter"",""1"",""7688""
","
","","","-1","","","16","1331","603","t","elianto","#3366ff99"," ","-1","0","0","[]","0","2","","","1331","87","7","1","win","go","0","0"
"pit-trial","154","1043537","0.0-92.0","battery-v0.2","","""event"",""trial"",""time""
""fullscreenenter"",""1"",""7688""
","
","
","""event"",""trial"",""time""
""fullscreenenter"",""1"",""7688""
","
","","","968.6999999999534","","","16","1331","603","b","elianto","#3366ff99","-1"," ","0","0","[1819.2000000001863]","1","2","","","1331","88","6","2","win","no-go","0","0"
"pit-trial","155","1048399","0.0-93.0","battery-v0.2","","""event"",""trial"",""time""
""fullscreenenter"",""1"",""7688""
","
","
","""event"",""trial"",""time""
""fullscreenenter"",""1"",""7688""
","
","","","-1","","","16","1331","603","c","elianto","#f73b6a7A","-1","-1","1","0","[]","0","2","","","1331","89","5","4","lose","no-go","0","0"
"pit-trial","156","1052516","0.0-94.0","battery-v0.2","","""event"",""trial"",""time""
""fullscreenenter"",""1"",""7688""
","
","
","""event"",""trial"",""time""
""fullscreenenter"",""1"",""7688""
","
","","","1254.8999999999069","","","16","1331","603","t","elianto","#3366ff99"," "," ","1","+10","[2105]","1","2","","","1331","90","7","1","win","go","0","0"
"pit-trial","157","1057379","0.0-95.0","battery-v0.2","","""event"",""trial"",""time""
""fullscreenenter"",""1"",""7688""
","
","
","""event"",""trial"",""time""
""fullscreenenter"",""1"",""7688""
","
","","","-1","","","16","1331","603","z","elianto","#f73b6a7A"," ","-1","0","-10","[]","0","2","","","1331","91","4","3","lose","go","0","0"
"pit-trial","158","1061204","0.0-96.0","battery-v0.2","","""event"",""trial"",""time""
""fullscreenenter"",""1"",""7688""
","
","
","""event"",""trial"",""time""
""fullscreenenter"",""1"",""7688""
","
","","","962.5","","","16","1331","603","b","elianto","#3366ff99","-1"," ","0","0","[1812.7000000001863]","1","2","","","1331","92","6","2","win","no-go","0","0"
"pit-trial","159","1066067","0.0-97.0","battery-v0.2","","""event"",""trial"",""time""
""fullscreenenter"",""1"",""7688""
","
","
","""event"",""trial"",""time""
""fullscreenenter"",""1"",""7688""
","
","","","-1","","","16","1331","603","b","elianto","#3366ff99","-1","-1","1","+10","[]","0","2","","","1331","93","6","2","win","no-go","0","0"
"pit-trial","160","1070206","0.0-98.0","battery-v0.2","","""event"",""trial"",""time""
""fullscreenenter"",""1"",""7688""
","
","
","""event"",""trial"",""time""
""fullscreenenter"",""1"",""7688""
","
","","","1270.1999999999534","","","16","1331","603","z","elianto","#f73b6a7A"," "," ","1","0","[2124.9000000001397]","1","2","","","1331","94","4","3","lose","go","0","0"
"pit-trial","161","1074376","0.0-99.0","battery-v0.2","","""event"",""trial"",""time""
""fullscreenenter"",""1"",""7688""
","
","
","""event"",""trial"",""time""
""fullscreenenter"",""1"",""7688""
","
","","","1308","","","16","1331","603","t","elianto","#3366ff99"," "," ","1","+10","[2158.5999999998603]","1","2","","","1331","95","7","1","win","go","0","0"
"pit-trial","162","1078661","0.0-100.0","battery-v0.2","","""event"",""trial"",""time""
""fullscreenenter"",""1"",""7688""
","
","
","""event"",""trial"",""time""
""fullscreenenter"",""1"",""7688""
","
","","","1422.1000000000931","","","16","1331","603","x","elianto","#3366ff99"," "," ","1","+10","[2272.9000000001397]","1","2","","","1331","96","8","1","win","go","0","0"
"pit-trial","163","1082856","0.0-101.0","battery-v0.2","","""event"",""trial"",""time""
""fullscreenenter"",""1"",""7688""
","
","
","""event"",""trial"",""time""
""fullscreenenter"",""1"",""7688""
","
","","","1330.6999999999534","","","16","1331","603","z","elianto","#f73b6a7A"," "," ","1","-10","[2181]","1","2","","","1331","97","4","3","lose","go","1","0"
"pit-trial","164","1086558","0.0-102.0","battery-v0.2","","""event"",""trial"",""time""
""fullscreenenter"",""1"",""7688""
","
","
","""event"",""trial"",""time""
""fullscreenenter"",""1"",""7688""
","
","","","838.4000000001397","","","16","1331","603","x","elianto","#3366ff99"," "," ","1","+10","[1688.8999999999069]","1","2","","","1331","98","8","1","win","go","0","0"
"pit-trial","165","1090455","0.0-103.0","battery-v0.2","","""event"",""trial"",""time""
""fullscreenenter"",""1"",""7688""
","
","
","""event"",""trial"",""time""
""fullscreenenter"",""1"",""7688""
","
","","","1032.1999999999534","","","16","1331","603","b","elianto","#3366ff99","-1"," ","0","+10","[1882.6000000000931]","1","2","","","1331","99","6","2","win","no-go","1","0"
"pit-trial","166","1093970","0.0-104.0","battery-v0.2","","""event"",""trial"",""time""
""fullscreenenter"",""1"",""7688""
","
","
","""event"",""trial"",""time""
""fullscreenenter"",""1"",""7688""
","
","","","654.6000000000931","","","16","1331","603","t","elianto","#3366ff99"," "," ","1","+10","[1505.0999999998603]","1","2","","","1331","100","7","1","win","go","0","0"
"pit-trial","167","1097503","0.0-105.0","battery-v0.2","","""event"",""trial"",""time""
""fullscreenenter"",""1"",""7688""
","
","
","""event"",""trial"",""time""
""fullscreenenter"",""1"",""7688""
","
","","","674.6999999999534","","","16","1331","603","x","elianto","#3366ff99"," "," ","1","+10","[1525.1999999999534]","1","2","","","1331","101","8","1","win","go","0","0"
"pit-trial","168","1100931","0.0-106.0","battery-v0.2","","""event"",""trial"",""time""
""fullscreenenter"",""1"",""7688""
","
","
","""event"",""trial"",""time""
""fullscreenenter"",""1"",""7688""
","
","","","569.5","","","16","1331","603","b","elianto","#3366ff99","-1"," ","0","+10","[1420]","1","2","","","1331","102","6","2","win","no-go","1","0"
"pit-trial","169","1104272","0.0-107.0","battery-v0.2","","""event"",""trial"",""time""
""fullscreenenter"",""1"",""7688""
","
","
","""event"",""trial"",""time""
""fullscreenenter"",""1"",""7688""
","
","","","482.5999999998603","","","16","1331","603","f","elianto","#3366ff99","-1"," ","0","0","[1332.8000000000466]","1","2","","","1331","103","9","2","win","no-go","0","0"
"pit-trial","170","1108074","0.0-108.0","battery-v0.2","","""event"",""trial"",""time""
""fullscreenenter"",""1"",""7688""
","
","
","""event"",""trial"",""time""
""fullscreenenter"",""1"",""7688""
","
","","","939.3000000000466","","","16","1331","603","t","elianto","#3366ff99"," "," ","1","+10","[1794.4000000001397]","1","2","","","1331","104","7","1","win","go","0","0"
"pit-trial","171","1111936","0.0-109.0","battery-v0.2","","""event"",""trial"",""time""
""fullscreenenter"",""1"",""7688""
","
","
","""event"",""trial"",""time""
""fullscreenenter"",""1"",""7688""
","
","","","1002.8000000000466","","","16","1331","603","x","elianto","#3366ff99"," "," ","1","+10","[1854.8999999999069]","1","2","","","1331","105","8","1","win","go","0","0"
"pit-trial","172","1115563","0.0-110.0","battery-v0.2","","""event"",""trial"",""time""
""fullscreenenter"",""1"",""7688""
","
","
","""event"",""trial"",""time""
""fullscreenenter"",""1"",""7688""
","
","","","763.6999999999534","","","16","1331","603","b","elianto","#3366ff99","-1"," ","0","0","[1619]","1","2","","","1331","106","6","2","win","no-go","0","0"
"pit-trial","173","1119277","0.0-111.0","battery-v0.2","","""event"",""trial"",""time""
""fullscreenenter"",""1"",""7688""
","
","
","""event"",""trial"",""time""
""fullscreenenter"",""1"",""7688""
","
","","","855.1999999999534","","","16","1331","603","t","elianto","#3366ff99"," "," ","1","+10","[1705.6999999999534]","1","2","","","1331","107","7","1","win","go","0","0"
"pit-trial","174","1124136","0.0-112.0","battery-v0.2","","""event"",""trial"",""time""
""fullscreenenter"",""1"",""7688""
","
","
","""event"",""trial"",""time""
""fullscreenenter"",""1"",""7688""
","
","","","-1","","","16","1331","603","f","elianto","#3366ff99","-1","-1","1","+10","[]","0","2","","","1331","108","9","2","win","no-go","0","0"
"pit-trial","175","1128996","0.0-113.0","battery-v0.2","","""event"",""trial"",""time""
""fullscreenenter"",""1"",""7688""
","
","
","""event"",""trial"",""time""
""fullscreenenter"",""1"",""7688""
","
","","","-1","","","16","1331","603","f","elianto","#3366ff99","-1","-1","1","+10","[]","0","2","","","1331","109","9","2","win","no-go","0","0"
"pit-trial","176","1133856","0.0-114.0","battery-v0.2","","""event"",""trial"",""time""
""fullscreenenter"",""1"",""7688""
","
","
","""event"",""trial"",""time""
""fullscreenenter"",""1"",""7688""
","
","","","-1","","","16","1331","603","n","elianto","#f73b6a7A"," ","-1","0","-10","[]","0","2","","","1331","110","10","3","lose","go","0","0"
"pit-trial","177","1137538","0.0-115.0","battery-v0.2","","""event"",""trial"",""time""
""fullscreenenter"",""1"",""7688""
","
","
","""event"",""trial"",""time""
""fullscreenenter"",""1"",""7688""
","
","","","823.6999999999534","","","16","1331","603","x","elianto","#3366ff99"," "," ","1","+10","[1674.3000000000466]","1","2","","","1331","111","8","1","win","go","0","0"
"pit-trial","178","1141995","0.0-116.0","battery-v0.2","","""event"",""trial"",""time""
""fullscreenenter"",""1"",""7688""
","
","
","""event"",""trial"",""time""
""fullscreenenter"",""1"",""7688""
","
","","","1596.1999999999534","","","16","1331","603","q","elianto","#f73b6a7A","-1"," ","0","-10","[2446.6999999999534]","1","2","","","1331","112","11","4","lose","no-go","0","0"
"pit-trial","179","1145760","0.0-117.0","battery-v0.2","","""event"",""trial"",""time""
""fullscreenenter"",""1"",""7688""
","
","
","""event"",""trial"",""time""
""fullscreenenter"",""1"",""7688""
","
","","","905.6999999999534","","","16","1331","603","x","elianto","#3366ff99"," "," ","1","+10","[1756.7000000001863]","1","2","","","1331","113","8","1","win","go","0","0"
"pit-trial","180","1150620","0.0-118.0","battery-v0.2","","""event"",""trial"",""time""
""fullscreenenter"",""1"",""7688""
","
","
","""event"",""trial"",""time""
""fullscreenenter"",""1"",""7688""
","
","","","-1","","","16","1331","603","f","elianto","#3366ff99","-1","-1","1","0","[]","0","2","","","1331","114","9","2","win","no-go","1","0"
"pit-trial","181","1155457","0.0-119.0","battery-v0.2","","""event"",""trial"",""time""
""fullscreenenter"",""1"",""7688""
","
","
","""event"",""trial"",""time""
""fullscreenenter"",""1"",""7688""
","
","","","1972.1999999999534","","","16","1331","603","q","elianto","#f73b6a7A","-1"," ","0","0","[2828.5]","1","2","","","1331","115","11","4","lose","no-go","1","0"
"pit-trial","182","1159503","0.0-120.0","battery-v0.2","","""event"",""trial"",""time""
""fullscreenenter"",""1"",""7688""
","
","
","""event"",""trial"",""time""
""fullscreenenter"",""1"",""7688""
","
","","","1186.9000000001397","","","16","1331","603","n","elianto","#f73b6a7A"," "," ","1","0","[2037.3000000000466]","1","2","","","1331","116","10","3","lose","go","0","0"
"pit-trial","183","1163203","0.0-121.0","battery-v0.2","","""event"",""trial"",""time""
""fullscreenenter"",""1"",""7688""
","
","
","""event"",""trial"",""time""
""fullscreenenter"",""1"",""7688""
","
","","","838.6999999999534","","","16","1331","603","x","elianto","#3366ff99"," "," ","1","0","[1690.1999999999534]","1","2","","","1331","117","8","1","win","go","1","0"
"pit-trial","184","1167413","0.0-122.0","battery-v0.2","","""event"",""trial"",""time""
""fullscreenenter"",""1"",""7688""
","
","
","""event"",""trial"",""time""
""fullscreenenter"",""1"",""7688""
","
","","","1350","","","16","1331","603","n","elianto","#f73b6a7A"," "," ","1","0","[2201.8000000000466]","1","2","","","1331","118","10","3","lose","go","0","0"
"pit-trial","185","1171180","0.0-123.0","battery-v0.2","","""event"",""trial"",""time""
""fullscreenenter"",""1"",""7688""
","
","
","""event"",""trial"",""time""
""fullscreenenter"",""1"",""7688""
","
","","","899.6999999999534","","","16","1331","603","q","elianto","#f73b6a7A","-1"," ","0","-10","[1758.5999999998603]","1","2","","","1331","119","11","4","lose","no-go","0","0"
"pit-trial","186","1176040","0.0-124.0","battery-v0.2","","""event"",""trial"",""time""
""fullscreenenter"",""1"",""7688""
","
","
","""event"",""trial"",""time""
""fullscreenenter"",""1"",""7688""
","
","","","-1","","","16","1331","603","f","elianto","#3366ff99","-1","-1","1","+10","[]","0","2","","","1331","120","9","2","win","no-go","0","0"
"pit-trial","187","1180372","0.0-125.0","battery-v0.2","","""event"",""trial"",""time""
""fullscreenenter"",""1"",""7688""
","
","
","""event"",""trial"",""time""
""fullscreenenter"",""1"",""7688""
","
","","","1471.3000000000466","","","16","1331","603","x","elianto","#3366ff99"," "," ","1","+10","[2322.6999999999534]","1","2","","","1331","121","8","1","win","go","0","0"
"pit-trial","188","1184223","0.0-126.0","battery-v0.2","","""event"",""trial"",""time""
""fullscreenenter"",""1"",""7688""
","
","
","""event"",""trial"",""time""
""fullscreenenter"",""1"",""7688""
","
","","","990.8000000000466","","","16","1331","603","q","elianto","#f73b6a7A","-1"," ","0","-10","[1841.5]","1","2","","","1331","122","11","4","lose","no-go","0","0"
"pit-trial","189","1188170","0.0-127.0","battery-v0.2","","""event"",""trial"",""time""
""fullscreenenter"",""1"",""7688""
","
","
","""event"",""trial"",""time""
""fullscreenenter"",""1"",""7688""
","
","","","1081.4000000001397","","","16","1331","603","n","elianto","#f73b6a7A"," "," ","1","0","[1936.6999999999534]","1","2","","","1331","123","10","3","lose","go","0","0"
"pit-trial","190","1193031","0.0-128.0","battery-v0.2","","""event"",""trial"",""time""
""fullscreenenter"",""1"",""7688""
","
","
","""event"",""trial"",""time""
""fullscreenenter"",""1"",""7688""
","
","","","-1","","","16","1331","603","f","elianto","#3366ff99","-1","-1","1","+10","[]","0","2","","","1331","124","9","2","win","no-go","0","0"
"pit-trial","191","1197893","0.0-129.0","battery-v0.2","","""event"",""trial"",""time""
""fullscreenenter"",""1"",""7688""
","
","
","""event"",""trial"",""time""
""fullscreenenter"",""1"",""7688""
","
","","","-1","","","16","1331","603","f","elianto","#3366ff99","-1","-1","1","0","[]","0","2","","","1331","125","9","2","win","no-go","1","0"
"pit-trial","192","1201523","0.0-130.0","battery-v0.2","","""event"",""trial"",""time""
""fullscreenenter"",""1"",""7688""
","
","
","""event"",""trial"",""time""
""fullscreenenter"",""1"",""7688""
","
","","","769.6999999999534","","","16","1331","603","x","elianto","#3366ff99"," "," ","1","+10","[1619.9000000001397]","1","2","","","1331","126","8","1","win","go","0","0"
"pit-trial","193","1206385","0.0-131.0","battery-v0.2","","""event"",""trial"",""time""
""fullscreenenter"",""1"",""7688""
","
","
","""event"",""trial"",""time""
""fullscreenenter"",""1"",""7688""
","
","","","-1","","","16","1331","603","q","elianto","#f73b6a7A","-1","-1","1","0","[]","0","2","","","1331","127","11","4","lose","no-go","0","0"
"pit-trial","194","1211246","0.0-132.0","battery-v0.2","","""event"",""trial"",""time""
""fullscreenenter"",""1"",""7688""
","
","
","""event"",""trial"",""time""
""fullscreenenter"",""1"",""7688""
","
","","","-1","","","16","1331","603","n","elianto","#f73b6a7A"," ","-1","0","-10","[]","0","2","","","1331","128","10","3","lose","go","0","0"
"pit-trial","195","1216108","0.0-133.0","battery-v0.2","","""event"",""trial"",""time""
""fullscreenenter"",""1"",""7688""
","
","
","""event"",""trial"",""time""
""fullscreenenter"",""1"",""7688""
","
","","","-1","","","16","1331","603","f","elianto","#3366ff99","-1","-1","1","0","[]","0","2","","","1331","129","9","2","win","no-go","1","0"
"pit-trial","196","1220073","0.0-134.0","battery-v0.2","","""event"",""trial"",""time""
""fullscreenenter"",""1"",""7688""
","
","
","""event"",""trial"",""time""
""fullscreenenter"",""1"",""7688""
","
","","","1103.7999999998137","","","16","1331","603","q","elianto","#f73b6a7A","-1"," ","0","-10","[1954.6999999999534]","1","2","","","1331","130","11","4","lose","no-go","0","0"
"pit-trial","197","1223650","0.0-135.0","battery-v0.2","","""event"",""trial"",""time""
""fullscreenenter"",""1"",""7688""
","
","
","""event"",""trial"",""time""
""fullscreenenter"",""1"",""7688""
","
","","","715.8999999999069","","","16","1331","603","x","elianto","#3366ff99"," "," ","1","+10","[1566.2000000001863]","1","2","","","1331","131","8","1","win","go","0","0"
"pit-trial","198","1227782","0.0-136.0","battery-v0.2","","""event"",""trial"",""time""
""fullscreenenter"",""1"",""7688""
","
","
","""event"",""trial"",""time""
""fullscreenenter"",""1"",""7688""
","
","","","1272.3000000000466","","","16","1331","603","n","elianto","#f73b6a7A"," "," ","1","0","[2122.5]","1","2","","","1331","132","10","3","lose","go","0","0"
"pit-trial","199","1231390","0.0-137.0","battery-v0.2","","""event"",""trial"",""time""
""fullscreenenter"",""1"",""7688""
","
","
","""event"",""trial"",""time""
""fullscreenenter"",""1"",""7688""
","
","","","747","","","16","1331","603","x","elianto","#3366ff99"," "," ","1","+10","[1597.1999999999534]","1","2","","","1331","133","8","1","win","go","0","0"
"pit-trial","200","1235248","0.0-138.0","battery-v0.2","","""event"",""trial"",""time""
""fullscreenenter"",""1"",""7688""
","
","
","""event"",""trial"",""time""
""fullscreenenter"",""1"",""7688""
","
","","","994.2000000001863","","","16","1331","603","n","elianto","#f73b6a7A"," "," ","1","0","[1847.3000000000466]","1","2","","","1331","134","10","3","lose","go","0","0"
"pit-trial","201","1240111","0.0-139.0","battery-v0.2","","""event"",""trial"",""time""
""fullscreenenter"",""1"",""7688""
","
","
","""event"",""trial"",""time""
""fullscreenenter"",""1"",""7688""
","
","","","-1","","","16","1331","603","q","elianto","#f73b6a7A","-1","-1","1","-10","[]","0","2","","","1331","135","11","4","lose","no-go","1","0"
"pit-trial","202","1244682","0.0-140.0","battery-v0.2","","""event"",""trial"",""time""
""fullscreenenter"",""1"",""7688""
","
","
","""event"",""trial"",""time""
""fullscreenenter"",""1"",""7688""
","
","","","1708.8999999999069","","","16","1331","603","f","elianto","#3366ff99","-1"," ","0","0","[2559.1999999999534]","1","2","","","1331","136","9","2","win","no-go","0","0"
"pit-trial","203","1248590","0.0-141.0","battery-v0.2","","""event"",""trial"",""time""
""fullscreenenter"",""1"",""7688""
","
","
","""event"",""trial"",""time""
""fullscreenenter"",""1"",""7688""
","
","","","1039.8999999999069","","","16","1331","603","x","elianto","#3366ff99"," "," ","1","+10","[1896.2000000001863]","1","2","","","1331","137","8","1","win","go","0","0"
"pit-trial","204","1253452","0.0-142.0","battery-v0.2","","""event"",""trial"",""time""
""fullscreenenter"",""1"",""7688""
","
","
","""event"",""trial"",""time""
""fullscreenenter"",""1"",""7688""
","
","","","-1","","","16","1331","603","q","elianto","#f73b6a7A","-1","-1","1","0","[]","0","2","","","1331","138","11","4","lose","no-go","0","0"
"pit-trial","205","1257544","0.0-143.0","battery-v0.2","","""event"",""trial"",""time""
""fullscreenenter"",""1"",""7688""
","
","
","""event"",""trial"",""time""
""fullscreenenter"",""1"",""7688""
","
","","","1229.4000000001397","","","16","1331","603","n","elianto","#f73b6a7A"," "," ","1","-10","[2079.4000000001397]","1","2","","","1331","139","10","3","lose","go","1","0"
"pit-trial","206","1262405","0.0-144.0","battery-v0.2","","""event"",""trial"",""time""
""fullscreenenter"",""1"",""7688""
","
","
","""event"",""trial"",""time""
""fullscreenenter"",""1"",""7688""
","
","","","-1","","","16","1331","603","f","elianto","#3366ff99","-1","-1","1","+10","[]","0","2","","","1331","140","9","2","win","no-go","0","0"
"pit-instructions","207","1276083","0.0-145.0","battery-v0.2","","""event"",""trial"",""time""
""fullscreenenter"",""1"",""7688""
","
","
","""event"",""trial"",""time""
""fullscreenenter"",""1"",""7688""
","
","","[{""page_index"":0,""viewing_time"":5261.40000000014},{""page_index"":1,""viewing_time"":8405.199999999953}]","13670.200000000186","","","","","","","","","","","","","","","","","","","","","","","","",""
"pit-trial","208","1280004","0.0-146.0","battery-v0.2","","""event"",""trial"",""time""
""fullscreenenter"",""1"",""7688""
","
","
","""event"",""trial"",""time""
""fullscreenenter"",""1"",""7688""
","
","","","1052.3000000000466","","","16","1331","603","j","elianto","#3366ff99","-1"," ","0","0","[1902.6999999999534]","1","3","","","1331","141","1","2","win","no-go","0","0"
"pit-trial","209","1283589","0.0-147.0","battery-v0.2","","""event"",""trial"",""time""
""fullscreenenter"",""1"",""7688""
","
","
","""event"",""trial"",""time""
""fullscreenenter"",""1"",""7688""
","
","","","721.2000000001863","","","16","1331","603","d","elianto","#3366ff99"," "," ","1","0","[1576]","1","3","","","1331","142","2","1","win","go","1","0"
"pit-trial","210","1288098","0.0-148.0","battery-v0.2","","""event"",""trial"",""time""
""fullscreenenter"",""1"",""7688""
","
","
","""event"",""trial"",""time""
""fullscreenenter"",""1"",""7688""
","
","","","1650","","","16","1331","603","k","elianto","#f73b6a7A"," "," ","1","0","[2501.1999999999534]","1","3","","","1331","143","3","3","lose","go","0","0"
"pit-trial","211","1291988","0.0-149.0","battery-v0.2","","""event"",""trial"",""time""
""fullscreenenter"",""1"",""7688""
","
","
","""event"",""trial"",""time""
""fullscreenenter"",""1"",""7688""
","
","","","1030.8000000000466","","","16","1331","603","v","elianto","#3366ff99","-1"," ","0","0","[1881.5]","1","3","","","1331","144","0","2","win","no-go","0","0"
"pit-trial","212","1296847","0.0-150.0","battery-v0.2","","""event"",""trial"",""time""
""fullscreenenter"",""1"",""7688""
","
","
","""event"",""trial"",""time""
""fullscreenenter"",""1"",""7688""
","
","","","-1","","","16","1331","603","v","elianto","#3366ff99","-1","-1","1","+10","[]","0","3","","","1331","145","0","2","win","no-go","0","0"
"pit-trial","213","1301707","0.0-151.0","battery-v0.2","","""event"",""trial"",""time""
""fullscreenenter"",""1"",""7688""
","
","
","""event"",""trial"",""time""
""fullscreenenter"",""1"",""7688""
","
","","","-1","","","16","1331","603","d","elianto","#3366ff99"," ","-1","0","0","[]","0","3","","","1331","146","2","1","win","go","0","0"
"pit-trial","214","1306566","0.0-152.0","battery-v0.2","","""event"",""trial"",""time""
""fullscreenenter"",""1"",""7688""
","
","
","""event"",""trial"",""time""
""fullscreenenter"",""1"",""7688""
","
","","","-1","","","16","1331","603","j","elianto","#3366ff99","-1","-1","1","+10","[]","0","3","","","1331","147","1","2","win","no-go","0","0"
"pit-trial","215","1311425","0.0-153.0","battery-v0.2","","""event"",""trial"",""time""
""fullscreenenter"",""1"",""7688""
","
","
","""event"",""trial"",""time""
""fullscreenenter"",""1"",""7688""
","
","","","-1","","","16","1331","603","k","elianto","#f73b6a7A"," ","-1","0","-10","[3003.1999999999534]","1","3","","","1331","148","3","3","lose","go","0","0"
"pit-trial","216","1316284","0.0-154.0","battery-v0.2","","""event"",""trial"",""time""
""fullscreenenter"",""1"",""7688""
","
","
","""event"",""trial"",""time""
""fullscreenenter"",""1"",""7688""
","
","","","-1","","","16","1331","603","j","elianto","#3366ff99","-1","-1","1","+10","[]","0","3","","","1331","149","1","2","win","no-go","0","0"
"pit-trial","217","1320040","0.0-155.0","battery-v0.2","","""event"",""trial"",""time""
""fullscreenenter"",""1"",""7688""
","
","
","""event"",""trial"",""time""
""fullscreenenter"",""1"",""7688""
","
","","","897.1000000000931","","","16","1331","603","k","elianto","#f73b6a7A"," "," ","1","0","[1747.7000000001863]","1","3","","","1331","150","3","3","lose","go","0","0"
"pit-trial","218","1324900","0.0-156.0","battery-v0.2","","""event"",""trial"",""time""
""fullscreenenter"",""1"",""7688""
","
","
","""event"",""trial"",""time""
""fullscreenenter"",""1"",""7688""
","
","","","-1","","","16","1331","603","v","elianto","#3366ff99","-1","-1","1","+10","[]","0","3","","","1331","151","0","2","win","no-go","0","0"
"pit-trial","219","1329759","0.0-157.0","battery-v0.2","","""event"",""trial"",""time""
""fullscreenenter"",""1"",""7688""
","
","
","""event"",""trial"",""time""
""fullscreenenter"",""1"",""7688""
","
","","","-1","","","16","1331","603","d","elianto","#3366ff99"," ","-1","0","0","[]","0","3","","","1331","152","2","1","win","go","0","0"
"pit-trial","220","1333379","0.0-158.0","battery-v0.2","","""event"",""trial"",""time""
""fullscreenenter"",""1"",""7688""
","
","
","""event"",""trial"",""time""
""fullscreenenter"",""1"",""7688""
","
","","","761","","","16","1331","603","d","elianto","#3366ff99"," "," ","1","+10","[1611.3999999999069]","1","3","","","1331","153","2","1","win","go","0","0"
"pit-trial","221","1337464","0.0-159.0","battery-v0.2","","""event"",""trial"",""time""
""fullscreenenter"",""1"",""7688""
","
","
","""event"",""trial"",""time""
""fullscreenenter"",""1"",""7688""
","
","","","1226.1999999999534","","","16","1331","603","k","elianto","#f73b6a7A"," "," ","1","-10","[2077.1999999999534]","1","3","","","1331","154","3","3","lose","go","1","0"
"pit-trial","222","1341340","0.0-160.0","battery-v0.2","","""event"",""trial"",""time""
""fullscreenenter"",""1"",""7688""
","
","
","""event"",""trial"",""time""
""fullscreenenter"",""1"",""7688""
","
","","","1012.4000000001397","","","16","1331","603","v","elianto","#3366ff99","-1"," ","0","0","[1867.3000000000466]","1","3","","","1331","155","0","2","win","no-go","0","0"
"pit-trial","223","1346200","0.0-161.0","battery-v0.2","","""event"",""trial"",""time""
""fullscreenenter"",""1"",""7688""
","
","
","""event"",""trial"",""time""
""fullscreenenter"",""1"",""7688""
","
","","","-1","","","16","1331","603","j","elianto","#3366ff99","-1","-1","1","+10","[]","0","3","","","1331","156","1","2","win","no-go","0","0"
"pit-trial","224","1351061","0.0-162.0","battery-v0.2","","""event"",""trial"",""time""
""fullscreenenter"",""1"",""7688""
","
","
","""event"",""trial"",""time""
""fullscreenenter"",""1"",""7688""
","
","","","-1","","","16","1331","603","j","elianto","#3366ff99","-1","-1","1","+10","[]","0","3","","","1331","157","1","2","win","no-go","0","0"
"pit-trial","225","1355387","0.0-163.0","battery-v0.2","","""event"",""trial"",""time""
""fullscreenenter"",""1"",""7688""
","
","
","""event"",""trial"",""time""
""fullscreenenter"",""1"",""7688""
","
","","","1464.8999999999069","","","16","1331","603","k","elianto","#f73b6a7A"," "," ","1","0","[2317.0999999998603]","1","3","","","1331","158","3","3","lose","go","0","0"
"pit-trial","226","1359628","0.0-164.0","battery-v0.2","","""event"",""trial"",""time""
""fullscreenenter"",""1"",""7688""
","
","
","""event"",""trial"",""time""
""fullscreenenter"",""1"",""7688""
","
","","","1380.3999999999069","","","16","1331","603","d","elianto","#3366ff99"," "," ","1","+10","[2230.9000000001397]","1","3","","","1331","159","2","1","win","go","0","0"
"pit-trial","227","1364489","0.0-165.0","battery-v0.2","","""event"",""trial"",""time""
""fullscreenenter"",""1"",""7688""
","
","
","""event"",""trial"",""time""
""fullscreenenter"",""1"",""7688""
","
","","","-1","","","16","1331","603","v","elianto","#3366ff99","-1","-1","1","+10","[]","0","3","","","1331","160","0","2","win","no-go","0","0"
"pit-trial","228","1369349","0.0-166.0","battery-v0.2","","""event"",""trial"",""time""
""fullscreenenter"",""1"",""7688""
","
","
","""event"",""trial"",""time""
""fullscreenenter"",""1"",""7688""
","
","","","-1","","","16","1331","603","v","elianto","#3366ff99","-1","-1","1","0","[]","0","3","","","1331","161","0","2","win","no-go","1","0"
"pit-trial","229","1373675","0.0-167.0","battery-v0.2","","""event"",""trial"",""time""
""fullscreenenter"",""1"",""7688""
","
","
","""event"",""trial"",""time""
""fullscreenenter"",""1"",""7688""
","
","","","1466.4000000001397","","","16","1331","603","d","elianto","#3366ff99"," "," ","1","+10","[2316.5]","1","3","","","1331","162","2","1","win","go","0","0"
"pit-trial","230","1378535","0.0-168.0","battery-v0.2","","""event"",""trial"",""time""
""fullscreenenter"",""1"",""7688""
","
","
","""event"",""trial"",""time""
""fullscreenenter"",""1"",""7688""
","
","","","-1","","","16","1331","603","j","elianto","#3366ff99","-1","-1","1","+10","[]","0","3","","","1331","163","1","2","win","no-go","0","0"
"pit-trial","231","1382997","0.0-169.0","battery-v0.2","","""event"",""trial"",""time""
""fullscreenenter"",""1"",""7688""
","
","
","""event"",""trial"",""time""
""fullscreenenter"",""1"",""7688""
","
","","","1599.5","","","16","1331","603","k","elianto","#f73b6a7A"," "," ","1","0","[2452.2999999998137]","1","3","","","1331","164","3","3","lose","go","0","0"
"pit-trial","232","1386739","0.0-170.0","battery-v0.2","","""event"",""trial"",""time""
""fullscreenenter"",""1"",""7688""
","
","
","""event"",""trial"",""time""
""fullscreenenter"",""1"",""7688""
","
","","","877.6000000000931","","","16","1331","603","k","elianto","#f73b6a7A"," "," ","1","0","[1733]","1","3","","","1331","165","3","3","lose","go","0","0"
"pit-trial","233","1391602","0.0-171.0","battery-v0.2","","""event"",""trial"",""time""
""fullscreenenter"",""1"",""7688""
","
","
","""event"",""trial"",""time""
""fullscreenenter"",""1"",""7688""
","
","","","-1","","","16","1331","603","v","elianto","#3366ff99","-1","-1","1","0","[]","0","3","","","1331","166","0","2","win","no-go","1","0"
"pit-trial","234","1395275","0.0-172.0","battery-v0.2","","""event"",""trial"",""time""
""fullscreenenter"",""1"",""7688""
","
","
","""event"",""trial"",""time""
""fullscreenenter"",""1"",""7688""
","
","","","812.3000000000466","","","16","1331","603","d","elianto","#3366ff99"," "," ","1","+10","[1662.8000000000466]","1","3","","","1331","167","2","1","win","go","0","0"
"pit-trial","235","1400136","0.0-173.0","battery-v0.2","","""event"",""trial"",""time""
""fullscreenenter"",""1"",""7688""
","
","
","""event"",""trial"",""time""
""fullscreenenter"",""1"",""7688""
","
","","","-1","","","16","1331","603","j","elianto","#3366ff99","-1","-1","1","+10","[]","0","3","","","1331","168","1","2","win","no-go","0","0"
"pit-trial","236","1404998","0.0-174.0","battery-v0.2","","""event"",""trial"",""time""
""fullscreenenter"",""1"",""7688""
","
","
","""event"",""trial"",""time""
""fullscreenenter"",""1"",""7688""
","
","","","-1","","","16","1331","603","j","elianto","#3366ff99","-1","-1","1","0","[]","0","3","","","1331","169","1","2","win","no-go","1","0"
"pit-trial","237","1409860","0.0-175.0","battery-v0.2","","""event"",""trial"",""time""
""fullscreenenter"",""1"",""7688""
","
","
","""event"",""trial"",""time""
""fullscreenenter"",""1"",""7688""
","
","","","-1","","","16","1331","603","v","elianto","#3366ff99","-1","-1","1","+10","[]","0","3","","","1331","170","0","2","win","no-go","0","0"
"pit-trial","238","1414268","0.0-176.0","battery-v0.2","","""event"",""trial"",""time""
""fullscreenenter"",""1"",""7688""
","
","
","""event"",""trial"",""time""
""fullscreenenter"",""1"",""7688""
","
","","","1548","","","16","1331","603","d","elianto","#3366ff99"," "," ","1","+10","[2398.100000000093]","1","3","","","1331","171","2","1","win","go","0","0"
"pit-trial","239","1418304","0.0-177.0","battery-v0.2","","""event"",""trial"",""time""
""fullscreenenter"",""1"",""7688""
","
","
","""event"",""trial"",""time""
""fullscreenenter"",""1"",""7688""
","
","","","1171.1000000000931","","","16","1331","603","k","elianto","#f73b6a7A"," "," ","1","0","[2025.4000000001397]","1","3","","","1331","172","3","3","lose","go","0","0"
"pit-trial","240","1423165","0.0-178.0","battery-v0.2","","""event"",""trial"",""time""
""fullscreenenter"",""1"",""7688""
","
","
","""event"",""trial"",""time""
""fullscreenenter"",""1"",""7688""
","
","","","-1","","","16","1331","603","v","elianto","#3366ff99","-1","-1","1","0","[]","0","3","","","1331","173","0","2","win","no-go","1","0"
"pit-trial","241","1427466","0.0-179.0","battery-v0.2","","""event"",""trial"",""time""
""fullscreenenter"",""1"",""7688""
","
","
","""event"",""trial"",""time""
""fullscreenenter"",""1"",""7688""
","
","","","1434.3000000000466","","","16","1331","603","e","elianto","#f73b6a7A","-1"," ","0","-10","[2289.5999999998603]","1","3","","","1331","174","4","4","lose","no-go","0","0"
"pit-trial","242","1431307","0.0-180.0","battery-v0.2","","""event"",""trial"",""time""
""fullscreenenter"",""1"",""7688""
","
","
","""event"",""trial"",""time""
""fullscreenenter"",""1"",""7688""
","
","","","977.6000000000931","","","16","1331","603","d","elianto","#3366ff99"," "," ","1","0","[1827.6999999999534]","1","3","","","1331","175","2","1","win","go","1","0"
"pit-trial","243","1436170","0.0-181.0","battery-v0.2","","""event"",""trial"",""time""
""fullscreenenter"",""1"",""7688""
","
","
","""event"",""trial"",""time""
""fullscreenenter"",""1"",""7688""
","
","","","-1","","","16","1331","603","w","elianto","#f73b6a7A"," ","-1","0","-10","[]","0","3","","","1331","176","5","3","lose","go","0","0"
"pit-trial","244","1440041","0.0-182.0","battery-v0.2","","""event"",""trial"",""time""
""fullscreenenter"",""1"",""7688""
","
","
","""event"",""trial"",""time""
""fullscreenenter"",""1"",""7688""
","
","","","1008.3000000000466","","","16","1331","603","d","elianto","#3366ff99"," "," ","1","+10","[1858.6999999999534]","1","3","","","1331","177","2","1","win","go","0","0"
"pit-trial","245","1443810","0.0-183.0","battery-v0.2","","""event"",""trial"",""time""
""fullscreenenter"",""1"",""7688""
","
","
","""event"",""trial"",""time""
""fullscreenenter"",""1"",""7688""
","
","","","903.5999999998603","","","16","1331","603","w","elianto","#f73b6a7A"," "," ","1","0","[1756.8000000000466]","1","3","","","1331","178","5","3","lose","go","0","0"
"pit-trial","246","1447877","0.0-184.0","battery-v0.2","","""event"",""trial"",""time""
""fullscreenenter"",""1"",""7688""
","
","
","""event"",""trial"",""time""
""fullscreenenter"",""1"",""7688""
","
","","","1203","","","16","1331","603","e","elianto","#f73b6a7A","-1"," ","0","0","[2055.1999999999534]","1","3","","","1331","179","4","4","lose","no-go","1","0"
"pit-trial","247","1452739","0.0-185.0","battery-v0.2","","""event"",""trial"",""time""
""fullscreenenter"",""1"",""7688""
","
","
","""event"",""trial"",""time""
""fullscreenenter"",""1"",""7688""
","
","","","-1","","","16","1331","603","v","elianto","#3366ff99","-1","-1","1","+10","[]","0","3","","","1331","180","0","2","win","no-go","0","0"
"pit-trial","248","1456969","0.0-186.0","battery-v0.2","","""event"",""trial"",""time""
""fullscreenenter"",""1"",""7688""
","
","
","""event"",""trial"",""time""
""fullscreenenter"",""1"",""7688""
","
","","","1365.2000000001863","","","16","1331","603","s","elianto","#3366ff99","-1"," ","0","0","[2218]","1","3","","","1331","181","6","2","win","no-go","0","0"
"pit-trial","249","1461397","0.0-187.0","battery-v0.2","","""event"",""trial"",""time""
""fullscreenenter"",""1"",""7688""
","
","
","""event"",""trial"",""time""
""fullscreenenter"",""1"",""7688""
","
","","","1566.1000000000931","","","16","1331","603","w","elianto","#f73b6a7A"," "," ","1","-10","[2417.100000000093]","1","3","","","1331","182","5","3","lose","go","1","0"
"pit-trial","250","1465338","0.0-188.0","battery-v0.2","","""event"",""trial"",""time""
""fullscreenenter"",""1"",""7688""
","
","
","""event"",""trial"",""time""
""fullscreenenter"",""1"",""7688""
","
","","","1082","","","16","1331","603","e","elianto","#f73b6a7A","-1"," ","0","-10","[1932.6000000000931]","1","3","","","1331","183","4","4","lose","no-go","0","0"
"pit-trial","251","1469101","0.0-189.0","battery-v0.2","","""event"",""trial"",""time""
""fullscreenenter"",""1"",""7688""
","
","
","""event"",""trial"",""time""
""fullscreenenter"",""1"",""7688""
","
","","","904.5","","","16","1331","603","d","elianto","#3366ff99"," "," ","1","+10","[1755]","1","3","","","1331","184","2","1","win","go","0","0"
"pit-trial","252","1473930","0.0-190.0","battery-v0.2","","""event"",""trial"",""time""
""fullscreenenter"",""1"",""7688""
","
","
","""event"",""trial"",""time""
""fullscreenenter"",""1"",""7688""
","
","","","1972.1000000000931","","","16","1331","603","w","elianto","#f73b6a7A"," "," ","1","0","[2822.100000000093]","1","3","","","1331","185","5","3","lose","go","0","0"
"pit-trial","253","1478460","0.0-191.0","battery-v0.2","","""event"",""trial"",""time""
""fullscreenenter"",""1"",""7688""
","
","
","""event"",""trial"",""time""
""fullscreenenter"",""1"",""7688""
","
","","","1667.5","","","16","1331","603","s","elianto","#3366ff99","-1"," ","0","0","[2521.8000000000466]","1","3","","","1331","186","6","2","win","no-go","0","0"
"pit-trial","254","1482457","0.0-192.0","battery-v0.2","","""event"",""trial"",""time""
""fullscreenenter"",""1"",""7688""
","
","
","""event"",""trial"",""time""
""fullscreenenter"",""1"",""7688""
","
","","","1134.6000000000931","","","16","1331","603","e","elianto","#f73b6a7A","-1"," ","0","0","[1989.3999999999069]","1","3","","","1331","187","4","4","lose","no-go","1","0"
"pit-trial","255","1486025","0.0-193.0","battery-v0.2","","""event"",""trial"",""time""
""fullscreenenter"",""1"",""7688""
","
","
","""event"",""trial"",""time""
""fullscreenenter"",""1"",""7688""
","
","","","709.8000000000466","","","16","1331","603","d","elianto","#3366ff99"," "," ","1","+10","[1560.5]","1","3","","","1331","188","2","1","win","go","0","0"
"pit-trial","256","1490884","0.0-194.0","battery-v0.2","","""event"",""trial"",""time""
""fullscreenenter"",""1"",""7688""
","
","
","""event"",""trial"",""time""
""fullscreenenter"",""1"",""7688""
","
","","","-1","","","16","1331","603","s","elianto","#3366ff99","-1","-1","1","0","[]","0","3","","","1331","189","6","2","win","no-go","1","0"
"pit-trial","257","1494881","0.0-195.0","battery-v0.2","","""event"",""trial"",""time""
""fullscreenenter"",""1"",""7688""
","
","
","""event"",""trial"",""time""
""fullscreenenter"",""1"",""7688""
","
","","","1137.3000000000466","","","16","1331","603","e","elianto","#f73b6a7A","-1"," ","0","0","[1987.8000000000466]","1","3","","","1331","190","4","4","lose","no-go","1","0"
"pit-trial","258","1498325","0.0-196.0","battery-v0.2","","""event"",""trial"",""time""
""fullscreenenter"",""1"",""7688""
","
","
","""event"",""trial"",""time""
""fullscreenenter"",""1"",""7688""
","
","","","585.5","","","16","1331","603","w","elianto","#f73b6a7A"," "," ","1","-10","[1435.8999999999069]","1","3","","","1331","191","5","3","lose","go","1","0"
"pit-trial","259","1503184","0.0-197.0","battery-v0.2","","""event"",""trial"",""time""
""fullscreenenter"",""1"",""7688""
","
","
","""event"",""trial"",""time""
""fullscreenenter"",""1"",""7688""
","
","","","-1","","","16","1331","603","p","elianto","#f73b6a7A","-1","-1","1","0","[]","0","3","","","1331","192","7","4","lose","no-go","0","0"
"pit-trial","260","1508044","0.0-198.0","battery-v0.2","","""event"",""trial"",""time""
""fullscreenenter"",""1"",""7688""
","
","
","""event"",""trial"",""time""
""fullscreenenter"",""1"",""7688""
","
","","","-1","","","16","1331","603","s","elianto","#3366ff99","-1","-1","1","+10","[]","0","3","","","1331","193","6","2","win","no-go","0","0"
"pit-trial","261","1512904","0.0-199.0","battery-v0.2","","""event"",""trial"",""time""
""fullscreenenter"",""1"",""7688""
","
","
","""event"",""trial"",""time""
""fullscreenenter"",""1"",""7688""
","
","","","-1","","","16","1331","603","p","elianto","#f73b6a7A","-1","-1","1","0","[]","0","3","","","1331","194","7","4","lose","no-go","0","0"
"pit-trial","262","1516845","0.0-200.0","battery-v0.2","","""event"",""trial"",""time""
""fullscreenenter"",""1"",""7688""
","
","
","""event"",""trial"",""time""
""fullscreenenter"",""1"",""7688""
","
","","","1081.3000000000466","","","16","1331","603","w","elianto","#f73b6a7A"," "," ","1","-10","[1931.5]","1","3","","","1331","195","5","3","lose","go","1","0"
"pit-trial","263","1520631","0.0-201.0","battery-v0.2","","""event"",""trial"",""time""
""fullscreenenter"",""1"",""7688""
","
","
","""event"",""trial"",""time""
""fullscreenenter"",""1"",""7688""
","
","","","922.1999999999534","","","16","1331","603","e","elianto","#f73b6a7A","-1"," ","0","-10","[1777.5]","1","3","","","1331","196","4","4","lose","no-go","0","0"
