"trial_type","trial_index","time_elapsed","internal_node_id","task_version","success","view_history","rt","responses","num_errors","rune","rune_set","hex","correct","choice","accuracy","outcome","keys","total_keys","block","practice","subject","participantId","value","sub","trial","stimulus","robot","valence","action","sham"
"pavlovia","0","16","0.0-0.0","battery-v0.2","","","","","","","","","","","","","","","","","","","","","","","","","",""
"fullscreen","1","2222","0.0-1.0","battery-v0.2","true","","","","","","","","","","","","","","","","","","","","","","","","",""
"pit-instructions","2","27875","0.0-2.0-0.0","battery-v0.2","","[{""page_index"":0,""viewing_time"":25649.800000071526}]","25650.100000023842","","","","","","","","","","","","","","","","","","","","","","",""
"pit-comprehension","3","39981","0.0-2.0-1.0-0.0","battery-v0.2","","","12101.100000023842","[""shark""]","0","","","","","","","","","","","","","","","","","","","","",""
"pit-instructions","4","41027","0.0-2.0-1.0-1.0","battery-v0.2","","[{""page_index"":0,""viewing_time"":1039.5999999046326}]","1039.7999999523163","","","","","","","","","","","","","","","","","","","","","","",""
"pit-comprehension","5","45629","0.0-2.0-2.0-0.0","battery-v0.2","","","4598.799999952316","[""tiger""]","0","","","","","","","","","","","","","","","","","","","","",""
"pit-instructions","6","47248","0.0-2.0-2.0-1.0","battery-v0.2","","[{""page_index"":0,""viewing_time"":1616.8999999761581}]","1617.2000000476837","","","","","","","","","","","","","","","","","","","","","","",""
"pit-instructions","7","597521","0.0-2.0-3.0","battery-v0.2","","[{""page_index"":0,""viewing_time"":67002.80000007153},{""page_index"":1,""viewing_time"":6232.899999976158},{""page_index"":2,""viewing_time"":6176.399999976158},{""page_index"":3,""viewing_time"":341760.10000002384},{""page_index"":4,""viewing_time"":8798.100000023842},{""page_index"":5,""viewing_time"":19175.899999976158},{""page_index"":6,""viewing_time"":11306.700000047684},{""page_index"":5,""viewing_time"":2294.899999976158},{""page_index"":4,""viewing_time"":4398.899999976158},{""page_index"":5,""viewing_time"":4635},{""page_index"":6,""viewing_time"":6491.600000023842},{""page_index"":7,""viewing_time"":6648.799999952316},{""page_index"":8,""viewing_time"":8336.399999976158},{""page_index"":9,""viewing_time"":8358.900000095367},{""page_index"":10,""viewing_time"":8134.099999904633},{""page_index"":11,""viewing_time"":13455},{""page_index"":12,""viewing_time"":12521.700000047684},{""page_index"":13,""viewing_time"":14524}]","550252.8000000715","","","","","","","","","","","","","","","","","","","","","","",""
"pit-trial","8","600773","0.0-2.0-4.0-0.0","battery-v0.2","","","394.89999997615814","","","&#9784;","elianto","#FFFFF080"," "," ","1","&#10004","[1245.8000000715256]","1","0","0","999&age=19&gender=f&participant_ID=888","888","","","","","","","",""
"pit-trial","9","603965","0.0-2.0-4.1-0.1","battery-v0.2","","","338.7999999523163","","","&#9784;","elianto","#FFFFF080"," "," ","1","&#10004","[525,1188.8999999761581]","2","0","0","999&age=19&gender=f&participant_ID=888","888","","","","","","","",""
"pit-trial","10","607624","0.0-2.0-4.2-0.2","battery-v0.2","","","802.2000000476837","","","&#9784;","elianto","#FFFFF080"," "," ","1","&#10004","[1653.3000000715256]","1","0","0","999&age=19&gender=f&participant_ID=888","888","","","","","","","",""
"pit-trial","11","610828","0.0-2.0-4.3-0.3","battery-v0.2","","","350.10000002384186","","","&#9784;","elianto","#FFFFF080"," "," ","1","&#10004","[1200.8999999761581]","1","0","0","999&age=19&gender=f&participant_ID=888","888","","","","","","","",""
"pit-trial","12","613979","0.0-2.0-4.4-0.4","battery-v0.2","","","294.60000002384186","","","&#9784;","elianto","#FFFFF080"," "," ","1","&#10004","[1146.5]","1","0","0","999&age=19&gender=f&participant_ID=888","888","","","","","","","",""
"pit-instructions","13","689009","0.0-2.0-5.0","battery-v0.2","","[{""page_index"":0,""viewing_time"":47529.59999990463},{""page_index"":1,""viewing_time"":7031.600000023842},{""page_index"":2,""viewing_time"":7998.600000023842},{""page_index"":3,""viewing_time"":12465.200000047684}]","75025.19999992847","","","","","","","","","","","","","","","","","","","","","","",""
"pit-trial","14","693868","0.0-2.0-6.0-0.0","battery-v0.2","","","-1","","","&#9854;","elianto","#FFFFF080","-1","-1","1","&#10004","[]","0","0","1","999&age=19&gender=f&participant_ID=888","888","","","","","","","",""
"pit-trial","15","698723","0.0-2.0-6.1-0.1","battery-v0.2","","","-1","","","&#9854;","elianto","#FFFFF080","-1","-1","1","&#10004","[]","0","0","1","999&age=19&gender=f&participant_ID=888","888","","","","","","","",""
"pit-trial","16","703577","0.0-2.0-6.2-0.2","battery-v0.2","","","-1","","","&#9854;","elianto","#FFFFF080","-1","-1","1","&#10004","[]","0","0","1","999&age=19&gender=f&participant_ID=888","888","","","","","","","",""
"pit-trial","17","708431","0.0-2.0-6.3-0.3","battery-v0.2","","","-1","","","&#9854;","elianto","#FFFFF080","-1","-1","1","&#10004","[]","0","0","1","999&age=19&gender=f&participant_ID=888","888","","","","","","","",""
"pit-trial","18","713288","0.0-2.0-6.4-0.4","battery-v0.2","","","-1","","","&#9854;","elianto","#FFFFF080","-1","-1","1","&#10004","[]","0","0","1","999&age=19&gender=f&participant_ID=888","888","","","","","","","",""
"pit-instructions","19","1097976","0.0-2.0-7.0","battery-v0.2","","[{""page_index"":0,""viewing_time"":11032.5},{""page_index"":1,""viewing_time"":9000.199999928474},{""page_index"":2,""viewing_time"":11047.600000023842},{""page_index"":3,""viewing_time"":8932.799999952316},{""page_index"":2,""viewing_time"":5907.600000023842},{""page_index"":3,""viewing_time"":10675.100000023842},{""page_index"":2,""viewing_time"":968},{""page_index"":3,""viewing_time"":5996},{""page_index"":4,""viewing_time"":6063.700000047684},{""page_index"":5,""viewing_time"":5163.899999976158},{""page_index"":4,""viewing_time"":56149.699999928474},{""page_index"":5,""viewing_time"":8010.100000023842},{""page_index"":6,""viewing_time"":5141.5},{""page_index"":7,""viewing_time"":8572.600000023842},{""page_index"":8,""viewing_time"":48905.299999952316},{""page_index"":9,""viewing_time"":5962.600000023842},{""page_index"":10,""viewing_time"":7695.300000071526},{""page_index"":11,""viewing_time"":4152.299999952316},{""page_index"":12,""viewing_time"":7660.200000047684},{""page_index"":13,""viewing_time"":10192.699999928474},{""page_index"":12,""viewing_time"":43088.10000002384},{""page_index"":13,""viewing_time"":9776.5},{""page_index"":14,""viewing_time"":17977.799999952316},{""page_index"":15,""viewing_time"":6840.100000023842},{""page_index"":14,""viewing_time"":6727.600000023842},{""page_index"":15,""viewing_time"":48893.299999952316},{""page_index"":16,""viewing_time"":6862.700000047684},{""page_index"":17,""viewing_time"":7278.899999976158}]","384674.89999997616","","","","","","","","","","","","","","","","","","","","","","",""
"pit-trial","20","1101270","0.0-2.0-8.0-0.0","battery-v0.2","","","440.90000009536743","","","&#9776;","elianto","#3366ff99"," "," ","1","+10","[1291.2999999523163]","1","0","1","999&age=19&gender=f&participant_ID=888","888","","","","","","","",""
"pit-trial","21","1104465","0.0-2.0-8.0-1.0","battery-v0.2","","","340.90000009536743","","","&#9776;","elianto","#3366ff99"," "," ","1","+10","[765.8999999761581,1193.3999999761581]","2","0","1","999&age=19&gender=f&participant_ID=888","888","","","","","","","",""
"pit-trial","22","1107605","0.0-2.0-8.0-2.0","battery-v0.2","","","286.1999999284744","","","&#9776;","elianto","#3366ff99"," "," ","1","+10","[698.1999999284744,1136.7999999523163]","2","0","1","999&age=19&gender=f&participant_ID=888","888","","","","","","","",""
"pit-trial","23","1110822","0.0-2.0-8.0-3.0","battery-v0.2","","","365.39999997615814","","","&#9776;","elianto","#3366ff99"," "," ","1","0","[1215.2999999523163,2734.0999999046326]","2","0","1","999&age=19&gender=f&participant_ID=888","888","","","","","","","",""
"pit-trial","24","1113705","0.0-2.0-8.0-4.0","battery-v0.2","","","27.399999976158142","","","&#9776;","elianto","#3366ff99"," "," ","1","+10","[879.6999999284744,2824.7999999523163]","2","0","1","999&age=19&gender=f&participant_ID=888","888","","","","","","","",""
"call-function","25","1113706","0.0-2.0-9.0","battery-v0.2","","","","","","","","","","","","","","","","","","","","","","","","","",""
"pit-instructions","26","1160541","0.0-2.0-10.0","battery-v0.2","","[{""page_index"":0,""viewing_time"":5611.899999976158},{""page_index"":1,""viewing_time"":7357.5},{""page_index"":2,""viewing_time"":10260.200000047684},{""page_index"":3,""viewing_time"":10294},{""page_index"":4,""viewing_time"":1867.5999999046326},{""page_index"":3,""viewing_time"":7155.100000023842},{""page_index"":4,""viewing_time"":4286.399999976158}]","46833","","","","","","","","","","","","","","","","","","","","","","",""
"pit-trial","27","1163927","0.0-2.0-11.0-0.0","battery-v0.2","","","531","","","&#9761;","elianto","#3366ff99","-1"," ","0","0","[1381.2000000476837]","1","0","2","999&age=19&gender=f&participant_ID=888","888","","","","","","","",""
"pit-trial","28","1166930","0.0-2.0-11.0-1.0","battery-v0.2","","","149.5","","","&#9761;","elianto","#3366ff99","-1"," ","0","0","[88.60000002384186,999.8999999761581]","2","0","2","999&age=19&gender=f&participant_ID=888","888","","","","","","","",""
"pit-trial","29","1170037","0.0-2.0-11.0-2.0","battery-v0.2","","","250.89999997615814","","","&#9761;","elianto","#3366ff99","-1"," ","0","0","[1101.2999999523163]","1","0","2","999&age=19&gender=f&participant_ID=888","888","","","","","","","",""
"pit-trial","30","1173230","0.0-2.0-11.0-3.0","battery-v0.2","","","340","","","&#9761;","elianto","#3366ff99","-1"," ","0","+10","[1190.2000000476837]","1","0","2","999&age=19&gender=f&participant_ID=888","888","","","","","","","",""
"pit-trial","31","1176423","0.0-2.0-11.0-4.0","battery-v0.2","","","341.2999999523163","","","&#9761;","elianto","#3366ff99","-1"," ","0","0","[1191.3999999761581]","1","0","2","999&age=19&gender=f&participant_ID=888","888","","","","","","","",""
"pit-trial","32","1179476","0.0-2.0-11.1-0.1","battery-v0.2","","","197","","","&#9761;","elianto","#3366ff99","-1"," ","0","0","[1046.9000000953674]","1","0","2","999&age=19&gender=f&participant_ID=888","888","","","","","","","",""
"pit-trial","33","1182626","0.0-2.0-11.1-1.1","battery-v0.2","","","294.60000002384186","","","&#9761;","elianto","#3366ff99","-1"," ","0","0","[1145.1000000238419]","1","0","2","999&age=19&gender=f&participant_ID=888","888","","","","","","","",""
"pit-trial","34","1185506","0.0-2.0-11.1-2.1","battery-v0.2","","","24.399999976158142","","","&#9761;","elianto","#3366ff99","-1"," ","0","0","[874.8000000715256]","1","0","2","999&age=19&gender=f&participant_ID=888","888","","","","","","","",""
"pit-trial","35","1188564","0.0-2.0-11.1-3.1","battery-v0.2","","","204.09999990463257","","","&#9761;","elianto","#3366ff99","-1"," ","0","+10","[1055.5]","1","0","2","999&age=19&gender=f&participant_ID=888","888","","","","","","","",""
"pit-trial","36","1191841","0.0-2.0-11.1-4.1","battery-v0.2","","","420.10000002384186","","","&#9761;","elianto","#3366ff99","-1"," ","0","0","[1270.6000000238419]","1","0","2","999&age=19&gender=f&participant_ID=888","888","","","","","","","",""
"pit-trial","37","1194811","0.0-2.0-11.2-0.2","battery-v0.2","","","113.89999997615814","","","&#9761;","elianto","#3366ff99","-1"," ","0","0","[964]","1","0","2","999&age=19&gender=f&participant_ID=888","888","","","","","","","",""
"pit-trial","38","1199444","0.0-2.0-11.2-1.2","battery-v0.2","","","1777.8999999761581","","","&#9761;","elianto","#3366ff99","-1"," ","0","0","[2629.7000000476837]","1","0","2","999&age=19&gender=f&participant_ID=888","888","","","","","","","",""
"pit-trial","39","1202526","0.0-2.0-11.2-2.2","battery-v0.2","","","227.10000002384186","","","&#9761;","elianto","#3366ff99","-1"," ","0","0","[1079.4000000953674,2822.9000000953674]","2","0","2","999&age=19&gender=f&participant_ID=888","888","","","","","","","",""
"pit-trial","40","1206375","0.0-2.0-11.2-3.2","battery-v0.2","","","992.7999999523163","","","&#9761;","elianto","#3366ff99","-1"," ","0","+10","[1844.1000000238419]","1","0","2","999&age=19&gender=f&participant_ID=888","888","","","","","","","",""
"pit-trial","41","1209538","0.0-2.0-11.2-4.2","battery-v0.2","","","305.7999999523163","","","&#9761;","elianto","#3366ff99","-1"," ","0","0","[448,1156.7999999523163]","2","0","2","999&age=19&gender=f&participant_ID=888","888","","","","","","","",""
"pit-trial","42","1214392","0.0-2.0-11.3-0.3","battery-v0.2","","","-1","","","&#9761;","elianto","#3366ff99","-1","-1","1","+10","[580.8999999761581]","1","0","2","999&age=19&gender=f&participant_ID=888","888","","","","","","","",""
"pit-trial","43","1217782","0.0-2.0-11.3-1.3","battery-v0.2","","","536.2000000476837","","","&#9761;","elianto","#3366ff99","-1"," ","0","0","[1386.2999999523163]","1","0","2","999&age=19&gender=f&participant_ID=888","888","","","","","","","",""
"pit-trial","44","1220900","0.0-2.0-11.3-2.3","battery-v0.2","","","261.5","","","&#9761;","elianto","#3366ff99","-1"," ","0","0","[1112.7000000476837]","1","0","2","999&age=19&gender=f&participant_ID=888","888","","","","","","","",""
"pit-trial","45","1224243","0.0-2.0-11.3-3.3","battery-v0.2","","","484.90000009536743","","","&#9761;","elianto","#3366ff99","-1"," ","0","+10","[1336.7000000476837]","1","0","2","999&age=19&gender=f&participant_ID=888","888","","","","","","","",""
"pit-trial","46","1227413","0.0-2.0-11.3-4.3","battery-v0.2","","","315.5","","","&#9761;","elianto","#3366ff99","-1"," ","0","0","[1166.3999999761581]","1","0","2","999&age=19&gender=f&participant_ID=888","888","","","","","","","",""
"pit-trial","47","1230577","0.0-2.0-11.4-0.4","battery-v0.2","","","306.89999997615814","","","&#9761;","elianto","#3366ff99","-1"," ","0","0","[1157]","1","0","2","999&age=19&gender=f&participant_ID=888","888","","","","","","","",""
"pit-trial","48","1234390","0.0-2.0-11.4-1.4","battery-v0.2","","","957.1000000238419","","","&#9761;","elianto","#3366ff99","-1"," ","0","0","[1807.7999999523163]","1","0","2","999&age=19&gender=f&participant_ID=888","888","","","","","","","",""
"pit-trial","49","1237482","0.0-2.0-11.4-2.4","battery-v0.2","","","238.29999995231628","","","&#9761;","elianto","#3366ff99","-1"," ","0","0","[98.69999992847443,1088.6000000238419]","2","0","2","999&age=19&gender=f&participant_ID=888","888","","","","","","","",""
"pit-trial","50","1240800","0.0-2.0-11.4-3.4","battery-v0.2","","","465.60000002384186","","","&#9761;","elianto","#3366ff99","-1"," ","0","+10","[1315.7000000476837]","1","0","2","999&age=19&gender=f&participant_ID=888","888","","","","","","","",""
"pit-trial","51","1245113","0.0-2.0-11.4-4.4","battery-v0.2","","","1456","","","&#9761;","elianto","#3366ff99","-1"," ","0","0","[2306.600000023842]","1","0","2","999&age=19&gender=f&participant_ID=888","888","","","","","","","",""
"pit-instructions","52","1273934","0.0-2.0-11.4-5.4-0.4","battery-v0.2","","[{""page_index"":0,""viewing_time"":13958.299999952316},{""page_index"":1,""viewing_time"":6187.600000023842},{""page_index"":2,""viewing_time"":8673.899999976158}]","28820.100000023842","","","","","","","","","","","","","","","","","","","","","","",""
"pit-trial","53","1277666","0.0-2.0-11.5-0.5","battery-v0.2","","","878.5","","","&#9761;","elianto","#3366ff99","-1"," ","0","0","[1729.8999999761581]","1","0","2","999&age=19&gender=f&participant_ID=888","888","","","","","","","",""
"pit-trial","54","1282520","0.0-2.0-11.5-1.5","battery-v0.2","","","-1","","","&#9761;","elianto","#3366ff99","-1","-1","1","+10","[]","0","0","2","999&age=19&gender=f&participant_ID=888","888","","","","","","","",""
"pit-trial","55","1287378","0.0-2.0-11.5-2.5","battery-v0.2","","","-1","","","&#9761;","elianto","#3366ff99","-1","-1","1","+10","[]","0","0","2","999&age=19&gender=f&participant_ID=888","888","","","","","","","",""
"pit-trial","56","1292235","0.0-2.0-11.5-3.5","battery-v0.2","","","-1","","","&#9761;","elianto","#3366ff99","-1","-1","1","0","[]","0","0","2","999&age=19&gender=f&participant_ID=888","888","","","","","","","",""
"pit-trial","57","1297089","0.0-2.0-11.5-4.5","battery-v0.2","","","-1","","","&#9761;","elianto","#3366ff99","-1","-1","1","+10","[]","0","0","2","999&age=19&gender=f&participant_ID=888","888","","","","","","","",""
"call-function","58","1297090","0.0-2.0-12.0","battery-v0.2","","","","","","","","","","","","","","","","","","","","","","","","","",""
"pit-instructions","59","1359211","0.0-2.0-13.0","battery-v0.2","","[{""page_index"":0,""viewing_time"":7580.100000023842},{""page_index"":1,""viewing_time"":19811.300000071526},{""page_index"":2,""viewing_time"":12172.399999976158},{""page_index"":3,""viewing_time"":15862.799999952316},{""page_index"":4,""viewing_time"":6692.700000047684}]","62119.60000002384","","","","","","","","","","","","","","","","","","","","","","",""
"pit-trial","60","1363036","0.0-2.0-14.0-0.0","battery-v0.2","","","971.1999999284744","","","&#9826;","elianto","#f73b6a7A","-1"," ","0","-10","[1821.6999999284744]","1","0","3","999&age=19&gender=f&participant_ID=888","888","","","","","","","",""
"pit-trial","61","1366223","0.0-2.0-14.0-1.0","battery-v0.2","","","331","","","&#9826;","elianto","#f73b6a7A","-1"," ","0","-10","[732,1181]","2","0","3","999&age=19&gender=f&participant_ID=888","888","","","","","","","",""
"pit-trial","62","1371080","0.0-2.0-14.0-2.0","battery-v0.2","","","-1","","","&#9826;","elianto","#f73b6a7A","-1","-1","1","0","[]","0","0","3","999&age=19&gender=f&participant_ID=888","888","","","","","","","",""
"pit-trial","63","1375937","0.0-2.0-14.0-3.0","battery-v0.2","","","-1","","","&#9826;","elianto","#f73b6a7A","-1","-1","1","-10","[]","0","0","3","999&age=19&gender=f&participant_ID=888","888","","","","","","","",""
"pit-trial","64","1380795","0.0-2.0-14.0-4.0","battery-v0.2","","","-1","","","&#9826;","elianto","#f73b6a7A","-1","-1","1","0","[]","0","0","3","999&age=19&gender=f&participant_ID=888","888","","","","","","","",""
"pit-trial","65","1385650","0.0-2.0-14.1-0.1","battery-v0.2","","","-1","","","&#9826;","elianto","#f73b6a7A","-1","-1","1","0","[]","0","0","3","999&age=19&gender=f&participant_ID=888","888","","","","","","","",""
"pit-trial","66","1390506","0.0-2.0-14.1-1.1","battery-v0.2","","","-1","","","&#9826;","elianto","#f73b6a7A","-1","-1","1","0","[]","0","0","3","999&age=19&gender=f&participant_ID=888","888","","","","","","","",""
"pit-trial","67","1395365","0.0-2.0-14.1-2.1","battery-v0.2","","","-1","","","&#9826;","elianto","#f73b6a7A","-1","-1","1","0","[4008.9000000953674]","1","0","3","999&age=19&gender=f&participant_ID=888","888","","","","","","","",""
"pit-trial","68","1398488","0.0-2.0-14.1-3.1","battery-v0.2","","","268","","","&#9826;","elianto","#f73b6a7A","-1"," ","0","0","[657.3999999761581,1118.6000000238419]","2","0","3","999&age=19&gender=f&participant_ID=888","888","","","","","","","",""
"pit-trial","69","1401669","0.0-2.0-14.1-4.1","battery-v0.2","","","327.2999999523163","","","&#9826;","elianto","#f73b6a7A","-1"," ","0","-10","[1179.3999999761581]","1","0","3","999&age=19&gender=f&participant_ID=888","888","","","","","","","",""
"pit-trial","70","1406528","0.0-2.0-14.2-0.2","battery-v0.2","","","-1","","","&#9826;","elianto","#f73b6a7A","-1","-1","1","0","[]","0","0","3","999&age=19&gender=f&participant_ID=888","888","","","","","","","",""
"pit-trial","71","1411387","0.0-2.0-14.2-1.2","battery-v0.2","","","-1","","","&#9826;","elianto","#f73b6a7A","-1","-1","1","0","[]","0","0","3","999&age=19&gender=f&participant_ID=888","888","","","","","","","",""
"pit-trial","72","1416246","0.0-2.0-14.2-2.2","battery-v0.2","","","-1","","","&#9826;","elianto","#f73b6a7A","-1","-1","1","0","[]","0","0","3","999&age=19&gender=f&participant_ID=888","888","","","","","","","",""
"pit-trial","73","1421099","0.0-2.0-14.2-3.2","battery-v0.2","","","-1","","","&#9826;","elianto","#f73b6a7A","-1","-1","1","-10","[]","0","0","3","999&age=19&gender=f&participant_ID=888","888","","","","","","","",""
"pit-trial","74","1425956","0.0-2.0-14.2-4.2","battery-v0.2","","","-1","","","&#9826;","elianto","#f73b6a7A","-1","-1","1","0","[]","0","0","3","999&age=19&gender=f&participant_ID=888","888","","","","","","","",""
"call-function","75","1425957","0.0-2.0-15.0","battery-v0.2","","","","","","","","","","","","","","","","","","","","","","","","","",""
"pit-instructions","76","1472967","0.0-2.0-16.0","battery-v0.2","","[{""page_index"":0,""viewing_time"":10186.200000047684},{""page_index"":1,""viewing_time"":4725},{""page_index"":0,""viewing_time"":6547.699999928474},{""page_index"":1,""viewing_time"":11137.600000023842},{""page_index"":2,""viewing_time"":6952.399999976158},{""page_index"":3,""viewing_time"":7459.200000047684}]","47008.5","","","","","","","","","","","","","","","","","","","","","","",""
"pit-trial","77","1477184","0.0-2.0-17.0-0.0","battery-v0.2","","","1364","","","&#9789;","elianto","#f73b6a7A"," "," ","1","0","[2213.6999999284744]","1","0","4","999&age=19&gender=f&participant_ID=888","888","","","","","","","",""
"pit-trial","78","1482044","0.0-2.0-17.0-1.0","battery-v0.2","","","-1","","","&#9789;","elianto","#f73b6a7A"," ","-1","0","-10","[]","0","0","4","999&age=19&gender=f&participant_ID=888","888","","","","","","","",""
"pit-trial","79","1485240","0.0-2.0-17.0-2.0","battery-v0.2","","","343","","","&#9789;","elianto","#f73b6a7A"," "," ","1","0","[1193.2999999523163]","1","0","4","999&age=19&gender=f&participant_ID=888","888","","","","","","","",""
"pit-trial","80","1488840","0.0-2.0-17.0-3.0","battery-v0.2","","","745.6000000238419","","","&#9789;","elianto","#f73b6a7A"," "," ","1","-10","[1597]","1","0","4","999&age=19&gender=f&participant_ID=888","888","","","","","","","",""
"pit-trial","81","1491861","0.0-2.0-17.0-4.0","battery-v0.2","","","164.19999992847443","","","&#9789;","elianto","#f73b6a7A"," "," ","1","0","[1014.6999999284744]","1","0","4","999&age=19&gender=f&participant_ID=888","888","","","","","","","",""
"pit-trial","82","1496720","0.0-2.0-17.1-0.1","battery-v0.2","","","-1","","","&#9789;","elianto","#f73b6a7A"," ","-1","0","-10","[679.6000000238419,3008.4000000953674]","2","0","4","999&age=19&gender=f&participant_ID=888","888","","","","","","","",""
"pit-trial","83","1501573","0.0-2.0-17.1-1.1","battery-v0.2","","","-1","","","&#9789;","elianto","#f73b6a7A"," ","-1","0","-10","[3617.1999999284744]","1","0","4","999&age=19&gender=f&participant_ID=888","888","","","","","","","",""
"pit-trial","84","1506431","0.0-2.0-17.1-2.1","battery-v0.2","","","-1","","","&#9789;","elianto","#f73b6a7A"," ","-1","0","-10","[4457.399999976158]","1","0","4","999&age=19&gender=f&participant_ID=888","888","","","","","","","",""
"pit-trial","85","1509450","0.0-2.0-17.1-3.1","battery-v0.2","","","167.10000002384186","","","&#9789;","elianto","#f73b6a7A"," "," ","1","-10","[1017.1000000238419,1533.8999999761581]","2","0","4","999&age=19&gender=f&participant_ID=888","888","","","","","","","",""
"pit-trial","86","1512434","0.0-2.0-17.1-4.1","battery-v0.2","","","128","","","&#9789;","elianto","#f73b6a7A"," "," ","1","0","[979.5999999046326]","1","0","4","999&age=19&gender=f&participant_ID=888","888","","","","","","","",""
"pit-trial","87","1515417","0.0-2.0-17.2-0.2","battery-v0.2","","","124.89999997615814","","","&#9789;","elianto","#f73b6a7A"," "," ","1","0","[976.0999999046326]","1","0","4","999&age=19&gender=f&participant_ID=888","888","","","","","","","",""
"pit-trial","88","1518529","0.0-2.0-17.2-1.2","battery-v0.2","","","259.89999997615814","","","&#9789;","elianto","#f73b6a7A"," "," ","1","0","[1110]","1","0","4","999&age=19&gender=f&participant_ID=888","888","","","","","","","",""
"pit-trial","89","1521571","0.0-2.0-17.2-2.2","battery-v0.2","","","185.39999997615814","","","&#9789;","elianto","#f73b6a7A"," "," ","1","0","[1035.7999999523163]","1","0","4","999&age=19&gender=f&participant_ID=888","888","","","","","","","",""
"pit-trial","90","1524637","0.0-2.0-17.2-3.2","battery-v0.2","","","212.70000004768372","","","&#9789;","elianto","#f73b6a7A"," "," ","1","-10","[1065.2000000476837]","1","0","4","999&age=19&gender=f&participant_ID=888","888","","","","","","","",""
"pit-trial","91","1527689","0.0-2.0-17.2-4.2","battery-v0.2","","","196.5","","","&#9789;","elianto","#f73b6a7A"," "," ","1","0","[1047.5]","1","0","4","999&age=19&gender=f&participant_ID=888","888","","","","","","","",""
"call-function","92","1527690","0.0-2.0-18.0","battery-v0.2","","","","","","","","","","","","","","","","","","","","","","","","","",""
"pit-instructions","93","1642974","0.0-2.0-19.0","battery-v0.2","","[{""page_index"":0,""viewing_time"":6557.5},{""page_index"":1,""viewing_time"":48116.89999997616},{""page_index"":2,""viewing_time"":14063},{""page_index"":3,""viewing_time"":7402.600000023842},{""page_index"":4,""viewing_time"":10428.899999976158},{""page_index"":5,""viewing_time"":9337.800000071526},{""page_index"":6,""viewing_time"":9270.100000023842},{""page_index"":7,""viewing_time"":6311.299999952316},{""page_index"":8,""viewing_time"":3791.2999999523163}]","115279.70000004768","","","","","","","","","","","","","","","","","","","","","","",""
"pit-comprehension","94","1648915","0.0-2.0-20.0-0.0","battery-v0.2","","","5938.200000047684","[""UP""]","1","","","","","","","","","","","","","","","","","","","","",""
"pit-instructions","95","1652627","0.0-2.0-20.0-1.0","battery-v0.2","","[{""page_index"":0,""viewing_time"":3693.399999976158}]","3693.6999999284744","","","","","","","","","","","","","","","","","","","","","","",""
"pit-instructions","96","1656666","0.0-2.0-20.0-2.0-0.0","battery-v0.2","","[{""page_index"":0,""viewing_time"":4037.600000023842}]","4037.8000000715256","","","","","","","","","","","","","","","","","","","","","","",""
"pit-comprehension","97","1661110","0.0-2.0-20.1-0.1","battery-v0.2","","","4441.700000047684","[""SPACE""]","0","","","","","","","","","","","","","","","","","","","","",""
"pit-instructions","98","1668130","0.0-2.0-20.1-1.1","battery-v0.2","","[{""page_index"":0,""viewing_time"":7001.200000047684}]","7001.399999976158","","","","","","","","","","","","","","","","","","","","","","",""
"pit-comprehension","99","1674656","0.0-2.0-21.0-0.0","battery-v0.2","","","6522.5","[""-10""]","1","","","","","","","","","","","","","","","","","","","","",""
"pit-instructions","100","1678615","0.0-2.0-21.0-1.0","battery-v0.2","","[{""page_index"":0,""viewing_time"":3941.7000000476837}]","3941.9000000953674","","","","","","","","","","","","","","","","","","","","","","",""
"pit-instructions","101","1683172","0.0-2.0-21.0-2.0-0.0","battery-v0.2","","[{""page_index"":0,""viewing_time"":4554.699999928474}]","4555","","","","","","","","","","","","","","","","","","","","","","",""
"pit-comprehension","102","1690001","0.0-2.0-21.1-0.1","battery-v0.2","","","6826.299999952316","[""10""]","0","","","","","","","","","","","","","","","","","","","","",""
"pit-instructions","103","1691666","0.0-2.0-21.1-1.1","battery-v0.2","","[{""page_index"":0,""viewing_time"":1646.2000000476837}]","1646.3999999761581","","","","","","","","","","","","","","","","","","","","","","",""
"pit-comprehension","104","1698124","0.0-2.0-22.0-0.0","battery-v0.2","","","6455","[""0""]","0","","","","","","","","","","","","","","","","","","","","",""
"pit-instructions","105","1702500","0.0-2.0-22.0-1.0","battery-v0.2","","[{""page_index"":0,""viewing_time"":4357.399999976158}]","4357.600000023842","","","","","","","","","","","","","","","","","","","","","","",""
"pit-comprehension","106","1717531","0.0-2.0-23.0-0.0","battery-v0.2","","","15027.399999976158","[""False""]","1","","","","","","","","","","","","","","","","","","","","",""
"pit-instructions","107","1723618","0.0-2.0-23.0-1.0","battery-v0.2","","[{""page_index"":0,""viewing_time"":6068}]","6068.200000047684","","","","","","","","","","","","","","","","","","","","","","",""
"pit-instructions","108","1724653","0.0-2.0-23.0-2.0-0.0","battery-v0.2","","[{""page_index"":0,""viewing_time"":1033.2999999523163}]","1033.5","","","","","","","","","","","","","","","","","","","","","","",""
"pit-comprehension","109","1733316","0.0-2.0-23.1-0.1","battery-v0.2","","","8661","[""True""]","0","","","","","","","","","","","","","","","","","","","","",""
"pit-instructions","110","1734834","0.0-2.0-23.1-1.1","battery-v0.2","","[{""page_index"":0,""viewing_time"":1499.7000000476837}]","1500","","","","","","","","","","","","","","","","","","","","","","",""
"pit-comprehension","111","1768879","0.0-2.0-24.0-0.0","battery-v0.2","","","34040.700000047684","[""False""]","1","","","","","","","","","","","","","","","","","","","","",""
"pit-instructions","112","1864788","0.0-2.0-24.0-1.0","battery-v0.2","","[{""page_index"":0,""viewing_time"":95887.39999997616}]","95887.60000002384","","","","","","","","","","","","","","","","","","","","","","",""
"pit-instructions","113","1865654","0.0-2.0-24.0-2.0-0.0","battery-v0.2","","[{""page_index"":0,""viewing_time"":865}]","865.2000000476837","","","","","","","","","","","","","","","","","","","","","","",""
"pit-comprehension","114","1891328","0.0-2.0-24.1-0.1","battery-v0.2","","","25671.399999976158","[""True""]","0","","","","","","","","","","","","","","","","","","","","",""
"pit-instructions","115","1896535","0.0-2.0-24.1-1.1","battery-v0.2","","[{""page_index"":0,""viewing_time"":5188.299999952316}]","5188.5","","","","","","","","","","","","","","","","","","","","","","",""
"pit-comprehension","116","1903264","0.0-2.0-25.0-0.0","battery-v0.2","","","6726.200000047684","[""False""]","1","","","","","","","","","","","","","","","","","","","","",""
"pit-instructions","117","1989740","0.0-2.0-25.0-1.0","battery-v0.2","","[{""page_index"":0,""viewing_time"":86454.30000007153}]","86454.5","","","","","","","","","","","","","","","","","","","","","","",""
"pit-instructions","118","1990433","0.0-2.0-25.0-2.0-0.0","battery-v0.2","","[{""page_index"":0,""viewing_time"":691}]","691.2000000476837","","","","","","","","","","","","","","","","","","","","","","",""
"pit-comprehension","119","1998173","0.0-2.0-25.1-0.1","battery-v0.2","","","7738.5","[""True""]","0","","","","","","","","","","","","","","","","","","","","",""
"pit-instructions","120","1999804","0.0-2.0-25.1-1.1","battery-v0.2","","[{""page_index"":0,""viewing_time"":1612.1000000238419}]","1612.3999999761581","","","","","","","","","","","","","","","","","","","","","","",""
"pit-comprehension","121","2004867","0.0-2.0-26.0-0.0","battery-v0.2","","","5060.399999976158","[""False""]","0","","","","","","","","","","","","","","","","","","","","",""
"pit-instructions","122","2007646","0.0-2.0-26.0-1.0","battery-v0.2","","[{""page_index"":0,""viewing_time"":2758.399999976158}]","2758.600000023842","","","","","","","","","","","","","","","","","","","","","","",""
"pit-instructions","123","2025703","0.0-3.0","battery-v0.2","","[{""page_index"":0,""viewing_time"":6051.100000023842},{""page_index"":1,""viewing_time"":5388.799999952316},{""page_index"":2,""viewing_time"":6615.200000047684}]","18055.299999952316","","","","","","","","","","","","","","","","","","","","","","",""
"pit-trial","124","2030561","0.0-4.0","battery-v0.2","","","-1","","","&#9730;","elianto","#3366ff99"," ","-1","0","0","[]","0","1","","","","","999&age=19&gender=f&participant_ID=888","1","1","1","win","go","0"
"pit-trial","125","2035416","0.0-5.0","battery-v0.2","","","-1","","","&#9733;","elianto","#3366ff99","-1","-1","1","0","[]","0","1","","","","","999&age=19&gender=f&participant_ID=888","2","2","2","win","no-go","1"
"pit-trial","126","2040276","0.0-6.0","battery-v0.2","","","-1","","","&#9728;","elianto","#f73b6a7A","-1","-1","1","0","[]","0","1","","","","","999&age=19&gender=f&participant_ID=888","3","0","4","lose","no-go","0"
"pit-trial","127","2045131","0.0-7.0","battery-v0.2","","","-1","","","&#9752;","elianto","#f73b6a7A"," ","-1","0","-10","[]","0","1","","","","","999&age=19&gender=f&participant_ID=888","4","3","3","lose","go","0"
"pit-trial","128","2049986","0.0-8.0","battery-v0.2","","","-1","","","&#9728;","elianto","#f73b6a7A","-1","-1","1","-10","[]","0","1","","","","","999&age=19&gender=f&participant_ID=888","5","0","4","lose","no-go","1"
"pit-trial","129","2054842","0.0-9.0","battery-v0.2","","","-1","","","&#9733;","elianto","#3366ff99","-1","-1","1","+10","[]","0","1","","","","","999&age=19&gender=f&participant_ID=888","6","2","2","win","no-go","0"
"pit-trial","130","2059698","0.0-10.0","battery-v0.2","","","-1","","","&#9730;","elianto","#3366ff99"," ","-1","0","+10","[]","0","1","","","","","999&age=19&gender=f&participant_ID=888","7","1","1","win","go","1"
"pit-trial","131","2064557","0.0-11.0","battery-v0.2","","","-1","","","&#9752;","elianto","#f73b6a7A"," ","-1","0","0","[]","0","1","","","","","999&age=19&gender=f&participant_ID=888","8","3","3","lose","go","1"
"pit-trial","132","2069416","0.0-12.0","battery-v0.2","","","-1","","","&#9733;","elianto","#3366ff99","-1","-1","1","+10","[]","0","1","","","","","999&age=19&gender=f&participant_ID=888","9","2","2","win","no-go","0"
"pit-trial","133","2074275","0.0-13.0","battery-v0.2","","","-1","","","&#9728;","elianto","#f73b6a7A","-1","-1","1","0","[]","0","1","","","","","999&age=19&gender=f&participant_ID=888","10","0","4","lose","no-go","0"
"pit-trial","134","2079130","0.0-14.0","battery-v0.2","","","-1","","","&#9730;","elianto","#3366ff99"," ","-1","0","0","[]","0","1","","","","","999&age=19&gender=f&participant_ID=888","11","1","1","win","go","0"
"pit-trial","135","2083987","0.0-15.0","battery-v0.2","","","-1","","","&#9752;","elianto","#f73b6a7A"," ","-1","0","-10","[]","0","1","","","","","999&age=19&gender=f&participant_ID=888","12","3","3","lose","go","0"
"pit-trial","136","2088846","0.0-16.0","battery-v0.2","","","-1","","","&#9728;","elianto","#f73b6a7A","-1","-1","1","0","[]","0","1","","","","","999&age=19&gender=f&participant_ID=888","13","0","4","lose","no-go","0"
"pit-trial","137","2093705","0.0-17.0","battery-v0.2","","","-1","","","&#9752;","elianto","#f73b6a7A"," ","-1","0","-10","[]","0","1","","","","","999&age=19&gender=f&participant_ID=888","14","3","3","lose","go","0"
"pit-trial","138","2098558","0.0-18.0","battery-v0.2","","","-1","","","&#9730;","elianto","#3366ff99"," ","-1","0","0","[]","0","1","","","","","999&age=19&gender=f&participant_ID=888","15","1","1","win","go","0"
"pit-trial","139","2103417","0.0-19.0","battery-v0.2","","","-1","","","&#9733;","elianto","#3366ff99","-1","-1","1","+10","[]","0","1","","","","","999&age=19&gender=f&participant_ID=888","16","2","2","win","no-go","0"
"pit-trial","140","2108276","0.0-20.0","battery-v0.2","","","-1","","","&#9752;","elianto","#f73b6a7A"," ","-1","0","-10","[]","0","1","","","","","999&age=19&gender=f&participant_ID=888","17","3","3","lose","go","0"
"pit-trial","141","2113135","0.0-21.0","battery-v0.2","","","-1","","","&#9728;","elianto","#f73b6a7A","-1","-1","1","0","[]","0","1","","","","","999&age=19&gender=f&participant_ID=888","18","0","4","lose","no-go","0"
"pit-trial","142","2117994","0.0-22.0","battery-v0.2","","","-1","","","&#9733;","elianto","#3366ff99","-1","-1","1","0","[]","0","1","","","","","999&age=19&gender=f&participant_ID=888","19","2","2","win","no-go","1"
"pit-trial","143","2122853","0.0-23.0","battery-v0.2","","","-1","","","&#9730;","elianto","#3366ff99"," ","-1","0","+10","[]","0","1","","","","","999&age=19&gender=f&participant_ID=888","20","1","1","win","go","1"
"pit-instructions","144","2143541","0.0-24.0","battery-v0.2","","[{""page_index"":0,""viewing_time"":13542.199999928474},{""page_index"":1,""viewing_time"":7144}]","20686.5","","","","","","","","","","","","","","","","","","","","","","",""
"pit-trial","145","2148400","0.0-25.0","battery-v0.2","","","-1","","","u","elianto","#3366ff99","-1","-1","1","+10","[]","0","2","","","","","999&age=19&gender=f&participant_ID=888","21","0","2","win","no-go","0"
"pit-trial","146","2153256","0.0-26.0","battery-v0.2","","","-1","","","l","elianto","#f73b6a7A"," ","-1","0","-10","[]","0","2","","","","","999&age=19&gender=f&participant_ID=888","22","1","3","lose","go","0"
"pit-trial","147","2158108","0.0-27.0","battery-v0.2","","","-1","","","g","elianto","#3366ff99"," ","-1","0","0","[]","0","2","","","","","999&age=19&gender=f&participant_ID=888","23","3","1","win","go","0"
"pit-trial","148","2162966","0.0-28.0","battery-v0.2","","","-1","","","a","elianto","#f73b6a7A","-1","-1","1","0","[]","0","2","","","","","999&age=19&gender=f&participant_ID=888","24","2","4","lose","no-go","0"
"pit-trial","149","2167823","0.0-29.0","battery-v0.2","","","-1","","","l","elianto","#f73b6a7A"," ","-1","0","-10","[]","0","2","","","","","999&age=19&gender=f&participant_ID=888","25","1","3","lose","go","0"
"pit-trial","150","2172677","0.0-30.0","battery-v0.2","","","-1","","","g","elianto","#3366ff99"," ","-1","0","0","[]","0","2","","","","","999&age=19&gender=f&participant_ID=888","26","3","1","win","go","0"
"pit-trial","151","2177533","0.0-31.0","battery-v0.2","","","-1","","","a","elianto","#f73b6a7A","-1","-1","1","0","[]","0","2","","","","","999&age=19&gender=f&participant_ID=888","27","2","4","lose","no-go","0"
"pit-trial","152","2182392","0.0-32.0","battery-v0.2","","","-1","","","u","elianto","#3366ff99","-1","-1","1","+10","[]","0","2","","","","","999&age=19&gender=f&participant_ID=888","28","0","2","win","no-go","0"
"pit-trial","153","2187250","0.0-33.0","battery-v0.2","","","-1","","","g","elianto","#3366ff99"," ","-1","0","0","[]","0","2","","","","","999&age=19&gender=f&participant_ID=888","29","3","1","win","go","0"
"pit-trial","154","2192109","0.0-34.0","battery-v0.2","","","-1","","","l","elianto","#f73b6a7A"," ","-1","0","0","[]","0","2","","","","","999&age=19&gender=f&participant_ID=888","30","1","3","lose","go","1"
"pit-trial","155","2196968","0.0-35.0","battery-v0.2","","","-1","","","a","elianto","#f73b6a7A","-1","-1","1","0","[]","0","2","","","","","999&age=19&gender=f&participant_ID=888","31","2","4","lose","no-go","0"
"pit-trial","156","2201823","0.0-36.0","battery-v0.2","","","-1","","","u","elianto","#3366ff99","-1","-1","1","0","[]","0","2","","","","","999&age=19&gender=f&participant_ID=888","32","0","2","win","no-go","1"
"pit-trial","157","2206680","0.0-37.0","battery-v0.2","","","-1","","","u","elianto","#3366ff99","-1","-1","1","+10","[]","0","2","","","","","999&age=19&gender=f&participant_ID=888","33","0","2","win","no-go","0"
"pit-trial","158","2211539","0.0-38.0","battery-v0.2","","","-1","","","a","elianto","#f73b6a7A","-1","-1","1","0","[]","0","2","","","","","999&age=19&gender=f&participant_ID=888","34","2","4","lose","no-go","0"
"pit-trial","159","2216398","0.0-39.0","battery-v0.2","","","-1","","","l","elianto","#f73b6a7A"," ","-1","0","-10","[]","0","2","","","","","999&age=19&gender=f&participant_ID=888","35","1","3","lose","go","0"
"pit-trial","160","2221258","0.0-40.0","battery-v0.2","","","-1","","","g","elianto","#3366ff99"," ","-1","0","0","[]","0","2","","","","","999&age=19&gender=f&participant_ID=888","36","3","1","win","go","0"
"pit-trial","161","2226116","0.0-41.0","battery-v0.2","","","-1","","","u","elianto","#3366ff99","-1","-1","1","+10","[]","0","2","","","","","999&age=19&gender=f&participant_ID=888","37","0","2","win","no-go","0"
"pit-trial","162","2230969","0.0-42.0","battery-v0.2","","","-1","","","l","elianto","#f73b6a7A"," ","-1","0","-10","[]","0","2","","","","","999&age=19&gender=f&participant_ID=888","38","1","3","lose","go","0"
"pit-trial","163","2235828","0.0-43.0","battery-v0.2","","","-1","","","a","elianto","#f73b6a7A","-1","-1","1","0","[]","0","2","","","","","999&age=19&gender=f&participant_ID=888","39","2","4","lose","no-go","0"
"pit-trial","164","2240681","0.0-44.0","battery-v0.2","","","-1","","","g","elianto","#3366ff99"," ","-1","0","0","[]","0","2","","","","","999&age=19&gender=f&participant_ID=888","40","3","1","win","go","0"
"pit-trial","165","2245540","0.0-45.0","battery-v0.2","","","-1","","","g","elianto","#3366ff99"," ","-1","0","0","[]","0","2","","","","","999&age=19&gender=f&participant_ID=888","41","3","1","win","go","0"
"pit-trial","166","2250399","0.0-46.0","battery-v0.2","","","-1","","","u","elianto","#3366ff99","-1","-1","1","+10","[]","0","2","","","","","999&age=19&gender=f&participant_ID=888","42","0","2","win","no-go","0"
"pit-trial","167","2255255","0.0-47.0","battery-v0.2","","","-1","","","l","elianto","#f73b6a7A"," ","-1","0","-10","[]","0","2","","","","","999&age=19&gender=f&participant_ID=888","43","1","3","lose","go","0"
"pit-trial","168","2260111","0.0-48.0","battery-v0.2","","","-1","","","a","elianto","#f73b6a7A","-1","-1","1","-10","[]","0","2","","","","","999&age=19&gender=f&participant_ID=888","44","2","4","lose","no-go","1"
"pit-trial","169","2264970","0.0-49.0","battery-v0.2","","","-1","","","a","elianto","#f73b6a7A","-1","-1","1","0","[]","0","2","","","","","999&age=19&gender=f&participant_ID=888","45","2","4","lose","no-go","0"
"pit-trial","170","2269829","0.0-50.0","battery-v0.2","","","-1","","","u","elianto","#3366ff99","-1","-1","1","+10","[]","0","2","","","","","999&age=19&gender=f&participant_ID=888","46","0","2","win","no-go","0"
"pit-trial","171","2274688","0.0-51.0","battery-v0.2","","","-1","","","g","elianto","#3366ff99"," ","-1","0","0","[]","0","2","","","","","999&age=19&gender=f&participant_ID=888","47","3","1","win","go","0"
"pit-trial","172","2279546","0.0-52.0","battery-v0.2","","","-1","","","l","elianto","#f73b6a7A"," ","-1","0","-10","[]","0","2","","","","","999&age=19&gender=f&participant_ID=888","48","1","3","lose","go","0"
"pit-trial","173","2284404","0.0-53.0","battery-v0.2","","","-1","","","g","elianto","#3366ff99"," ","-1","0","+10","[]","0","2","","","","","999&age=19&gender=f&participant_ID=888","49","3","1","win","go","1"
"pit-trial","174","2289259","0.0-54.0","battery-v0.2","","","-1","","","a","elianto","#f73b6a7A","-1","-1","1","0","[]","0","2","","","","","999&age=19&gender=f&participant_ID=888","50","2","4","lose","no-go","0"
"pit-trial","175","2294118","0.0-55.0","battery-v0.2","","","-1","","","u","elianto","#3366ff99","-1","-1","1","+10","[]","0","2","","","","","999&age=19&gender=f&participant_ID=888","51","0","2","win","no-go","0"
"pit-trial","176","2298977","0.0-56.0","battery-v0.2","","","-1","","","l","elianto","#f73b6a7A"," ","-1","0","-10","[]","0","2","","","","","999&age=19&gender=f&participant_ID=888","52","1","3","lose","go","0"
"pit-trial","177","2303836","0.0-57.0","battery-v0.2","","","-1","","","l","elianto","#f73b6a7A"," ","-1","0","-10","[]","0","2","","","","","999&age=19&gender=f&participant_ID=888","53","1","3","lose","go","0"
"pit-trial","178","2308694","0.0-58.0","battery-v0.2","","","-1","","","a","elianto","#f73b6a7A","-1","-1","1","0","[]","0","2","","","","","999&age=19&gender=f&participant_ID=888","54","2","4","lose","no-go","0"
"pit-trial","179","2313548","0.0-59.0","battery-v0.2","","","-1","","","p","elianto","#f73b6a7A"," ","-1","0","0","[]","0","2","","","","","999&age=19&gender=f&participant_ID=888","55","4","3","lose","go","1"
"pit-trial","180","2318407","0.0-60.0","battery-v0.2","","","-1","","","s","elianto","#f73b6a7A","-1","-1","1","0","[]","0","2","","","","","999&age=19&gender=f&participant_ID=888","56","5","4","lose","no-go","0"
"pit-trial","181","2323266","0.0-61.0","battery-v0.2","","","-1","","","p","elianto","#f73b6a7A"," ","-1","0","-10","[]","0","2","","","","","999&age=19&gender=f&participant_ID=888","57","4","3","lose","go","0"
"pit-trial","182","2328124","0.0-62.0","battery-v0.2","","","-1","","","a","elianto","#f73b6a7A","-1","-1","1","-10","[]","0","2","","","","","999&age=19&gender=f&participant_ID=888","58","2","4","lose","no-go","1"
"pit-trial","183","2332983","0.0-63.0","battery-v0.2","","","-1","","","l","elianto","#f73b6a7A"," ","-1","0","-10","[]","0","2","","","","","999&age=19&gender=f&participant_ID=888","59","1","3","lose","go","0"
"pit-trial","184","2337842","0.0-64.0","battery-v0.2","","","-1","","","s","elianto","#f73b6a7A","-1","-1","1","0","[]","0","2","","","","","999&age=19&gender=f&participant_ID=888","60","5","4","lose","no-go","0"
"pit-trial","185","2342701","0.0-65.0","battery-v0.2","","","-1","","","a","elianto","#f73b6a7A","-1","-1","1","0","[]","0","2","","","","","999&age=19&gender=f&participant_ID=888","61","2","4","lose","no-go","0"
"pit-trial","186","2347554","0.0-66.0","battery-v0.2","","","-1","","","s","elianto","#f73b6a7A","-1","-1","1","0","[]","0","2","","","","","999&age=19&gender=f&participant_ID=888","62","5","4","lose","no-go","0"
"pit-trial","187","2352409","0.0-67.0","battery-v0.2","","","-1","","","p","elianto","#f73b6a7A"," ","-1","0","-10","[]","0","2","","","","","999&age=19&gender=f&participant_ID=888","63","4","3","lose","go","0"
"pit-trial","188","2357266","0.0-68.0","battery-v0.2","","","-1","","","w","elianto","#3366ff99","-1","-1","1","+10","[]","0","2","","","","","999&age=19&gender=f&participant_ID=888","64","6","2","win","no-go","0"
"pit-trial","189","2362125","0.0-69.0","battery-v0.2","","","-1","","","a","elianto","#f73b6a7A","-1","-1","1","0","[]","0","2","","","","","999&age=19&gender=f&participant_ID=888","65","2","4","lose","no-go","0"
"pit-trial","190","2366984","0.0-70.0","battery-v0.2","","","-1","","","p","elianto","#f73b6a7A"," ","-1","0","-10","[]","0","2","","","","","999&age=19&gender=f&participant_ID=888","66","4","3","lose","go","0"
"pit-trial","191","2371843","0.0-71.0","battery-v0.2","","","-1","","","w","elianto","#3366ff99","-1","-1","1","+10","[]","0","2","","","","","999&age=19&gender=f&participant_ID=888","67","6","2","win","no-go","0"
"pit-trial","192","2376702","0.0-72.0","battery-v0.2","","","-1","","","s","elianto","#f73b6a7A","-1","-1","1","0","[]","0","2","","","","","999&age=19&gender=f&participant_ID=888","68","5","4","lose","no-go","0"
"pit-trial","193","2381561","0.0-73.0","battery-v0.2","","","-1","","","s","elianto","#f73b6a7A","-1","-1","1","0","[]","0","2","","","","","999&age=19&gender=f&participant_ID=888","69","5","4","lose","no-go","0"
"pit-trial","194","2386420","0.0-74.0","battery-v0.2","","","-1","","","w","elianto","#3366ff99","-1","-1","1","+10","[]","0","2","","","","","999&age=19&gender=f&participant_ID=888","70","6","2","win","no-go","0"
"pit-trial","195","2391279","0.0-75.0","battery-v0.2","","","-1","","","e","elianto","#3366ff99"," ","-1","0","0","[]","0","2","","","","","999&age=19&gender=f&participant_ID=888","71","7","1","win","go","0"
"pit-trial","196","2396138","0.0-76.0","battery-v0.2","","","-1","","","p","elianto","#f73b6a7A"," ","-1","0","-10","[]","0","2","","","","","999&age=19&gender=f&participant_ID=888","72","4","3","lose","go","0"
"pit-trial","197","2400997","0.0-77.0","battery-v0.2","","","-1","","","s","elianto","#f73b6a7A","-1","-1","1","0","[]","0","2","","","","","999&age=19&gender=f&participant_ID=888","73","5","4","lose","no-go","0"
"pit-trial","198","2405856","0.0-78.0","battery-v0.2","","","-1","","","w","elianto","#3366ff99","-1","-1","1","+10","[]","0","2","","","","","999&age=19&gender=f&participant_ID=888","74","6","2","win","no-go","0"
"pit-trial","199","2410715","0.0-79.0","battery-v0.2","","","-1","","","p","elianto","#f73b6a7A"," ","-1","0","0","[]","0","2","","","","","999&age=19&gender=f&participant_ID=888","75","4","3","lose","go","1"
"pit-trial","200","2415573","0.0-80.0","battery-v0.2","","","-1","","","e","elianto","#3366ff99"," ","-1","0","0","[]","0","2","","","","","999&age=19&gender=f&participant_ID=888","76","7","1","win","go","0"
"pit-trial","201","2420432","0.0-81.0","battery-v0.2","","","-1","","","p","elianto","#f73b6a7A"," ","-1","0","-10","[]","0","2","","","","","999&age=19&gender=f&participant_ID=888","77","4","3","lose","go","0"
"pit-trial","202","2425285","0.0-82.0","battery-v0.2","","","-1","","","e","elianto","#3366ff99"," ","-1","0","0","[]","0","2","","","","","999&age=19&gender=f&participant_ID=888","78","7","1","win","go","0"
"pit-trial","203","2430144","0.0-83.0","battery-v0.2","","","-1","","","w","elianto","#3366ff99","-1","-1","1","+10","[]","0","2","","","","","999&age=19&gender=f&participant_ID=888","79","6","2","win","no-go","0"
"pit-trial","204","2435000","0.0-84.0","battery-v0.2","","","-1","","","s","elianto","#f73b6a7A","-1","-1","1","0","[]","0","2","","","","","999&age=19&gender=f&participant_ID=888","80","5","4","lose","no-go","0"
"pit-trial","205","2439856","0.0-85.0","battery-v0.2","","","-1","","","p","elianto","#f73b6a7A"," ","-1","0","-10","[]","0","2","","","","","999&age=19&gender=f&participant_ID=888","81","4","3","lose","go","0"
"pit-trial","206","2444716","0.0-86.0","battery-v0.2","","","-1","","","w","elianto","#3366ff99","-1","-1","1","+10","[]","0","2","","","","","999&age=19&gender=f&participant_ID=888","82","6","2","win","no-go","0"
"pit-trial","207","2449574","0.0-87.0","battery-v0.2","","","-1","","","s","elianto","#f73b6a7A","-1","-1","1","0","[]","0","2","","","","","999&age=19&gender=f&participant_ID=888","83","5","4","lose","no-go","0"
"pit-trial","208","2454433","0.0-88.0","battery-v0.2","","","-1","","","e","elianto","#3366ff99"," ","-1","0","0","[]","0","2","","","","","999&age=19&gender=f&participant_ID=888","84","7","1","win","go","0"
"pit-trial","209","2459292","0.0-89.0","battery-v0.2","","","-1","","","w","elianto","#3366ff99","-1","-1","1","0","[]","0","2","","","","","999&age=19&gender=f&participant_ID=888","85","6","2","win","no-go","1"
"pit-trial","210","2464150","0.0-90.0","battery-v0.2","","","-1","","","s","elianto","#f73b6a7A","-1","-1","1","0","[]","0","2","","","","","999&age=19&gender=f&participant_ID=888","86","5","4","lose","no-go","0"
"pit-trial","211","2469010","0.0-91.0","battery-v0.2","","","-1","","","p","elianto","#f73b6a7A"," ","-1","0","0","[]","0","2","","","","","999&age=19&gender=f&participant_ID=888","87","4","3","lose","go","1"
"pit-trial","212","2473869","0.0-92.0","battery-v0.2","","","-1","","","e","elianto","#3366ff99"," ","-1","0","0","[]","0","2","","","","","999&age=19&gender=f&participant_ID=888","88","7","1","win","go","0"
"pit-trial","213","2478728","0.0-93.0","battery-v0.2","","","-1","","","s","elianto","#f73b6a7A","-1","-1","1","0","[]","0","2","","","","","999&age=19&gender=f&participant_ID=888","89","5","4","lose","no-go","0"
"pit-trial","214","2483586","0.0-94.0","battery-v0.2","","","-1","","","e","elianto","#3366ff99"," ","-1","0","+10","[]","0","2","","","","","999&age=19&gender=f&participant_ID=888","90","7","1","win","go","1"
"pit-trial","215","2488440","0.0-95.0","battery-v0.2","","","-1","","","p","elianto","#f73b6a7A"," ","-1","0","0","[]","0","2","","","","","999&age=19&gender=f&participant_ID=888","91","4","3","lose","go","1"
"pit-trial","216","2493299","0.0-96.0","battery-v0.2","","","-1","","","w","elianto","#3366ff99","-1","-1","1","+10","[]","0","2","","","","","999&age=19&gender=f&participant_ID=888","92","6","2","win","no-go","0"
"pit-trial","217","2498158","0.0-97.0","battery-v0.2","","","-1","","","p","elianto","#f73b6a7A"," ","-1","0","0","[]","0","2","","","","","999&age=19&gender=f&participant_ID=888","93","4","3","lose","go","1"
"pit-trial","218","2503017","0.0-98.0","battery-v0.2","","","-1","","","w","elianto","#3366ff99","-1","-1","1","+10","[]","0","2","","","","","999&age=19&gender=f&participant_ID=888","94","6","2","win","no-go","0"
"pit-trial","219","2507882","0.0-99.0","battery-v0.2","","","-1","","","e","elianto","#3366ff99"," ","-1","0","0","[]","0","2","","","","","999&age=19&gender=f&participant_ID=888","95","7","1","win","go","0"
"pit-trial","220","2512741","0.0-100.0","battery-v0.2","","","-1","","","k","elianto","#3366ff99"," ","-1","0","0","[]","0","2","","","","","999&age=19&gender=f&participant_ID=888","96","8","1","win","go","0"
"pit-trial","221","2517599","0.0-101.0","battery-v0.2","","","-1","","","w","elianto","#3366ff99","-1","-1","1","0","[]","0","2","","","","","999&age=19&gender=f&participant_ID=888","97","6","2","win","no-go","1"
"pit-trial","222","2522458","0.0-102.0","battery-v0.2","","","-1","","","e","elianto","#3366ff99"," ","-1","0","0","[]","0","2","","","","","999&age=19&gender=f&participant_ID=888","98","7","1","win","go","0"
"pit-trial","223","2527317","0.0-103.0","battery-v0.2","","","-1","","","p","elianto","#f73b6a7A"," ","-1","0","-10","[]","0","2","","","","","999&age=19&gender=f&participant_ID=888","99","4","3","lose","go","0"
"pit-trial","224","2532176","0.0-104.0","battery-v0.2","","","-1","","","k","elianto","#3366ff99"," ","-1","0","+10","[]","0","2","","","","","999&age=19&gender=f&participant_ID=888","100","8","1","win","go","1"
"pit-trial","225","2537035","0.0-105.0","battery-v0.2","","","-1","","","k","elianto","#3366ff99"," ","-1","0","+10","[]","0","2","","","","","999&age=19&gender=f&participant_ID=888","101","8","1","win","go","1"
"pit-trial","226","2541894","0.0-106.0","battery-v0.2","","","-1","","","w","elianto","#3366ff99","-1","-1","1","+10","[]","0","2","","","","","999&age=19&gender=f&participant_ID=888","102","6","2","win","no-go","0"
"pit-trial","227","2546747","0.0-107.0","battery-v0.2","","","-1","","","d","elianto","#3366ff99","-1","-1","1","0","[]","0","2","","","","","999&age=19&gender=f&participant_ID=888","103","9","2","win","no-go","1"
"pit-trial","228","2551606","0.0-108.0","battery-v0.2","","","-1","","","e","elianto","#3366ff99"," ","-1","0","0","[]","0","2","","","","","999&age=19&gender=f&participant_ID=888","104","7","1","win","go","0"
"pit-trial","229","2556465","0.0-109.0","battery-v0.2","","","-1","","","k","elianto","#3366ff99"," ","-1","0","0","[]","0","2","","","","","999&age=19&gender=f&participant_ID=888","105","8","1","win","go","0"
"pit-trial","230","2561324","0.0-110.0","battery-v0.2","","","-1","","","d","elianto","#3366ff99","-1","-1","1","+10","[]","0","2","","","","","999&age=19&gender=f&participant_ID=888","106","9","2","win","no-go","0"
"pit-trial","231","2566183","0.0-111.0","battery-v0.2","","","-1","","","e","elianto","#3366ff99"," ","-1","0","+10","[]","0","2","","","","","999&age=19&gender=f&participant_ID=888","107","7","1","win","go","1"
"pit-trial","232","2571041","0.0-112.0","battery-v0.2","","","-1","","","w","elianto","#3366ff99","-1","-1","1","+10","[]","0","2","","","","","999&age=19&gender=f&participant_ID=888","108","6","2","win","no-go","0"
"pit-trial","233","2575900","0.0-113.0","battery-v0.2","","","-1","","","j","elianto","#f73b6a7A"," ","-1","0","-10","[]","0","2","","","","","999&age=19&gender=f&participant_ID=888","109","10","3","lose","go","0"
"pit-trial","234","2580754","0.0-114.0","battery-v0.2","","","-1","","","k","elianto","#3366ff99"," ","-1","0","0","[]","0","2","","","","","999&age=19&gender=f&participant_ID=888","110","8","1","win","go","0"
"pit-trial","235","2585612","0.0-115.0","battery-v0.2","","","-1","","","d","elianto","#3366ff99","-1","-1","1","+10","[]","0","2","","","","","999&age=19&gender=f&participant_ID=888","111","9","2","win","no-go","0"
"pit-trial","236","2590471","0.0-116.0","battery-v0.2","","","-1","","","v","elianto","#f73b6a7A","-1","-1","1","0","[]","0","2","","","","","999&age=19&gender=f&participant_ID=888","112","11","4","lose","no-go","0"
"pit-trial","237","2595332","0.0-117.0","battery-v0.2","","","-1","","","d","elianto","#3366ff99","-1","-1","1","0","[]","0","2","","","","","999&age=19&gender=f&participant_ID=888","113","9","2","win","no-go","1"
"pit-trial","238","2600189","0.0-118.0","battery-v0.2","","","-1","","","v","elianto","#f73b6a7A","-1","-1","1","0","[]","0","2","","","","","999&age=19&gender=f&participant_ID=888","114","11","4","lose","no-go","0"
"pit-trial","239","2605048","0.0-119.0","battery-v0.2","","","-1","","","k","elianto","#3366ff99"," ","-1","0","+10","[]","0","2","","","","","999&age=19&gender=f&participant_ID=888","115","8","1","win","go","1"
"pit-trial","240","2609907","0.0-120.0","battery-v0.2","","","-1","","","j","elianto","#f73b6a7A"," ","-1","0","0","[]","0","2","","","","","999&age=19&gender=f&participant_ID=888","116","10","3","lose","go","1"
"pit-trial","241","2614766","0.0-121.0","battery-v0.2","","","-1","","","d","elianto","#3366ff99","-1","-1","1","+10","[]","0","2","","","","","999&age=19&gender=f&participant_ID=888","117","9","2","win","no-go","0"
"pit-trial","242","2619625","0.0-122.0","battery-v0.2","","","-1","","","k","elianto","#3366ff99"," ","-1","0","+10","[]","0","2","","","","","999&age=19&gender=f&participant_ID=888","118","8","1","win","go","1"
"pit-trial","243","2624484","0.0-123.0","battery-v0.2","","","-1","","","v","elianto","#f73b6a7A","-1","-1","1","0","[]","0","2","","","","","999&age=19&gender=f&participant_ID=888","119","11","4","lose","no-go","0"
"pit-trial","244","2629343","0.0-124.0","battery-v0.2","","","-1","","","j","elianto","#f73b6a7A"," ","-1","0","-10","[]","0","2","","","","","999&age=19&gender=f&participant_ID=888","120","10","3","lose","go","0"
"pit-trial","245","2634202","0.0-125.0","battery-v0.2","","","-1","","","j","elianto","#f73b6a7A"," ","-1","0","0","[]","0","2","","","","","999&age=19&gender=f&participant_ID=888","121","10","3","lose","go","1"
"pit-trial","246","2639061","0.0-126.0","battery-v0.2","","","-1","","","v","elianto","#f73b6a7A","-1","-1","1","0","[]","0","2","","","","","999&age=19&gender=f&participant_ID=888","122","11","4","lose","no-go","0"
"pit-trial","247","2643920","0.0-127.0","battery-v0.2","","","-1","","","k","elianto","#3366ff99"," ","-1","0","0","[]","0","2","","","","","999&age=19&gender=f&participant_ID=888","123","8","1","win","go","0"
"pit-trial","248","2648778","0.0-128.0","battery-v0.2","","","-1","","","d","elianto","#3366ff99","-1","-1","1","+10","[]","0","2","","","","","999&age=19&gender=f&participant_ID=888","124","9","2","win","no-go","0"
"pit-trial","249","2653632","0.0-129.0","battery-v0.2","","","-1","","","v","elianto","#f73b6a7A","-1","-1","1","0","[]","0","2","","","","","999&age=19&gender=f&participant_ID=888","125","11","4","lose","no-go","0"
"pit-trial","250","2658490","0.0-130.0","battery-v0.2","","","-1","","","k","elianto","#3366ff99"," ","-1","0","+10","[]","0","2","","","","","999&age=19&gender=f&participant_ID=888","126","8","1","win","go","1"
"pit-trial","251","2663349","0.0-131.0","battery-v0.2","","","-1","","","j","elianto","#f73b6a7A"," ","-1","0","-10","[]","0","2","","","","","999&age=19&gender=f&participant_ID=888","127","10","3","lose","go","0"
"pit-trial","252","2668208","0.0-132.0","battery-v0.2","","","-1","","","d","elianto","#3366ff99","-1","-1","1","+10","[]","0","2","","","","","999&age=19&gender=f&participant_ID=888","128","9","2","win","no-go","0"
"pit-trial","253","2673061","0.0-133.0","battery-v0.2","","","-1","","","k","elianto","#3366ff99"," ","-1","0","+10","[]","0","2","","","","","999&age=19&gender=f&participant_ID=888","129","8","1","win","go","1"
"pit-trial","254","2677920","0.0-134.0","battery-v0.2","","","-1","","","j","elianto","#f73b6a7A"," ","-1","0","-10","[]","0","2","","","","","999&age=19&gender=f&participant_ID=888","130","10","3","lose","go","0"
"pit-trial","255","2682779","0.0-135.0","battery-v0.2","","","-1","","","d","elianto","#3366ff99","-1","-1","1","+10","[]","0","2","","","","","999&age=19&gender=f&participant_ID=888","131","9","2","win","no-go","0"
"pit-trial","256","2687632","0.0-136.0","battery-v0.2","","","-1","","","v","elianto","#f73b6a7A","-1","-1","1","0","[]","0","2","","","","","999&age=19&gender=f&participant_ID=888","132","11","4","lose","no-go","0"
"pit-trial","257","2692491","0.0-137.0","battery-v0.2","","","-1","","","v","elianto","#f73b6a7A","-1","-1","1","0","[]","0","2","","","","","999&age=19&gender=f&participant_ID=888","133","11","4","lose","no-go","0"
"pit-trial","258","2697344","0.0-138.0","battery-v0.2","","","-1","","","k","elianto","#3366ff99"," ","-1","0","0","[]","0","2","","","","","999&age=19&gender=f&participant_ID=888","134","8","1","win","go","0"
"pit-trial","259","2702201","0.0-139.0","battery-v0.2","","","-1","","","d","elianto","#3366ff99","-1","-1","1","+10","[]","0","2","","","","","999&age=19&gender=f&participant_ID=888","135","9","2","win","no-go","0"
"pit-trial","260","2707056","0.0-140.0","battery-v0.2","","","-1","","","j","elianto","#f73b6a7A"," ","-1","0","-10","[]","0","2","","","","","999&age=19&gender=f&participant_ID=888","136","10","3","lose","go","0"
"pit-trial","261","2711915","0.0-141.0","battery-v0.2","","","-1","","","d","elianto","#3366ff99","-1","-1","1","0","[]","0","2","","","","","999&age=19&gender=f&participant_ID=888","137","9","2","win","no-go","1"
"pit-trial","262","2716768","0.0-142.0","battery-v0.2","","","-1","","","v","elianto","#f73b6a7A","-1","-1","1","0","[]","0","2","","","","","999&age=19&gender=f&participant_ID=888","138","11","4","lose","no-go","0"
"pit-trial","263","2721627","0.0-143.0","battery-v0.2","","","-1","","","j","elianto","#f73b6a7A"," ","-1","0","0","[]","0","2","","","","","999&age=19&gender=f&participant_ID=888","139","10","3","lose","go","1"
"pit-trial","264","2726486","0.0-144.0","battery-v0.2","","","-1","","","k","elianto","#3366ff99"," ","-1","0","0","[]","0","2","","","","","999&age=19&gender=f&participant_ID=888","140","8","1","win","go","0"
"pit-instructions","265","2740305","0.0-145.0","battery-v0.2","","[{""page_index"":0,""viewing_time"":5503.399999976158},{""page_index"":1,""viewing_time"":8313.800000071526}]","13817.5","","","","","","","","","","","","","","","","","","","","","","",""
"pit-trial","266","2745164","0.0-146.0","battery-v0.2","","","-1","","","r","elianto","#3366ff99","-1","-1","1","+10","[]","0","3","","","","","999&age=19&gender=f&participant_ID=888","141","1","2","win","no-go","0"
"pit-trial","267","2750019","0.0-147.0","battery-v0.2","","","-1","","","h","elianto","#f73b6a7A"," ","-1","0","-10","[]","0","3","","","","","999&age=19&gender=f&participant_ID=888","142","3","3","lose","go","0"
"pit-trial","268","2754879","0.0-148.0","battery-v0.2","","","-1","","","y","elianto","#3366ff99"," ","-1","0","0","[]","0","3","","","","","999&age=19&gender=f&participant_ID=888","143","2","1","win","go","0"
"pit-trial","269","2759738","0.0-149.0","battery-v0.2","","","-1","","","m","elianto","#3366ff99","-1","-1","1","+10","[]","0","3","","","","","999&age=19&gender=f&participant_ID=888","144","0","2","win","no-go","0"
"pit-trial","270","2764595","0.0-150.0","battery-v0.2","","","-1","","","m","elianto","#3366ff99","-1","-1","1","+10","[]","0","3","","","","","999&age=19&gender=f&participant_ID=888","145","0","2","win","no-go","0"
"pit-trial","271","2769451","0.0-151.0","battery-v0.2","","","-1","","","y","elianto","#3366ff99"," ","-1","0","0","[]","0","3","","","","","999&age=19&gender=f&participant_ID=888","146","2","1","win","go","0"
"pit-trial","272","2774311","0.0-152.0","battery-v0.2","","","-1","","","r","elianto","#3366ff99","-1","-1","1","0","[]","0","3","","","","","999&age=19&gender=f&participant_ID=888","147","1","2","win","no-go","1"
"pit-trial","273","2779168","0.0-153.0","battery-v0.2","","","-1","","","h","elianto","#f73b6a7A"," ","-1","0","-10","[]","0","3","","","","","999&age=19&gender=f&participant_ID=888","148","3","3","lose","go","0"
"pit-trial","274","2784027","0.0-154.0","battery-v0.2","","","-1","","","r","elianto","#3366ff99","-1","-1","1","+10","[]","0","3","","","","","999&age=19&gender=f&participant_ID=888","149","1","2","win","no-go","0"
"pit-trial","275","2788880","0.0-155.0","battery-v0.2","","","-1","","","y","elianto","#3366ff99"," ","-1","0","0","[]","0","3","","","","","999&age=19&gender=f&participant_ID=888","150","2","1","win","go","0"
"pit-trial","276","2793739","0.0-156.0","battery-v0.2","","","-1","","","m","elianto","#3366ff99","-1","-1","1","+10","[]","0","3","","","","","999&age=19&gender=f&participant_ID=888","151","0","2","win","no-go","0"
"pit-trial","277","2798592","0.0-157.0","battery-v0.2","","","-1","","","h","elianto","#f73b6a7A"," ","-1","0","0","[]","0","3","","","","","999&age=19&gender=f&participant_ID=888","152","3","3","lose","go","1"
"pit-trial","278","2803451","0.0-158.0","battery-v0.2","","","-1","","","y","elianto","#3366ff99"," ","-1","0","0","[]","0","3","","","","","999&age=19&gender=f&participant_ID=888","153","2","1","win","go","0"
"pit-trial","279","2808307","0.0-159.0","battery-v0.2","","","-1","","","r","elianto","#3366ff99","-1","-1","1","+10","[]","0","3","","","","","999&age=19&gender=f&participant_ID=888","154","1","2","win","no-go","0"
"pit-trial","280","2813163","0.0-160.0","battery-v0.2","","","-1","","","h","elianto","#f73b6a7A"," ","-1","0","-10","[]","0","3","","","","","999&age=19&gender=f&participant_ID=888","155","3","3","lose","go","0"
"pit-trial","281","2818022","0.0-161.0","battery-v0.2","","","-1","","","m","elianto","#3366ff99","-1","-1","1","+10","[]","0","3","","","","","999&age=19&gender=f&participant_ID=888","156","0","2","win","no-go","0"
"pit-trial","282","2822881","0.0-162.0","battery-v0.2","","","-1","","","y","elianto","#3366ff99"," ","-1","0","0","[]","0","3","","","","","999&age=19&gender=f&participant_ID=888","157","2","1","win","go","0"
"pit-trial","283","2827740","0.0-163.0","battery-v0.2","","","-1","","","r","elianto","#3366ff99","-1","-1","1","0","[]","0","3","","","","","999&age=19&gender=f&participant_ID=888","158","1","2","win","no-go","1"
"pit-trial","284","2832597","0.0-164.0","battery-v0.2","","","-1","","","h","elianto","#f73b6a7A"," ","-1","0","-10","[]","0","3","","","","","999&age=19&gender=f&participant_ID=888","159","3","3","lose","go","0"
"pit-trial","285","2837452","0.0-165.0","battery-v0.2","","","-1","","","m","elianto","#3366ff99","-1","-1","1","+10","[]","0","3","","","","","999&age=19&gender=f&participant_ID=888","160","0","2","win","no-go","0"
"pit-trial","286","2842311","0.0-166.0","battery-v0.2","","","-1","","","y","elianto","#3366ff99"," ","-1","0","0","[]","0","3","","","","","999&age=19&gender=f&participant_ID=888","161","2","1","win","go","0"
"pit-trial","287","2847170","0.0-167.0","battery-v0.2","","","-1","","","h","elianto","#f73b6a7A"," ","-1","0","-10","[]","0","3","","","","","999&age=19&gender=f&participant_ID=888","162","3","3","lose","go","0"
"pit-trial","288","2852024","0.0-168.0","battery-v0.2","","","-1","","","m","elianto","#3366ff99","-1","-1","1","0","[]","0","3","","","","","999&age=19&gender=f&participant_ID=888","163","0","2","win","no-go","1"
"pit-trial","289","2856882","0.0-169.0","battery-v0.2","","","-1","","","r","elianto","#3366ff99","-1","-1","1","+10","[]","0","3","","","","","999&age=19&gender=f&participant_ID=888","164","1","2","win","no-go","0"
"pit-trial","290","2861741","0.0-170.0","battery-v0.2","","","-1","","","h","elianto","#f73b6a7A"," ","-1","0","-10","[]","0","3","","","","","999&age=19&gender=f&participant_ID=888","165","3","3","lose","go","0"
"pit-trial","291","2866594","0.0-171.0","battery-v0.2","","","-1","","","y","elianto","#3366ff99"," ","-1","0","+10","[]","0","3","","","","","999&age=19&gender=f&participant_ID=888","166","2","1","win","go","1"
"pit-trial","292","2871453","0.0-172.0","battery-v0.2","","","-1","","","r","elianto","#3366ff99","-1","-1","1","+10","[]","0","3","","","","","999&age=19&gender=f&participant_ID=888","167","1","2","win","no-go","0"
"pit-trial","293","2876312","0.0-173.0","battery-v0.2","","","-1","","","m","elianto","#3366ff99","-1","-1","1","+10","[]","0","3","","","","","999&age=19&gender=f&participant_ID=888","168","0","2","win","no-go","0"
"pit-trial","294","2881171","0.0-174.0","battery-v0.2","","","-1","","","y","elianto","#3366ff99"," ","-1","0","+10","[]","0","3","","","","","999&age=19&gender=f&participant_ID=888","169","2","1","win","go","1"
"pit-trial","295","2886030","0.0-175.0","battery-v0.2","","","-1","","","m","elianto","#3366ff99","-1","-1","1","0","[]","0","3","","","","","999&age=19&gender=f&participant_ID=888","170","0","2","win","no-go","1"
"pit-trial","296","2890889","0.0-176.0","battery-v0.2","","","-1","","","h","elianto","#f73b6a7A"," ","-1","0","0","[]","0","3","","","","","999&age=19&gender=f&participant_ID=888","171","3","3","lose","go","1"
"pit-trial","297","2895748","0.0-177.0","battery-v0.2","","","-1","","","r","elianto","#3366ff99","-1","-1","1","+10","[]","0","3","","","","","999&age=19&gender=f&participant_ID=888","172","1","2","win","no-go","0"
"pit-trial","298","2900607","0.0-178.0","battery-v0.2","","","-1","","","m","elianto","#3366ff99","-1","-1","1","+10","[]","0","3","","","","","999&age=19&gender=f&participant_ID=888","173","0","2","win","no-go","0"
"pit-trial","299","2905465","0.0-179.0","battery-v0.2","","","-1","","","c","elianto","#f73b6a7A"," ","-1","0","0","[]","0","3","","","","","999&age=19&gender=f&participant_ID=888","174","5","3","lose","go","1"
"pit-trial","300","2910319","0.0-180.0","battery-v0.2","","","-1","","","z","elianto","#f73b6a7A","-1","-1","1","0","[]","0","3","","","","","999&age=19&gender=f&participant_ID=888","175","4","4","lose","no-go","0"
"pit-trial","301","2915177","0.0-181.0","battery-v0.2","","","-1","","","y","elianto","#3366ff99"," ","-1","0","0","[]","0","3","","","","","999&age=19&gender=f&participant_ID=888","176","2","1","win","go","0"
"pit-trial","302","2920037","0.0-182.0","battery-v0.2","","","-1","","","m","elianto","#3366ff99","-1","-1","1","+10","[]","0","3","","","","","999&age=19&gender=f&participant_ID=888","177","0","2","win","no-go","0"
"pit-trial","303","2924897","0.0-183.0","battery-v0.2","","","-1","","","c","elianto","#f73b6a7A"," ","-1","0","-10","[]","0","3","","","","","999&age=19&gender=f&participant_ID=888","178","5","3","lose","go","0"
"pit-trial","304","2929754","0.0-184.0","battery-v0.2","","","-1","","","y","elianto","#3366ff99"," ","-1","0","+10","[]","0","3","","","","","999&age=19&gender=f&participant_ID=888","179","2","1","win","go","1"
"pit-trial","305","2934613","0.0-185.0","battery-v0.2","","","-1","","","z","elianto","#f73b6a7A","-1","-1","1","-10","[]","0","3","","","","","999&age=19&gender=f&participant_ID=888","180","4","4","lose","no-go","1"
"pit-trial","306","2939472","0.0-186.0","battery-v0.2","","","-1","","","c","elianto","#f73b6a7A"," ","-1","0","-10","[]","0","3","","","","","999&age=19&gender=f&participant_ID=888","181","5","3","lose","go","0"
"pit-trial","307","2944331","0.0-187.0","battery-v0.2","","","-1","","","b","elianto","#3366ff99","-1","-1","1","+10","[]","0","3","","","","","999&age=19&gender=f&participant_ID=888","182","6","2","win","no-go","0"
"pit-trial","308","2949190","0.0-188.0","battery-v0.2","","","-1","","","y","elianto","#3366ff99"," ","-1","0","+10","[]","0","3","","","","","999&age=19&gender=f&participant_ID=888","183","2","1","win","go","1"
"pit-trial","309","2954049","0.0-189.0","battery-v0.2","","","-1","","","z","elianto","#f73b6a7A","-1","-1","1","0","[]","0","3","","","","","999&age=19&gender=f&participant_ID=888","184","4","4","lose","no-go","0"
"pit-trial","310","2958908","0.0-190.0","battery-v0.2","","","-1","","","y","elianto","#3366ff99"," ","-1","0","0","[]","0","3","","","","","999&age=19&gender=f&participant_ID=888","185","2","1","win","go","0"
"pit-trial","311","2963767","0.0-191.0","battery-v0.2","","","-1","","","z","elianto","#f73b6a7A","-1","-1","1","0","[]","0","3","","","","","999&age=19&gender=f&participant_ID=888","186","4","4","lose","no-go","0"
"pit-trial","312","2968626","0.0-192.0","battery-v0.2","","","-1","","","b","elianto","#3366ff99","-1","-1","1","0","[]","0","3","","","","","999&age=19&gender=f&participant_ID=888","187","6","2","win","no-go","1"
"pit-trial","313","2973485","0.0-193.0","battery-v0.2","","","-1","","","c","elianto","#f73b6a7A"," ","-1","0","-10","[]","0","3","","","","","999&age=19&gender=f&participant_ID=888","188","5","3","lose","go","0"
"pit-trial","314","2978344","0.0-194.0","battery-v0.2","","","-1","","","z","elianto","#f73b6a7A","-1","-1","1","-10","[]","0","3","","","","","999&age=19&gender=f&participant_ID=888","189","4","4","lose","no-go","1"
"pit-trial","315","2983204","0.0-195.0","battery-v0.2","","","-1","","","b","elianto","#3366ff99","-1","-1","1","+10","[]","0","3","","","","","999&age=19&gender=f&participant_ID=888","190","6","2","win","no-go","0"
"pit-trial","316","2988061","0.0-196.0","battery-v0.2","","","-1","","","c","elianto","#f73b6a7A"," ","-1","0","0","[]","0","3","","","","","999&age=19&gender=f&participant_ID=888","191","5","3","lose","go","1"
"pit-trial","317","2992920","0.0-197.0","battery-v0.2","","","-1","","","t","elianto","#f73b6a7A","-1","-1","1","0","[]","0","3","","","","","999&age=19&gender=f&participant_ID=888","192","7","4","lose","no-go","0"
"pit-trial","318","2997779","0.0-198.0","battery-v0.2","","","-1","","","t","elianto","#f73b6a7A","-1","-1","1","0","[]","0","3","","","","","999&age=19&gender=f&participant_ID=888","193","7","4","lose","no-go","0"
"pit-trial","319","3002638","0.0-199.0","battery-v0.2","","","-1","","","c","elianto","#f73b6a7A"," ","-1","0","-10","[]","0","3","","","","","999&age=19&gender=f&participant_ID=888","194","5","3","lose","go","0"
"pit-trial","320","3007497","0.0-200.0","battery-v0.2","","","-1","","","b","elianto","#3366ff99","-1","-1","1","+10","[]","0","3","","","","","999&age=19&gender=f&participant_ID=888","195","6","2","win","no-go","0"
"pit-trial","321","3012356","0.0-201.0","battery-v0.2","","","-1","","","z","elianto","#f73b6a7A","-1","-1","1","0","[]","0","3","","","","","999&age=19&gender=f&participant_ID=888","196","4","4","lose","no-go","0"
"pit-trial","322","3017215","0.0-202.0","battery-v0.2","","","-1","","","b","elianto","#3366ff99","-1","-1","1","+10","[]","0","3","","","","","999&age=19&gender=f&participant_ID=888","197","6","2","win","no-go","0"
"pit-trial","323","3022074","0.0-203.0","battery-v0.2","","","-1","","","z","elianto","#f73b6a7A","-1","-1","1","-10","[]","0","3","","","","","999&age=19&gender=f&participant_ID=888","198","4","4","lose","no-go","1"
"pit-trial","324","3026933","0.0-204.0","battery-v0.2","","","-1","","","c","elianto","#f73b6a7A"," ","-1","0","0","[]","0","3","","","","","999&age=19&gender=f&participant_ID=888","199","5","3","lose","go","1"
"pit-trial","325","3031792","0.0-205.0","battery-v0.2","","","-1","","","t","elianto","#f73b6a7A","-1","-1","1","0","[]","0","3","","","","","999&age=19&gender=f&participant_ID=888","200","7","4","lose","no-go","0"
"pit-trial","326","3036645","0.0-206.0","battery-v0.2","","","-1","","","z","elianto","#f73b6a7A","-1","-1","1","-10","[]","0","3","","","","","999&age=19&gender=f&participant_ID=888","201","4","4","lose","no-go","1"
"pit-trial","327","3041503","0.0-207.0","battery-v0.2","","","-1","","","t","elianto","#f73b6a7A","-1","-1","1","0","[]","0","3","","","","","999&age=19&gender=f&participant_ID=888","202","7","4","lose","no-go","0"
"pit-trial","328","3046368","0.0-208.0","battery-v0.2","","","-1","","","c","elianto","#f73b6a7A"," ","-1","0","-10","[]","0","3","","","","","999&age=19&gender=f&participant_ID=888","203","5","3","lose","go","0"
"pit-trial","329","3051228","0.0-209.0","battery-v0.2","","","-1","","","b","elianto","#3366ff99","-1","-1","1","+10","[]","0","3","","","","","999&age=19&gender=f&participant_ID=888","204","6","2","win","no-go","0"
"pit-trial","330","3056087","0.0-210.0","battery-v0.2","","","-1","","","t","elianto","#f73b6a7A","-1","-1","1","0","[]","0","3","","","","","999&age=19&gender=f&participant_ID=888","205","7","4","lose","no-go","0"
"pit-trial","331","3060951","0.0-211.0","battery-v0.2","","","-1","","","z","elianto","#f73b6a7A","-1","-1","1","0","[]","0","3","","","","","999&age=19&gender=f&participant_ID=888","206","4","4","lose","no-go","0"
"pit-trial","332","3065810","0.0-212.0","battery-v0.2","","","-1","","","b","elianto","#3366ff99","-1","-1","1","+10","[]","0","3","","","","","999&age=19&gender=f&participant_ID=888","207","6","2","win","no-go","0"
"pit-trial","333","3070669","0.0-213.0","battery-v0.2","","","-1","","","c","elianto","#f73b6a7A"," ","-1","0","-10","[]","0","3","","","","","999&age=19&gender=f&participant_ID=888","208","5","3","lose","go","0"
"pit-trial","334","3075528","0.0-214.0","battery-v0.2","","","-1","","","z","elianto","#f73b6a7A","-1","-1","1","0","[]","0","3","","","","","999&age=19&gender=f&participant_ID=888","209","4","4","lose","no-go","0"
"pit-trial","335","3080387","0.0-215.0","battery-v0.2","","","-1","","","c","elianto","#f73b6a7A"," ","-1","0","-10","[]","0","3","","","","","999&age=19&gender=f&participant_ID=888","210","5","3","lose","go","0"
"pit-trial","336","3085246","0.0-216.0","battery-v0.2","","","-1","","","b","elianto","#3366ff99","-1","-1","1","+10","[]","0","3","","","","","999&age=19&gender=f&participant_ID=888","211","6","2","win","no-go","0"
"pit-trial","337","3090105","0.0-217.0","battery-v0.2","","","-1","","","t","elianto","#f73b6a7A","-1","-1","1","-10","[]","0","3","","","","","999&age=19&gender=f&participant_ID=888","212","7","4","lose","no-go","1"
"pit-trial","338","3094964","0.0-218.0","battery-v0.2","","","-1","","","b","elianto","#3366ff99","-1","-1","1","+10","[]","0","3","","","","","999&age=19&gender=f&participant_ID=888","213","6","2","win","no-go","0"
"pit-trial","339","3099823","0.0-219.0","battery-v0.2","","","-1","","","t","elianto","#f73b6a7A","-1","-1","1","-10","[]","0","3","","","","","999&age=19&gender=f&participant_ID=888","214","7","4","lose","no-go","1"
"pit-trial","340","3104682","0.0-220.0","battery-v0.2","","","-1","","","c","elianto","#f73b6a7A"," ","-1","0","-10","[]","0","3","","","","","999&age=19&gender=f&participant_ID=888","215","5","3","lose","go","0"
"pit-trial","341","3109541","0.0-221.0","battery-v0.2","","","-1","","","x","elianto","#f73b6a7A","-1","-1","1","0","[]","0","3","","","","","999&age=19&gender=f&participant_ID=888","216","8","4","lose","no-go","0"
"pit-trial","342","3114400","0.0-222.0","battery-v0.2","","","-1","","","t","elianto","#f73b6a7A","-1","-1","1","0","[]","0","3","","","","","999&age=19&gender=f&participant_ID=888","217","7","4","lose","no-go","0"
"pit-trial","343","3119263","0.0-223.0","battery-v0.2","","","-1","","","c","elianto","#f73b6a7A"," ","-1","0","0","[]","0","3","","","","","999&age=19&gender=f&participant_ID=888","218","5","3","lose","go","1"
"pit-trial","344","3124116","0.0-224.0","battery-v0.2","","","-1","","","x","elianto","#f73b6a7A","-1","-1","1","0","[]","0","3","","","","","999&age=19&gender=f&participant_ID=888","219","8","4","lose","no-go","0"
"pit-trial","345","3128969","0.0-225.0","battery-v0.2","","","-1","","","b","elianto","#3366ff99","-1","-1","1","+10","[]","0","3","","","","","999&age=19&gender=f&participant_ID=888","220","6","2","win","no-go","0"
"pit-trial","346","3133824","0.0-226.0","battery-v0.2","","","-1","","","n","elianto","#f73b6a7A"," ","-1","0","-10","[]","0","3","","","","","999&age=19&gender=f&participant_ID=888","221","10","3","lose","go","0"
"pit-trial","347","3138682","0.0-227.0","battery-v0.2","","","-1","","","x","elianto","#f73b6a7A","-1","-1","1","0","[]","0","3","","","","","999&age=19&gender=f&participant_ID=888","222","8","4","lose","no-go","0"
"pit-trial","348","3143540","0.0-228.0","battery-v0.2","","","-1","","","b","elianto","#3366ff99","-1","-1","1","+10","[]","0","3","","","","","999&age=19&gender=f&participant_ID=888","223","6","2","win","no-go","0"
"pit-trial","349","3148395","0.0-229.0","battery-v0.2","","","-1","","","f","elianto","#3366ff99"," ","-1","0","0","[]","0","3","","","","","999&age=19&gender=f&participant_ID=888","224","9","1","win","go","0"
"pit-trial","350","3153253","0.0-230.0","battery-v0.2","","","-1","","","n","elianto","#f73b6a7A"," ","-1","0","-10","[]","0","3","","","","","999&age=19&gender=f&participant_ID=888","225","10","3","lose","go","0"
"pit-trial","351","3158118","0.0-231.0","battery-v0.2","","","-1","","","x","elianto","#f73b6a7A","-1","-1","1","0","[]","0","3","","","","","999&age=19&gender=f&participant_ID=888","226","8","4","lose","no-go","0"
"pit-trial","352","3162983","0.0-232.0","battery-v0.2","","","-1","","","b","elianto","#3366ff99","-1","-1","1","+10","[]","0","3","","","","","999&age=19&gender=f&participant_ID=888","227","6","2","win","no-go","0"
"pit-trial","353","3167842","0.0-233.0","battery-v0.2","","","-1","","","f","elianto","#3366ff99"," ","-1","0","+10","[]","0","3","","","","","999&age=19&gender=f&participant_ID=888","228","9","1","win","go","1"
"pit-trial","354","3172707","0.0-234.0","battery-v0.2","","","-1","","","q","elianto","#3366ff99"," ","-1","0","0","[]","0","3","","","","","999&age=19&gender=f&participant_ID=888","229","11","1","win","go","0"
"pit-trial","355","3177566","0.0-235.0","battery-v0.2","","","-1","","","x","elianto","#f73b6a7A","-1","-1","1","0","[]","0","3","","","","","999&age=19&gender=f&participant_ID=888","230","8","4","lose","no-go","0"
"pit-trial","356","3182424","0.0-236.0","battery-v0.2","","","-1","","","f","elianto","#3366ff99"," ","-1","0","0","[]","0","3","","","","","999&age=19&gender=f&participant_ID=888","231","9","1","win","go","0"
"pit-trial","357","3187283","0.0-237.0","battery-v0.2","","","-1","","","n","elianto","#f73b6a7A"," ","-1","0","-10","[]","0","3","","","","","999&age=19&gender=f&participant_ID=888","232","10","3","lose","go","0"
"pit-trial","358","3192142","0.0-238.0","battery-v0.2","","","-1","","","q","elianto","#3366ff99"," ","-1","0","0","[]","0","3","","","","","999&age=19&gender=f&participant_ID=888","233","11","1","win","go","0"
"pit-trial","359","3197001","0.0-239.0","battery-v0.2","","","-1","","","f","elianto","#3366ff99"," ","-1","0","0","[]","0","3","","","","","999&age=19&gender=f&participant_ID=888","234","9","1","win","go","0"
"pit-trial","360","3201866","0.0-240.0","battery-v0.2","","","-1","","","x","elianto","#f73b6a7A","-1","-1","1","0","[]","0","3","","","","","999&age=19&gender=f&participant_ID=888","235","8","4","lose","no-go","0"
"pit-trial","361","3206725","0.0-241.0","battery-v0.2","","","-1","","","n","elianto","#f73b6a7A"," ","-1","0","-10","[]","0","3","","","","","999&age=19&gender=f&participant_ID=888","236","10","3","lose","go","0"
"pit-trial","362","3211584","0.0-242.0","battery-v0.2","","","-1","","","q","elianto","#3366ff99"," ","-1","0","0","[]","0","3","","","","","999&age=19&gender=f&participant_ID=888","237","11","1","win","go","0"
"pit-trial","363","3216443","0.0-243.0","battery-v0.2","","","-1","","","x","elianto","#f73b6a7A","-1","-1","1","0","[]","0","3","","","","","999&age=19&gender=f&participant_ID=888","238","8","4","lose","no-go","0"
"pit-trial","364","3221302","0.0-244.0","battery-v0.2","","","-1","","","f","elianto","#3366ff99"," ","-1","0","0","[]","0","3","","","","","999&age=19&gender=f&participant_ID=888","239","9","1","win","go","0"
"pit-trial","365","3226161","0.0-245.0","battery-v0.2","","","-1","","","n","elianto","#f73b6a7A"," ","-1","0","-10","[]","0","3","","","","","999&age=19&gender=f&participant_ID=888","240","10","3","lose","go","0"
"pit-trial","366","3231019","0.0-246.0","battery-v0.2","","","-1","","","n","elianto","#f73b6a7A"," ","-1","0","0","[]","0","3","","","","","999&age=19&gender=f&participant_ID=888","241","10","3","lose","go","1"
"pit-trial","367","3235879","0.0-247.0","battery-v0.2","","","-1","","","q","elianto","#3366ff99"," ","-1","0","0","[]","0","3","","","","","999&age=19&gender=f&participant_ID=888","242","11","1","win","go","0"
"pit-trial","368","3240737","0.0-248.0","battery-v0.2","","","-1","","","x","elianto","#f73b6a7A","-1","-1","1","-10","[]","0","3","","","","","999&age=19&gender=f&participant_ID=888","243","8","4","lose","no-go","1"
"pit-trial","369","3245596","0.0-249.0","battery-v0.2","","","-1","","","f","elianto","#3366ff99"," ","-1","0","0","[]","0","3","","","","","999&age=19&gender=f&participant_ID=888","244","9","1","win","go","0"
"pit-trial","370","3250455","0.0-250.0","battery-v0.2","","","-1","","","q","elianto","#3366ff99"," ","-1","0","0","[]","0","3","","","","","999&age=19&gender=f&participant_ID=888","245","11","1","win","go","0"
"pit-trial","371","3255320","0.0-251.0","battery-v0.2","","","-1","","","f","elianto","#3366ff99"," ","-1","0","0","[]","0","3","","","","","999&age=19&gender=f&participant_ID=888","246","9","1","win","go","0"
"pit-trial","372","3260179","0.0-252.0","battery-v0.2","","","-1","","","x","elianto","#f73b6a7A","-1","-1","1","-10","[]","0","3","","","","","999&age=19&gender=f&participant_ID=888","247","8","4","lose","no-go","1"
"pit-trial","373","3265038","0.0-253.0","battery-v0.2","","","-1","","","n","elianto","#f73b6a7A"," ","-1","0","-10","[]","0","3","","","","","999&age=19&gender=f&participant_ID=888","248","10","3","lose","go","0"
"pit-trial","374","3269897","0.0-254.0","battery-v0.2","","","-1","","","q","elianto","#3366ff99"," ","-1","0","0","[]","0","3","","","","","999&age=19&gender=f&participant_ID=888","249","11","1","win","go","0"
"pit-trial","375","3274756","0.0-255.0","battery-v0.2","","","-1","","","x","elianto","#f73b6a7A","-1","-1","1","0","[]","0","3","","","","","999&age=19&gender=f&participant_ID=888","250","8","4","lose","no-go","0"
"pit-trial","376","3279614","0.0-256.0","battery-v0.2","","","-1","","","f","elianto","#3366ff99"," ","-1","0","0","[]","0","3","","","","","999&age=19&gender=f&participant_ID=888","251","9","1","win","go","0"
"pit-trial","377","3284473","0.0-257.0","battery-v0.2","","","-1","","","n","elianto","#f73b6a7A"," ","-1","0","0","[]","0","3","","","","","999&age=19&gender=f&participant_ID=888","252","10","3","lose","go","1"
"pit-trial","378","3289332","0.0-258.0","battery-v0.2","","","-1","","","x","elianto","#f73b6a7A","-1","-1","1","0","[]","0","3","","","","","999&age=19&gender=f&participant_ID=888","253","8","4","lose","no-go","0"
"pit-trial","379","3294191","0.0-259.0","battery-v0.2","","","-1","","","q","elianto","#3366ff99"," ","-1","0","+10","[]","0","3","","","","","999&age=19&gender=f&participant_ID=888","254","11","1","win","go","1"
"pit-trial","380","3299050","0.0-260.0","battery-v0.2","","","-1","","","n","elianto","#f73b6a7A"," ","-1","0","-10","[]","0","3","","","","","999&age=19&gender=f&participant_ID=888","255","10","3","lose","go","0"
"pit-trial","381","3303909","0.0-261.0","battery-v0.2","","","-1","","","f","elianto","#3366ff99"," ","-1","0","0","[]","0","3","","","","","999&age=19&gender=f&participant_ID=888","256","9","1","win","go","0"
"pit-trial","382","3308774","0.0-262.0","battery-v0.2","","","-1","","","x","elianto","#f73b6a7A","-1","-1","1","0","[]","0","3","","","","","999&age=19&gender=f&participant_ID=888","257","8","4","lose","no-go","0"
"pit-trial","383","3313633","0.0-263.0","battery-v0.2","","","-1","","","n","elianto","#f73b6a7A"," ","-1","0","-10","[]","0","3","","","","","999&age=19&gender=f&participant_ID=888","258","10","3","lose","go","0"
"pit-trial","384","3318492","0.0-264.0","battery-v0.2","","","-1","","","q","elianto","#3366ff99"," ","-1","0","0","[]","0","3","","","","","999&age=19&gender=f&participant_ID=888","259","11","1","win","go","0"
"pit-trial","385","3323351","0.0-265.0","battery-v0.2","","","-1","","","f","elianto","#3366ff99"," ","-1","0","0","[]","0","3","","","","","999&age=19&gender=f&participant_ID=888","260","9","1","win","go","0"
"pit-instructions","386","3332153","0.0-266.0","battery-v0.2","","[{""page_index"":0,""viewing_time"":8801.5}]","8801.800000071526","","","","","","","","","","","","","","","","","","","","","","",""
