"trial_type","trial_index","time_elapsed","internal_node_id","task_version","subject_id","interactions","blur_events","focus_events","fullscreenenter_events","fullscreenexit_events","success","view_history","rt","responses","num_errors","age","subject","participantId","rune","rune_set","hex","correct","choice","accuracy","outcome","keys","total_keys","block","practice","value","sub","trial","stimulus","robot","valence","action","sham","browser_interactions"
"pavlovia","0","11","0.0-0.0","battery-v0.2","","""event"",""trial"",""time""
""fullscreenenter"",""1"",""6488""
","
","
","""event"",""trial"",""time""
""fullscreenenter"",""1"",""6488""
","
","","","","","","","","","","","","","","","","","","","","","","","","","","","",""
"fullscreen","1","7447","0.0-1.0","battery-v0.2","","""event"",""trial"",""time""
""fullscreenenter"",""1"",""6488""
","
","
","""event"",""trial"",""time""
""fullscreenenter"",""1"",""6488""
","
","true","","","","","","","","","","","","","","","","","","","","","","","","","","",""
"pit-instructions","2","11911","0.0-2.0-0.0","battery-v0.2","","""event"",""trial"",""time""
""fullscreenenter"",""1"",""6488""
","
","
","""event"",""trial"",""time""
""fullscreenenter"",""1"",""6488""
","
","","[{""page_index"":0,""viewing_time"":4460.70000000298}]","4461.10000000149","","","","","","","","","","","","","","","","","","","","","","","","",""
"pit-comprehension","3","15312","0.0-2.0-1.0-0.0","battery-v0.2","","""event"",""trial"",""time""
""fullscreenenter"",""1"",""6488""
","
","
","""event"",""trial"",""time""
""fullscreenenter"",""1"",""6488""
","
","","","3397.5999999940395","[""shark""]","0","23","1241","542","","","","","","","","","","","","","","","","","","","",""
"pit-instructions","4","20685","0.0-2.0-1.0-1.0","battery-v0.2","","""event"",""trial"",""time""
""fullscreenenter"",""1"",""6488""
","
","
","""event"",""trial"",""time""
""fullscreenenter"",""1"",""6488""
","
","","[{""page_index"":0,""viewing_time"":5355.70000000298}]","5356","","","","","","","","","","","","","","","","","","","","","","","","",""
"pit-comprehension","5","23597","0.0-2.0-2.0-0.0","battery-v0.2","","""event"",""trial"",""time""
""fullscreenenter"",""1"",""6488""
","
","
","""event"",""trial"",""time""
""fullscreenenter"",""1"",""6488""
","
","","","2908.5999999940395","[""tiger""]","0","23","1241","542","","","","","","","","","","","","","","","","","","","",""
"pit-instructions","6","24305","0.0-2.0-2.0-1.0","battery-v0.2","","""event"",""trial"",""time""
""fullscreenenter"",""1"",""6488""
","
","
","""event"",""trial"",""time""
""fullscreenenter"",""1"",""6488""
","
","","[{""page_index"":0,""viewing_time"":704.9000000059605}]","705.3000000044703","","","","","","","","","","","","","","","","","","","","","","","","",""
"pit-instructions","7","121434","0.0-2.0-3.0","battery-v0.2","","""event"",""trial"",""time""
""fullscreenenter"",""1"",""6488""
","
","
","""event"",""trial"",""time""
""fullscreenenter"",""1"",""6488""
","
","","[{""page_index"":0,""viewing_time"":10636.5},{""page_index"":1,""viewing_time"":5640.60000000149},{""page_index"":2,""viewing_time"":6824.79999999702},{""page_index"":3,""viewing_time"":5841},{""page_index"":4,""viewing_time"":6099.5},{""page_index"":5,""viewing_time"":6213.89999999851},{""page_index"":6,""viewing_time"":6295.70000000298},{""page_index"":7,""viewing_time"":6640.39999999851},{""page_index"":8,""viewing_time"":6020.5},{""page_index"":9,""viewing_time"":8460.60000000149},{""page_index"":10,""viewing_time"":8431.10000000149},{""page_index"":11,""viewing_time"":8456.09999999404},{""page_index"":12,""viewing_time"":6118.10000000149},{""page_index"":13,""viewing_time"":5447.60000000149}]","97127","","","","","","","","","","","","","","","","","","","","","","","","",""
"pit-trial","8","124736","0.0-2.0-4.0-0.0","battery-v0.2","","""event"",""trial"",""time""
""fullscreenenter"",""1"",""6488""
","
","
","""event"",""trial"",""time""
""fullscreenenter"",""1"",""6488""
","
","","","446.79999999701977","","","23","1241","542","&#9784;","elianto","#FFFFF080"," "," ","1","&#10004","[1297.4000000059605]","1","0","0","","","","","","","","",""
"pit-trial","9","128178","0.0-2.0-4.1-0.1","battery-v0.2","","""event"",""trial"",""time""
""fullscreenenter"",""1"",""6488""
","
","
","""event"",""trial"",""time""
""fullscreenenter"",""1"",""6488""
","
","","","585.2000000029802","","","23","1241","542","&#9784;","elianto","#FFFFF080"," "," ","1","&#10004","[1435.8000000044703]","1","0","0","","","","","","","","",""
"pit-trial","10","131541","0.0-2.0-4.2-0.2","battery-v0.2","","""event"",""trial"",""time""
""fullscreenenter"",""1"",""6488""
","
","
","""event"",""trial"",""time""
""fullscreenenter"",""1"",""6488""
","
","","","506.30000000447035","","","23","1241","542","&#9784;","elianto","#FFFFF080"," "," ","1","&#10004","[1356.8000000044703]","1","0","0","","","","","","","","",""
"pit-trial","11","134966","0.0-2.0-4.3-0.3","battery-v0.2","","""event"",""trial"",""time""
""fullscreenenter"",""1"",""6488""
","
","
","""event"",""trial"",""time""
""fullscreenenter"",""1"",""6488""
","
","","","570.8999999985099","","","23","1241","542","&#9784;","elianto","#FFFFF080"," "," ","1","&#10004","[1421.3999999985099]","1","0","0","","","","","","","","",""
"pit-trial","12","138347","0.0-2.0-4.4-0.4","battery-v0.2","","""event"",""trial"",""time""
""fullscreenenter"",""1"",""6488""
","
","
","""event"",""trial"",""time""
""fullscreenenter"",""1"",""6488""
","
","","","527.2000000029802","","","23","1241","542","&#9784;","elianto","#FFFFF080"," "," ","1","&#10004","[1378.5]","1","0","0","","","","","","","","",""
"pit-instructions","13","160705","0.0-2.0-5.0","battery-v0.2","","""event"",""trial"",""time""
""fullscreenenter"",""1"",""6488""
","
","
","""event"",""trial"",""time""
""fullscreenenter"",""1"",""6488""
","
","","[{""page_index"":0,""viewing_time"":5784.29999999702},{""page_index"":1,""viewing_time"":6102.20000000298},{""page_index"":2,""viewing_time"":4378.29999999702},{""page_index"":3,""viewing_time"":6090.29999999702}]","22355.5","","","","","","","","","","","","","","","","","","","","","","","","",""
"pit-trial","14","165559","0.0-2.0-6.0-0.0","battery-v0.2","","""event"",""trial"",""time""
""fullscreenenter"",""1"",""6488""
","
","
","""event"",""trial"",""time""
""fullscreenenter"",""1"",""6488""
","
","","","-1","","","23","1241","542","&#9854;","elianto","#FFFFF080","-1","-1","1","&#10004","[]","0","0","1","","","","","","","","",""
"pit-trial","15","170413","0.0-2.0-6.1-0.1","battery-v0.2","","""event"",""trial"",""time""
""fullscreenenter"",""1"",""6488""
","
","
","""event"",""trial"",""time""
""fullscreenenter"",""1"",""6488""
","
","","","-1","","","23","1241","542","&#9854;","elianto","#FFFFF080","-1","-1","1","&#10004","[]","0","0","1","","","","","","","","",""
"pit-trial","16","175270","0.0-2.0-6.2-0.2","battery-v0.2","","""event"",""trial"",""time""
""fullscreenenter"",""1"",""6488""
","
","
","""event"",""trial"",""time""
""fullscreenenter"",""1"",""6488""
","
","","","-1","","","23","1241","542","&#9854;","elianto","#FFFFF080","-1","-1","1","&#10004","[]","0","0","1","","","","","","","","",""
"pit-trial","17","180124","0.0-2.0-6.3-0.3","battery-v0.2","","""event"",""trial"",""time""
""fullscreenenter"",""1"",""6488""
","
","
","""event"",""trial"",""time""
""fullscreenenter"",""1"",""6488""
","
","","","-1","","","23","1241","542","&#9854;","elianto","#FFFFF080","-1","-1","1","&#10004","[]","0","0","1","","","","","","","","",""
"pit-trial","18","184980","0.0-2.0-6.4-0.4","battery-v0.2","","""event"",""trial"",""time""
""fullscreenenter"",""1"",""6488""
","
","
","""event"",""trial"",""time""
""fullscreenenter"",""1"",""6488""
","
","","","-1","","","23","1241","542","&#9854;","elianto","#FFFFF080","-1","-1","1","&#10004","[]","0","0","1","","","","","","","","",""
"pit-instructions","19","300235","0.0-2.0-7.0","battery-v0.2","","""event"",""trial"",""time""
""fullscreenenter"",""1"",""6488""
","
","
","""event"",""trial"",""time""
""fullscreenenter"",""1"",""6488""
","
","","[{""page_index"":0,""viewing_time"":5473.60000000149},{""page_index"":1,""viewing_time"":6387.39999999851},{""page_index"":2,""viewing_time"":5350},{""page_index"":3,""viewing_time"":5730.10000000149},{""page_index"":4,""viewing_time"":5625.29999999702},{""page_index"":5,""viewing_time"":5722},{""page_index"":6,""viewing_time"":5331.60000000149},{""page_index"":7,""viewing_time"":8745.10000000149},{""page_index"":8,""viewing_time"":6383.39999999851},{""page_index"":9,""viewing_time"":6054.10000000149},{""page_index"":10,""viewing_time"":6647.19999999553},{""page_index"":11,""viewing_time"":4315},{""page_index"":12,""viewing_time"":7641.9000000059605},{""page_index"":13,""viewing_time"":7142.89999999851},{""page_index"":14,""viewing_time"":6133.79999999702},{""page_index"":15,""viewing_time"":7311.60000000149},{""page_index"":16,""viewing_time"":6906.20000000298},{""page_index"":17,""viewing_time"":8351.79999999702}]","115253.29999999702","","","","","","","","","","","","","","","","","","","","","","","","",""
"pit-trial","20","303687","0.0-2.0-8.0-0.0","battery-v0.2","","""event"",""trial"",""time""
""fullscreenenter"",""1"",""6488""
","
","
","""event"",""trial"",""time""
""fullscreenenter"",""1"",""6488""
","
","","","598.1000000014901","","","23","1241","542","&#9776;","elianto","#3366ff99"," "," ","1","+10","[1449.2999999970198]","1","0","1","","","","","","","","",""
"pit-trial","21","307117","0.0-2.0-8.0-1.0","battery-v0.2","","""event"",""trial"",""time""
""fullscreenenter"",""1"",""6488""
","
","
","""event"",""trial"",""time""
""fullscreenenter"",""1"",""6488""
","
","","","576.6000000014901","","","23","1241","542","&#9776;","elianto","#3366ff99"," "," ","1","+10","[1428.1999999955297]","1","0","1","","","","","","","","",""
"pit-trial","22","310579","0.0-2.0-8.0-2.0","battery-v0.2","","""event"",""trial"",""time""
""fullscreenenter"",""1"",""6488""
","
","
","""event"",""trial"",""time""
""fullscreenenter"",""1"",""6488""
","
","","","608.6000000014901","","","23","1241","542","&#9776;","elianto","#3366ff99"," "," ","1","+10","[1459.2000000029802]","1","0","1","","","","","","","","",""
"pit-trial","23","313975","0.0-2.0-8.0-3.0","battery-v0.2","","""event"",""trial"",""time""
""fullscreenenter"",""1"",""6488""
","
","
","""event"",""trial"",""time""
""fullscreenenter"",""1"",""6488""
","
","","","543.1999999955297","","","23","1241","542","&#9776;","elianto","#3366ff99"," "," ","1","0","[1393.7999999970198]","1","0","1","","","","","","","","",""
"pit-trial","24","317420","0.0-2.0-8.0-4.0","battery-v0.2","","""event"",""trial"",""time""
""fullscreenenter"",""1"",""6488""
","
","
","""event"",""trial"",""time""
""fullscreenenter"",""1"",""6488""
","
","","","591.3000000044703","","","23","1241","542","&#9776;","elianto","#3366ff99"," "," ","1","+10","[1441.7000000029802]","1","0","1","","","","","","","","",""
"call-function","25","317422","0.0-2.0-9.0","battery-v0.2","","""event"",""trial"",""time""
""fullscreenenter"",""1"",""6488""
","
","
","""event"",""trial"",""time""
""fullscreenenter"",""1"",""6488""
","
","","","","","","","","","","","","","","","","","","","","","","","","","","","",""
"pit-instructions","26","354796","0.0-2.0-10.0","battery-v0.2","","""event"",""trial"",""time""
""fullscreenenter"",""1"",""6488""
","
","
","""event"",""trial"",""time""
""fullscreenenter"",""1"",""6488""
","
","","[{""page_index"":0,""viewing_time"":5617.29999999702},{""page_index"":1,""viewing_time"":6232.39999999851},{""page_index"":2,""viewing_time"":9933.89999999851},{""page_index"":3,""viewing_time"":8116.80000000447},{""page_index"":4,""viewing_time"":7472.69999999553}]","37373.5","","","","","","","","","","","","","","","","","","","","","","","","",""
"pit-trial","27","358175","0.0-2.0-11.0-0.0","battery-v0.2","","""event"",""trial"",""time""
""fullscreenenter"",""1"",""6488""
","
","
","""event"",""trial"",""time""
""fullscreenenter"",""1"",""6488""
","
","","","526.1000000014901","","","23","1241","542","&#9761;","elianto","#3366ff99","-1"," ","0","0","[1376.8000000044703]","1","0","2","","","","","","","","",""
"pit-trial","28","363028","0.0-2.0-11.0-1.0","battery-v0.2","","""event"",""trial"",""time""
""fullscreenenter"",""1"",""6488""
","
","
","""event"",""trial"",""time""
""fullscreenenter"",""1"",""6488""
","
","","","-1","","","23","1241","542","&#9761;","elianto","#3366ff99","-1","-1","1","+10","[]","0","0","2","","","","","","","","",""
"pit-trial","29","367883","0.0-2.0-11.0-2.0","battery-v0.2","","""event"",""trial"",""time""
""fullscreenenter"",""1"",""6488""
","
","
","""event"",""trial"",""time""
""fullscreenenter"",""1"",""6488""
","
","","","-1","","","23","1241","542","&#9761;","elianto","#3366ff99","-1","-1","1","+10","[]","0","0","2","","","","","","","","",""
"pit-trial","30","372737","0.0-2.0-11.0-3.0","battery-v0.2","","""event"",""trial"",""time""
""fullscreenenter"",""1"",""6488""
","
","
","""event"",""trial"",""time""
""fullscreenenter"",""1"",""6488""
","
","","","-1","","","23","1241","542","&#9761;","elianto","#3366ff99","-1","-1","1","0","[]","0","0","2","","","","","","","","",""
"pit-trial","31","377590","0.0-2.0-11.0-4.0","battery-v0.2","","""event"",""trial"",""time""
""fullscreenenter"",""1"",""6488""
","
","
","""event"",""trial"",""time""
""fullscreenenter"",""1"",""6488""
","
","","","-1","","","23","1241","542","&#9761;","elianto","#3366ff99","-1","-1","1","+10","[]","0","0","2","","","","","","","","",""
"call-function","32","377592","0.0-2.0-12.0","battery-v0.2","","""event"",""trial"",""time""
""fullscreenenter"",""1"",""6488""
","
","
","""event"",""trial"",""time""
""fullscreenenter"",""1"",""6488""
","
","","","","","","","","","","","","","","","","","","","","","","","","","","","",""
"pit-instructions","33","412318","0.0-2.0-13.0","battery-v0.2","","""event"",""trial"",""time""
""fullscreenenter"",""1"",""6488""
","
","
","""event"",""trial"",""time""
""fullscreenenter"",""1"",""6488""
","
","","[{""page_index"":0,""viewing_time"":4613.39999999851},{""page_index"":1,""viewing_time"":7992.4000000059605},{""page_index"":2,""viewing_time"":7116.29999999702},{""page_index"":3,""viewing_time"":10037.29999999702},{""page_index"":4,""viewing_time"":4965.70000000298}]","34725.70000000298","","","","","","","","","","","","","","","","","","","","","","","","",""
"pit-trial","34","415789","0.0-2.0-14.0-0.0","battery-v0.2","","""event"",""trial"",""time""
""fullscreenenter"",""1"",""6488""
","
","
","""event"",""trial"",""time""
""fullscreenenter"",""1"",""6488""
","
","","","617.3000000044703","","","23","1241","542","&#9826;","elianto","#f73b6a7A","-1"," ","0","-10","[1467.5]","1","0","3","","","","","","","","",""
"pit-trial","35","420644","0.0-2.0-14.0-1.0","battery-v0.2","","""event"",""trial"",""time""
""fullscreenenter"",""1"",""6488""
","
","
","""event"",""trial"",""time""
""fullscreenenter"",""1"",""6488""
","
","","","-1","","","23","1241","542","&#9826;","elianto","#f73b6a7A","-1","-1","1","0","[]","0","0","3","","","","","","","","",""
"pit-trial","36","425501","0.0-2.0-14.0-2.0","battery-v0.2","","""event"",""trial"",""time""
""fullscreenenter"",""1"",""6488""
","
","
","""event"",""trial"",""time""
""fullscreenenter"",""1"",""6488""
","
","","","-1","","","23","1241","542","&#9826;","elianto","#f73b6a7A","-1","-1","1","0","[]","0","0","3","","","","","","","","",""
"pit-trial","37","430355","0.0-2.0-14.0-3.0","battery-v0.2","","""event"",""trial"",""time""
""fullscreenenter"",""1"",""6488""
","
","
","""event"",""trial"",""time""
""fullscreenenter"",""1"",""6488""
","
","","","-1","","","23","1241","542","&#9826;","elianto","#f73b6a7A","-1","-1","1","-10","[]","0","0","3","","","","","","","","",""
"pit-trial","38","435209","0.0-2.0-14.0-4.0","battery-v0.2","","""event"",""trial"",""time""
""fullscreenenter"",""1"",""6488""
","
","
","""event"",""trial"",""time""
""fullscreenenter"",""1"",""6488""
","
","","","-1","","","23","1241","542","&#9826;","elianto","#f73b6a7A","-1","-1","1","0","[]","0","0","3","","","","","","","","",""
"call-function","39","435210","0.0-2.0-15.0","battery-v0.2","","""event"",""trial"",""time""
""fullscreenenter"",""1"",""6488""
","
","
","""event"",""trial"",""time""
""fullscreenenter"",""1"",""6488""
","
","","","","","","","","","","","","","","","","","","","","","","","","","","","",""
"pit-instructions","40","461185","0.0-2.0-16.0","battery-v0.2","","""event"",""trial"",""time""
""fullscreenenter"",""1"",""6488""
","
","
","""event"",""trial"",""time""
""fullscreenenter"",""1"",""6488""
","
","","[{""page_index"":0,""viewing_time"":6535.20000000298},{""page_index"":1,""viewing_time"":9160.29999999702},{""page_index"":2,""viewing_time"":5488.70000000298},{""page_index"":3,""viewing_time"":4789.29999999702}]","25973.80000000447","","","","","","","","","","","","","","","","","","","","","","","","",""
"pit-trial","41","464861","0.0-2.0-17.0-0.0","battery-v0.2","","""event"",""trial"",""time""
""fullscreenenter"",""1"",""6488""
","
","
","""event"",""trial"",""time""
""fullscreenenter"",""1"",""6488""
","
","","","822","","","23","1241","542","&#9789;","elianto","#f73b6a7A"," "," ","1","0","[1674.5]","1","0","4","","","","","","","","",""
"pit-trial","42","468213","0.0-2.0-17.0-1.0","battery-v0.2","","""event"",""trial"",""time""
""fullscreenenter"",""1"",""6488""
","
","
","""event"",""trial"",""time""
""fullscreenenter"",""1"",""6488""
","
","","","498.09999999403954","","","23","1241","542","&#9789;","elianto","#f73b6a7A"," "," ","1","0","[1349]","1","0","4","","","","","","","","",""
"pit-trial","43","471560","0.0-2.0-17.0-2.0","battery-v0.2","","""event"",""trial"",""time""
""fullscreenenter"",""1"",""6488""
","
","
","""event"",""trial"",""time""
""fullscreenenter"",""1"",""6488""
","
","","","493.69999999552965","","","23","1241","542","&#9789;","elianto","#f73b6a7A"," "," ","1","0","[1344.6999999955297]","1","0","4","","","","","","","","",""
"pit-trial","44","476413","0.0-2.0-17.0-3.0","battery-v0.2","","""event"",""trial"",""time""
""fullscreenenter"",""1"",""6488""
","
","
","""event"",""trial"",""time""
""fullscreenenter"",""1"",""6488""
","
","","","-1","","","23","1241","542","&#9789;","elianto","#f73b6a7A"," ","-1","0","0","[]","0","0","4","","","","","","","","",""
"pit-trial","45","479830","0.0-2.0-17.0-4.0","battery-v0.2","","""event"",""trial"",""time""
""fullscreenenter"",""1"",""6488""
","
","
","""event"",""trial"",""time""
""fullscreenenter"",""1"",""6488""
","
","","","560.8000000044703","","","23","1241","542","&#9789;","elianto","#f73b6a7A"," "," ","1","0","[1413.6000000014901]","1","0","4","","","","","","","","",""
"pit-trial","46","483355","0.0-2.0-17.1-0.1","battery-v0.2","","""event"",""trial"",""time""
""fullscreenenter"",""1"",""6488""
","
","
","""event"",""trial"",""time""
""fullscreenenter"",""1"",""6488""
","
","","","670","","","23","1241","542","&#9789;","elianto","#f73b6a7A"," "," ","1","0","[1522.3000000044703]","1","0","4","","","","","","","","",""
"pit-trial","47","486679","0.0-2.0-17.1-1.1","battery-v0.2","","""event"",""trial"",""time""
""fullscreenenter"",""1"",""6488""
","
","
","""event"",""trial"",""time""
""fullscreenenter"",""1"",""6488""
","
","","","470.1000000014901","","","23","1241","542","&#9789;","elianto","#f73b6a7A"," "," ","1","0","[1320.3999999985099]","1","0","4","","","","","","","","",""
"pit-trial","48","491533","0.0-2.0-17.1-2.1","battery-v0.2","","""event"",""trial"",""time""
""fullscreenenter"",""1"",""6488""
","
","
","""event"",""trial"",""time""
""fullscreenenter"",""1"",""6488""
","
","","","-1","","","23","1241","542","&#9789;","elianto","#f73b6a7A"," ","-1","0","-10","[]","0","0","4","","","","","","","","",""
"pit-trial","49","494657","0.0-2.0-17.1-3.1","battery-v0.2","","""event"",""trial"",""time""
""fullscreenenter"",""1"",""6488""
","
","
","""event"",""trial"",""time""
""fullscreenenter"",""1"",""6488""
","
","","","271.3999999985099","","","23","1241","542","&#9789;","elianto","#f73b6a7A"," "," ","1","-10","[1121.5]","1","0","4","","","","","","","","",""
"pit-trial","50","497736","0.0-2.0-17.1-4.1","battery-v0.2","","""event"",""trial"",""time""
""fullscreenenter"",""1"",""6488""
","
","
","""event"",""trial"",""time""
""fullscreenenter"",""1"",""6488""
","
","","","224.29999999701977","","","23","1241","542","&#9789;","elianto","#f73b6a7A"," "," ","1","0","[1076.1999999955297]","1","0","4","","","","","","","","",""
"pit-trial","51","501041","0.0-2.0-17.2-0.2","battery-v0.2","","""event"",""trial"",""time""
""fullscreenenter"",""1"",""6488""
","
","
","""event"",""trial"",""time""
""fullscreenenter"",""1"",""6488""
","
","","","451","","","23","1241","542","&#9789;","elianto","#f73b6a7A"," "," ","1","0","[1301.7000000029802]","1","0","4","","","","","","","","",""
"pit-trial","52","504152","0.0-2.0-17.2-1.2","battery-v0.2","","""event"",""trial"",""time""
""fullscreenenter"",""1"",""6488""
","
","
","""event"",""trial"",""time""
""fullscreenenter"",""1"",""6488""
","
","","","255.79999999701977","","","23","1241","542","&#9789;","elianto","#f73b6a7A"," "," ","1","0","[1108.6000000014901]","1","0","4","","","","","","","","",""
"pit-trial","53","507398","0.0-2.0-17.2-2.2","battery-v0.2","","""event"",""trial"",""time""
""fullscreenenter"",""1"",""6488""
","
","
","""event"",""trial"",""time""
""fullscreenenter"",""1"",""6488""
","
","","","391.3999999985099","","","23","1241","542","&#9789;","elianto","#f73b6a7A"," "," ","1","0","[1243.2000000029802]","1","0","4","","","","","","","","",""
"pit-trial","54","510443","0.0-2.0-17.2-3.2","battery-v0.2","","""event"",""trial"",""time""
""fullscreenenter"",""1"",""6488""
","
","
","""event"",""trial"",""time""
""fullscreenenter"",""1"",""6488""
","
","","","191.69999999552965","","","23","1241","542","&#9789;","elianto","#f73b6a7A"," "," ","1","-10","[1043.0999999940395]","1","0","4","","","","","","","","",""
"pit-trial","55","513477","0.0-2.0-17.2-4.2","battery-v0.2","","""event"",""trial"",""time""
""fullscreenenter"",""1"",""6488""
","
","
","""event"",""trial"",""time""
""fullscreenenter"",""1"",""6488""
","
","","","181.30000000447035","","","23","1241","542","&#9789;","elianto","#f73b6a7A"," "," ","1","0","[1032]","1","0","4","","","","","","","","",""
"call-function","56","513478","0.0-2.0-18.0","battery-v0.2","","""event"",""trial"",""time""
""fullscreenenter"",""1"",""6488""
","
","
","""event"",""trial"",""time""
""fullscreenenter"",""1"",""6488""
","
","","","","","","","","","","","","","","","","","","","","","","","","","","","",""
"pit-instructions","57","591814","0.0-2.0-19.0","battery-v0.2","","""event"",""trial"",""time""
""fullscreenenter"",""1"",""6488""
","
","
","""event"",""trial"",""time""
""fullscreenenter"",""1"",""6488""
","
","","[{""page_index"":0,""viewing_time"":6410.29999999702},{""page_index"":1,""viewing_time"":5942.70000000298},{""page_index"":2,""viewing_time"":9361.5},{""page_index"":3,""viewing_time"":6778.5},{""page_index"":4,""viewing_time"":7165.5999999940395},{""page_index"":5,""viewing_time"":19780.40000000596},{""page_index"":6,""viewing_time"":13657.79999999702},{""page_index"":7,""viewing_time"":5155.5},{""page_index"":8,""viewing_time"":4082.5}]","78335.09999999404","","","","","","","","","","","","","","","","","","","","","","","","",""
"pit-comprehension","58","596619","0.0-2.0-20.0-0.0","battery-v0.2","","""event"",""trial"",""time""
""fullscreenenter"",""1"",""6488""
","
","
","""event"",""trial"",""time""
""fullscreenenter"",""1"",""6488""
","
","","","4802.60000000149","[""SPACE""]","0","23","1241","542","","","","","","","","","","","","","","","","","","","",""
"pit-instructions","59","601467","0.0-2.0-20.0-1.0","battery-v0.2","","""event"",""trial"",""time""
""fullscreenenter"",""1"",""6488""
","
","
","""event"",""trial"",""time""
""fullscreenenter"",""1"",""6488""
","
","","[{""page_index"":0,""viewing_time"":4830.10000000149}]","4830.4000000059605","","","","","","","","","","","","","","","","","","","","","","","","",""
"pit-comprehension","60","607651","0.0-2.0-21.0-0.0","battery-v0.2","","""event"",""trial"",""time""
""fullscreenenter"",""1"",""6488""
","
","
","""event"",""trial"",""time""
""fullscreenenter"",""1"",""6488""
","
","","","6181.10000000149","[""10""]","0","23","1241","542","","","","","","","","","","","","","","","","","","","",""
"pit-instructions","61","611861","0.0-2.0-21.0-1.0","battery-v0.2","","""event"",""trial"",""time""
""fullscreenenter"",""1"",""6488""
","
","
","""event"",""trial"",""time""
""fullscreenenter"",""1"",""6488""
","
","","[{""page_index"":0,""viewing_time"":4191.29999999702}]","4191.5","","","","","","","","","","","","","","","","","","","","","","","","",""
"pit-comprehension","62","618348","0.0-2.0-22.0-0.0","battery-v0.2","","""event"",""trial"",""time""
""fullscreenenter"",""1"",""6488""
","
","
","""event"",""trial"",""time""
""fullscreenenter"",""1"",""6488""
","
","","","6484.29999999702","[""0""]","0","23","1241","542","","","","","","","","","","","","","","","","","","","",""
"pit-instructions","63","620020","0.0-2.0-22.0-1.0","battery-v0.2","","""event"",""trial"",""time""
""fullscreenenter"",""1"",""6488""
","
","
","""event"",""trial"",""time""
""fullscreenenter"",""1"",""6488""
","
","","[{""page_index"":0,""viewing_time"":1654.2000000029802}]","1654.5","","","","","","","","","","","","","","","","","","","","","","","","",""
"pit-comprehension","64","629532","0.0-2.0-23.0-0.0","battery-v0.2","","""event"",""trial"",""time""
""fullscreenenter"",""1"",""6488""
","
","
","""event"",""trial"",""time""
""fullscreenenter"",""1"",""6488""
","
","","","9509.10000000149","[""True""]","0","23","1241","542","","","","","","","","","","","","","","","","","","","",""
"pit-instructions","65","633537","0.0-2.0-23.0-1.0","battery-v0.2","","""event"",""trial"",""time""
""fullscreenenter"",""1"",""6488""
","
","
","""event"",""trial"",""time""
""fullscreenenter"",""1"",""6488""
","
","","[{""page_index"":0,""viewing_time"":3986.10000000149}]","3986.39999999851","","","","","","","","","","","","","","","","","","","","","","","","",""
"pit-comprehension","66","640968","0.0-2.0-24.0-0.0","battery-v0.2","","""event"",""trial"",""time""
""fullscreenenter"",""1"",""6488""
","
","
","""event"",""trial"",""time""
""fullscreenenter"",""1"",""6488""
","
","","","7428.39999999851","[""True""]","0","23","1241","542","","","","","","","","","","","","","","","","","","","",""
"pit-instructions","67","645332","0.0-2.0-24.0-1.0","battery-v0.2","","""event"",""trial"",""time""
""fullscreenenter"",""1"",""6488""
","
","
","""event"",""trial"",""time""
""fullscreenenter"",""1"",""6488""
","
","","[{""page_index"":0,""viewing_time"":4344.70000000298}]","4345.10000000149","","","","","","","","","","","","","","","","","","","","","","","","",""
"pit-comprehension","68","651736","0.0-2.0-25.0-0.0","battery-v0.2","","""event"",""trial"",""time""
""fullscreenenter"",""1"",""6488""
","
","
","""event"",""trial"",""time""
""fullscreenenter"",""1"",""6488""
","
","","","6400.5","[""True""]","0","23","1241","542","","","","","","","","","","","","","","","","","","","",""
"pit-instructions","69","657859","0.0-2.0-25.0-1.0","battery-v0.2","","""event"",""trial"",""time""
""fullscreenenter"",""1"",""6488""
","
","
","""event"",""trial"",""time""
""fullscreenenter"",""1"",""6488""
","
","","[{""page_index"":0,""viewing_time"":6103.70000000298}]","6103.9000000059605","","","","","","","","","","","","","","","","","","","","","","","","",""
"pit-comprehension","70","662332","0.0-2.0-26.0-0.0","battery-v0.2","","""event"",""trial"",""time""
""fullscreenenter"",""1"",""6488""
","
","
","""event"",""trial"",""time""
""fullscreenenter"",""1"",""6488""
","
","","","4470.69999999553","[""False""]","0","23","1241","542","","","","","","","","","","","","","","","","","","","",""
"pit-instructions","71","666352","0.0-2.0-26.0-1.0","battery-v0.2","","""event"",""trial"",""time""
""fullscreenenter"",""1"",""6488""
","
","
","""event"",""trial"",""time""
""fullscreenenter"",""1"",""6488""
","
","","[{""page_index"":0,""viewing_time"":4000.89999999851}]","4001.2000000029802","","","","","","","","","","","","","","","","","","","","","","","","",""
"pit-instructions","72","684147","0.0-3.0","battery-v0.2","","""event"",""trial"",""time""
""fullscreenenter"",""1"",""6488""
","
","
","""event"",""trial"",""time""
""fullscreenenter"",""1"",""6488""
","
","","[{""page_index"":0,""viewing_time"":4849.5},{""page_index"":1,""viewing_time"":5824.39999999851},{""page_index"":2,""viewing_time"":7118.10000000149}]","17792.39999999851","","","","","","","","","","","","","","","","","","","","","","","","",""
"pit-trial","73","687912","0.0-4.0","battery-v0.2","","""event"",""trial"",""time""
""fullscreenenter"",""1"",""6488""
","
","
","""event"",""trial"",""time""
""fullscreenenter"",""1"",""6488""
","
","","","909.2999999970198","","","23","1241","542","&#9733;","elianto","#3366ff99","-1"," ","0","0","[1761.3999999985099]","1","1","","","1241","1","2","2","win","no-go","0","[]"
"pit-trial","74","691723","0.0-5.0","battery-v0.2","","""event"",""trial"",""time""
""fullscreenenter"",""1"",""6488""
","
","
","""event"",""trial"",""time""
""fullscreenenter"",""1"",""6488""
","
","","","955.5","","","23","1241","542","&#9752;","elianto","#f73b6a7A"," "," ","1","0","[1806.1000000014901]","1","1","","","1241","2","3","3","lose","go","0","0"
"pit-trial","75","695571","0.0-6.0","battery-v0.2","","""event"",""trial"",""time""
""fullscreenenter"",""1"",""6488""
","
","
","""event"",""trial"",""time""
""fullscreenenter"",""1"",""6488""
","
","","","993.4000000059605","","","23","1241","542","&#9728;","elianto","#f73b6a7A","-1"," ","0","-10","[1843.3999999985099]","1","1","","","1241","3","0","4","lose","no-go","0","0"
"pit-trial","76","699868","0.0-7.0","battery-v0.2","","""event"",""trial"",""time""
""fullscreenenter"",""1"",""6488""
","
","
","""event"",""trial"",""time""
""fullscreenenter"",""1"",""6488""
","
","","","1442.3000000044703","","","23","1241","542","&#9730;","elianto","#3366ff99"," "," ","1","+10","[2294]","1","1","","","1241","4","1","1","win","go","0","0"
"pit-trial","77","703238","0.0-8.0","battery-v0.2","","""event"",""trial"",""time""
""fullscreenenter"",""1"",""6488""
","
","
","""event"",""trial"",""time""
""fullscreenenter"",""1"",""6488""
","
","","","515.5","","","23","1241","542","&#9752;","elianto","#f73b6a7A"," "," ","1","-10","[1366.3000000044703]","1","1","","","1241","5","3","3","lose","go","1","0"
"pit-trial","78","707547","0.0-9.0","battery-v0.2","","""event"",""trial"",""time""
""fullscreenenter"",""1"",""6488""
","
","
","""event"",""trial"",""time""
""fullscreenenter"",""1"",""6488""
","
","","","1455.6999999955297","","","23","1241","542","&#9728;","elianto","#f73b6a7A","-1"," ","0","-10","[2306.6999999955297]","1","1","","","1241","6","0","4","lose","no-go","0","0"
"pit-trial","79","711205","0.0-10.0","battery-v0.2","","""event"",""trial"",""time""
""fullscreenenter"",""1"",""6488""
","
","
","""event"",""trial"",""time""
""fullscreenenter"",""1"",""6488""
","
","","","804.7000000029802","","","23","1241","542","&#9733;","elianto","#3366ff99","-1"," ","0","0","[1655]","1","1","","","1241","7","2","2","win","no-go","0","0"
"pit-trial","80","716060","0.0-11.0","battery-v0.2","","""event"",""trial"",""time""
""fullscreenenter"",""1"",""6488""
","
","
","""event"",""trial"",""time""
""fullscreenenter"",""1"",""6488""
","
","","","-1","","","23","1241","542","&#9730;","elianto","#3366ff99"," ","-1","0","0","[]","0","1","","","1241","8","1","1","win","go","0","0"
"pit-trial","81","720914","0.0-12.0","battery-v0.2","","""event"",""trial"",""time""
""fullscreenenter"",""1"",""6488""
","
","
","""event"",""trial"",""time""
""fullscreenenter"",""1"",""6488""
","
","","","-1","","","23","1241","542","&#9730;","elianto","#3366ff99"," ","-1","0","0","[]","0","1","","","1241","9","1","1","win","go","0","0"
"pit-trial","82","725025","0.0-13.0","battery-v0.2","","""event"",""trial"",""time""
""fullscreenenter"",""1"",""6488""
","
","
","""event"",""trial"",""time""
""fullscreenenter"",""1"",""6488""
","
","","","1255.1999999955297","","","23","1241","542","&#9733;","elianto","#3366ff99","-1"," ","0","0","[2107.6999999955297]","1","1","","","1241","10","2","2","win","no-go","0","0"
"pit-trial","83","729880","0.0-14.0","battery-v0.2","","""event"",""trial"",""time""
""fullscreenenter"",""1"",""6488""
","
","
","""event"",""trial"",""time""
""fullscreenenter"",""1"",""6488""
","
","","","-1","","","23","1241","542","&#9752;","elianto","#f73b6a7A"," ","-1","0","-10","[]","0","1","","","1241","11","3","3","lose","go","0","0"
"pit-trial","84","734735","0.0-15.0","battery-v0.2","","""event"",""trial"",""time""
""fullscreenenter"",""1"",""6488""
","
","
","""event"",""trial"",""time""
""fullscreenenter"",""1"",""6488""
","
","","","-1","","","23","1241","542","&#9728;","elianto","#f73b6a7A","-1","-1","1","0","[]","0","1","","","1241","12","0","4","lose","no-go","0","0"
"pit-trial","85","739590","0.0-16.0","battery-v0.2","","""event"",""trial"",""time""
""fullscreenenter"",""1"",""6488""
","
","
","""event"",""trial"",""time""
""fullscreenenter"",""1"",""6488""
","
","","","-1","","","23","1241","542","&#9728;","elianto","#f73b6a7A","-1","-1","1","0","[]","0","1","","","1241","13","0","4","lose","no-go","0","0"
"pit-trial","86","744105","0.0-17.0","battery-v0.2","","""event"",""trial"",""time""
""fullscreenenter"",""1"",""6488""
","
","
","""event"",""trial"",""time""
""fullscreenenter"",""1"",""6488""
","
","","","1662.4000000059605","","","23","1241","542","&#9730;","elianto","#3366ff99"," "," ","1","+10","[2512.7000000029802]","1","1","","","1241","14","1","1","win","go","0","0"
"pit-trial","87","748959","0.0-18.0","battery-v0.2","","""event"",""trial"",""time""
""fullscreenenter"",""1"",""6488""
","
","
","""event"",""trial"",""time""
""fullscreenenter"",""1"",""6488""
","
","","","-1","","","23","1241","542","&#9733;","elianto","#3366ff99","-1","-1","1","+10","[]","0","1","","","1241","15","2","2","win","no-go","0","0"
"pit-trial","88","753691","0.0-19.0","battery-v0.2","","""event"",""trial"",""time""
""fullscreenenter"",""1"",""6488""
","
","
","""event"",""trial"",""time""
""fullscreenenter"",""1"",""6488""
","
","","","1879.6000000014901","","","23","1241","542","&#9752;","elianto","#f73b6a7A"," "," ","1","-10","[2730.10000000149]","1","1","","","1241","16","3","3","lose","go","1","0"
"pit-trial","89","758544","0.0-20.0","battery-v0.2","","""event"",""trial"",""time""
""fullscreenenter"",""1"",""6488""
","
","
","""event"",""trial"",""time""
""fullscreenenter"",""1"",""6488""
","
","","","-1","","","23","1241","542","&#9752;","elianto","#f73b6a7A"," ","-1","0","-10","[]","0","1","","","1241","17","3","3","lose","go","0","0"
"pit-trial","90","763401","0.0-21.0","battery-v0.2","","""event"",""trial"",""time""
""fullscreenenter"",""1"",""6488""
","
","
","""event"",""trial"",""time""
""fullscreenenter"",""1"",""6488""
","
","","","-1","","","23","1241","542","&#9728;","elianto","#f73b6a7A","-1","-1","1","0","[0.20000000298023224]","1","1","","","1241","18","0","4","lose","no-go","0","0"
"pit-trial","91","767515","0.0-22.0","battery-v0.2","","""event"",""trial"",""time""
""fullscreenenter"",""1"",""6488""
","
","
","""event"",""trial"",""time""
""fullscreenenter"",""1"",""6488""
","
","","","1260.7000000029802","","","23","1241","542","&#9730;","elianto","#3366ff99"," "," ","1","+10","[2110.8000000044703]","1","1","","","1241","19","1","1","win","go","0","0"
"pit-trial","92","772371","0.0-23.0","battery-v0.2","","""event"",""trial"",""time""
""fullscreenenter"",""1"",""6488""
","
","
","""event"",""trial"",""time""
""fullscreenenter"",""1"",""6488""
","
","","","-1","","","23","1241","542","&#9733;","elianto","#3366ff99","-1","-1","1","+10","[]","0","1","","","1241","20","2","2","win","no-go","0","0"
"pit-instructions","93","794200","0.0-24.0","battery-v0.2","","""event"",""trial"",""time""
""fullscreenenter"",""1"",""6488""
","
","
","""event"",""trial"",""time""
""fullscreenenter"",""1"",""6488""
","
","","[{""page_index"":0,""viewing_time"":8473.70000000298},{""page_index"":1,""viewing_time"":13353}]","21827.20000000298","","","","","","","","","","","","","","","","","","","","","","","","",""
"pit-trial","94","798129","0.0-25.0","battery-v0.2","","""event"",""trial"",""time""
""fullscreenenter"",""1"",""6488""
","
","
","""event"",""trial"",""time""
""fullscreenenter"",""1"",""6488""
","
","","","1074.8999999985099","","","23","1241","542","h","elianto","#3366ff99"," "," ","1","+10","[1925.6000000014901]","1","2","","","1241","21","3","1","win","go","0","0"
"pit-trial","95","802984","0.0-26.0","battery-v0.2","","""event"",""trial"",""time""
""fullscreenenter"",""1"",""6488""
","
","
","""event"",""trial"",""time""
""fullscreenenter"",""1"",""6488""
","
","","","-1","","","23","1241","542","r","elianto","#f73b6a7A"," ","-1","0","-10","[]","0","2","","","1241","22","1","3","lose","go","0","0"
"pit-trial","96","807223","0.0-27.0","battery-v0.2","","""event"",""trial"",""time""
""fullscreenenter"",""1"",""6488""
","
","
","""event"",""trial"",""time""
""fullscreenenter"",""1"",""6488""
","
","","","1384.4000000059605","","","23","1241","542","m","elianto","#3366ff99","-1"," ","0","0","[2235.2000000029802]","1","2","","","1241","23","0","2","win","no-go","0","0"
"pit-trial","97","812077","0.0-28.0","battery-v0.2","","""event"",""trial"",""time""
""fullscreenenter"",""1"",""6488""
","
","
","""event"",""trial"",""time""
""fullscreenenter"",""1"",""6488""
","
","","","-1","","","23","1241","542","y","elianto","#f73b6a7A","-1","-1","1","-10","[]","0","2","","","1241","24","2","4","lose","no-go","1","0"
"pit-trial","98","816221","0.0-29.0","battery-v0.2","","""event"",""trial"",""time""
""fullscreenenter"",""1"",""6488""
","
","
","""event"",""trial"",""time""
""fullscreenenter"",""1"",""6488""
","
","","","1290.5","","","23","1241","542","r","elianto","#f73b6a7A"," "," ","1","0","[2141.39999999851]","1","2","","","1241","25","1","3","lose","go","0","0"
"pit-trial","99","820523","0.0-30.0","battery-v0.2","","""event"",""trial"",""time""
""fullscreenenter"",""1"",""6488""
","
","
","""event"",""trial"",""time""
""fullscreenenter"",""1"",""6488""
","
","","","1449.7000000029802","","","23","1241","542","h","elianto","#3366ff99"," "," ","1","0","[2299.8000000044703]","1","2","","","1241","26","3","1","win","go","1","0"
"pit-trial","100","824729","0.0-31.0","battery-v0.2","","""event"",""trial"",""time""
""fullscreenenter"",""1"",""6488""
","
","
","""event"",""trial"",""time""
""fullscreenenter"",""1"",""6488""
","
","","","1352.6999999955297","","","23","1241","542","m","elianto","#3366ff99","-1"," ","0","0","[2203]","1","2","","","1241","27","0","2","win","no-go","0","0"
"pit-trial","101","829583","0.0-32.0","battery-v0.2","","""event"",""trial"",""time""
""fullscreenenter"",""1"",""6488""
","
","
","""event"",""trial"",""time""
""fullscreenenter"",""1"",""6488""
","
","","","-1","","","23","1241","542","y","elianto","#f73b6a7A","-1","-1","1","-10","[]","0","2","","","1241","28","2","4","lose","no-go","1","0"
"pit-trial","102","834437","0.0-33.0","battery-v0.2","","""event"",""trial"",""time""
""fullscreenenter"",""1"",""6488""
","
","
","""event"",""trial"",""time""
""fullscreenenter"",""1"",""6488""
","
","","","-1","","","23","1241","542","m","elianto","#3366ff99","-1","-1","1","0","[]","0","2","","","1241","29","0","2","win","no-go","1","0"
"pit-trial","103","839290","0.0-34.0","battery-v0.2","","""event"",""trial"",""time""
""fullscreenenter"",""1"",""6488""
","
","
","""event"",""trial"",""time""
""fullscreenenter"",""1"",""6488""
","
","","","-1","","","23","1241","542","y","elianto","#f73b6a7A","-1","-1","1","0","[]","0","2","","","1241","30","2","4","lose","no-go","0","0"
"pit-trial","104","843621","0.0-35.0","battery-v0.2","","""event"",""trial"",""time""
""fullscreenenter"",""1"",""6488""
","
","
","""event"",""trial"",""time""
""fullscreenenter"",""1"",""6488""
","
","","","1475.9000000059605","","","23","1241","542","r","elianto","#f73b6a7A"," "," ","1","-10","[2326.3000000044703]","1","2","","","1241","31","1","3","lose","go","1","0"
"pit-trial","105","847774","0.0-36.0","battery-v0.2","","""event"",""trial"",""time""
""fullscreenenter"",""1"",""6488""
","
","
","""event"",""trial"",""time""
""fullscreenenter"",""1"",""6488""
","
","","","1299.1000000014901","","","23","1241","542","h","elianto","#3366ff99"," "," ","1","+10","[2149.5999999940395]","1","2","","","1241","32","3","1","win","go","0","0"
"pit-trial","106","852565","0.0-37.0","battery-v0.2","","""event"",""trial"",""time""
""fullscreenenter"",""1"",""6488""
","
","
","""event"",""trial"",""time""
""fullscreenenter"",""1"",""6488""
","
","","","1937.2000000029802","","","23","1241","542","r","elianto","#f73b6a7A"," "," ","1","0","[2787.3000000044703]","1","2","","","1241","33","1","3","lose","go","0","0"
"pit-trial","107","857419","0.0-38.0","battery-v0.2","","""event"",""trial"",""time""
""fullscreenenter"",""1"",""6488""
","
","
","""event"",""trial"",""time""
""fullscreenenter"",""1"",""6488""
","
","","","-1","","","23","1241","542","m","elianto","#3366ff99","-1","-1","1","+10","[]","0","2","","","1241","34","0","2","win","no-go","0","0"
"pit-trial","108","862275","0.0-39.0","battery-v0.2","","""event"",""trial"",""time""
""fullscreenenter"",""1"",""6488""
","
","
","""event"",""trial"",""time""
""fullscreenenter"",""1"",""6488""
","
","","","-1","","","23","1241","542","y","elianto","#f73b6a7A","-1","-1","1","0","[]","0","2","","","1241","35","2","4","lose","no-go","0","0"
"pit-trial","109","866313","0.0-40.0","battery-v0.2","","""event"",""trial"",""time""
""fullscreenenter"",""1"",""6488""
","
","
","""event"",""trial"",""time""
""fullscreenenter"",""1"",""6488""
","
","","","1184.6999999955297","","","23","1241","542","h","elianto","#3366ff99"," "," ","1","0","[2035.3999999985099]","1","2","","","1241","36","3","1","win","go","1","0"
"pit-trial","110","871168","0.0-41.0","battery-v0.2","","""event"",""trial"",""time""
""fullscreenenter"",""1"",""6488""
","
","
","""event"",""trial"",""time""
""fullscreenenter"",""1"",""6488""
","
","","","-1","","","23","1241","542","m","elianto","#3366ff99","-1","-1","1","+10","[]","0","2","","","1241","37","0","2","win","no-go","0","0"
"pit-trial","111","876022","0.0-42.0","battery-v0.2","","""event"",""trial"",""time""
""fullscreenenter"",""1"",""6488""
","
","
","""event"",""trial"",""time""
""fullscreenenter"",""1"",""6488""
","
","","","-1","","","23","1241","542","y","elianto","#f73b6a7A","-1","-1","1","0","[]","0","2","","","1241","38","2","4","lose","no-go","0","0"
"pit-trial","112","880515","0.0-43.0","battery-v0.2","","""event"",""trial"",""time""
""fullscreenenter"",""1"",""6488""
","
","
","""event"",""trial"",""time""
""fullscreenenter"",""1"",""6488""
","
","","","1639.2000000029802","","","23","1241","542","h","elianto","#3366ff99"," "," ","1","+10","[2490]","1","2","","","1241","39","3","1","win","go","0","0"
"pit-trial","113","884793","0.0-44.0","battery-v0.2","","""event"",""trial"",""time""
""fullscreenenter"",""1"",""6488""
","
","
","""event"",""trial"",""time""
""fullscreenenter"",""1"",""6488""
","
","","","1422.2000000029802","","","23","1241","542","r","elianto","#f73b6a7A"," "," ","1","0","[2272.60000000149]","1","2","","","1241","40","1","3","lose","go","0","0"
"pit-trial","114","889649","0.0-45.0","battery-v0.2","","""event"",""trial"",""time""
""fullscreenenter"",""1"",""6488""
","
","
","""event"",""trial"",""time""
""fullscreenenter"",""1"",""6488""
","
","","","-1","","","23","1241","542","m","elianto","#3366ff99","-1","-1","1","+10","[]","0","2","","","1241","41","0","2","win","no-go","0","0"
"pit-trial","115","894504","0.0-46.0","battery-v0.2","","""event"",""trial"",""time""
""fullscreenenter"",""1"",""6488""
","
","
","""event"",""trial"",""time""
""fullscreenenter"",""1"",""6488""
","
","","","-1","","","23","1241","542","y","elianto","#f73b6a7A","-1","-1","1","0","[]","0","2","","","1241","42","2","4","lose","no-go","0","0"
"pit-trial","116","898896","0.0-47.0","battery-v0.2","","""event"",""trial"",""time""
""fullscreenenter"",""1"",""6488""
","
","
","""event"",""trial"",""time""
""fullscreenenter"",""1"",""6488""
","
","","","1536.2000000029802","","","23","1241","542","r","elianto","#f73b6a7A"," "," ","1","0","[2387.2999999970198,3167.89999999851]","2","2","","","1241","43","1","3","lose","go","0","0"
"pit-trial","117","902887","0.0-48.0","battery-v0.2","","""event"",""trial"",""time""
""fullscreenenter"",""1"",""6488""
","
","
","""event"",""trial"",""time""
""fullscreenenter"",""1"",""6488""
","
","","","1137.0999999940395","","","23","1241","542","h","elianto","#3366ff99"," "," ","1","+10","[1987.3999999985099]","1","2","","","1241","44","3","1","win","go","0","0"
"pit-trial","118","907741","0.0-49.0","battery-v0.2","","""event"",""trial"",""time""
""fullscreenenter"",""1"",""6488""
","
","
","""event"",""trial"",""time""
""fullscreenenter"",""1"",""6488""
","
","","","-1","","","23","1241","542","y","elianto","#f73b6a7A","-1","-1","1","-10","[]","0","2","","","1241","45","2","4","lose","no-go","1","0"
"pit-trial","119","911842","0.0-50.0","battery-v0.2","","""event"",""trial"",""time""
""fullscreenenter"",""1"",""6488""
","
","
","""event"",""trial"",""time""
""fullscreenenter"",""1"",""6488""
","
","","","1248.6000000014901","","","23","1241","542","h","elianto","#3366ff99"," "," ","1","+10","[2098.7999999970198]","1","2","","","1241","46","3","1","win","go","0","0"
"pit-trial","120","916134","0.0-51.0","battery-v0.2","","""event"",""trial"",""time""
""fullscreenenter"",""1"",""6488""
","
","
","""event"",""trial"",""time""
""fullscreenenter"",""1"",""6488""
","
","","","1440.6000000014901","","","23","1241","542","r","elianto","#f73b6a7A"," "," ","1","-10","[2290.7999999970198]","1","2","","","1241","47","1","3","lose","go","1","0"
"pit-trial","121","920987","0.0-52.0","battery-v0.2","","""event"",""trial"",""time""
""fullscreenenter"",""1"",""6488""
","
","
","""event"",""trial"",""time""
""fullscreenenter"",""1"",""6488""
","
","","","-1","","","23","1241","542","m","elianto","#3366ff99","-1","-1","1","+10","[]","0","2","","","1241","48","0","2","win","no-go","0","0"
"pit-trial","122","925246","0.0-53.0","battery-v0.2","","""event"",""trial"",""time""
""fullscreenenter"",""1"",""6488""
","
","
","""event"",""trial"",""time""
""fullscreenenter"",""1"",""6488""
","
","","","1404.8999999985099","","","23","1241","542","h","elianto","#3366ff99"," "," ","1","+10","[2256.2000000029802]","1","2","","","1241","49","3","1","win","go","0","0"
"pit-trial","123","930101","0.0-54.0","battery-v0.2","","""event"",""trial"",""time""
""fullscreenenter"",""1"",""6488""
","
","
","""event"",""trial"",""time""
""fullscreenenter"",""1"",""6488""
","
","","","-1","","","23","1241","542","m","elianto","#3366ff99","-1","-1","1","+10","[]","0","2","","","1241","50","0","2","win","no-go","0","0"
"pit-trial","124","934955","0.0-55.0","battery-v0.2","","""event"",""trial"",""time""
""fullscreenenter"",""1"",""6488""
","
","
","""event"",""trial"",""time""
""fullscreenenter"",""1"",""6488""
","
","","","-1","","","23","1241","542","y","elianto","#f73b6a7A","-1","-1","1","0","[]","0","2","","","1241","51","2","4","lose","no-go","0","0"
"pit-trial","125","939540","0.0-56.0","battery-v0.2","","""event"",""trial"",""time""
""fullscreenenter"",""1"",""6488""
","
","
","""event"",""trial"",""time""
""fullscreenenter"",""1"",""6488""
","
","","","1732","","","23","1241","542","r","elianto","#f73b6a7A"," "," ","1","0","[2582.7000000029802]","1","2","","","1241","52","1","3","lose","go","0","0"
"pit-trial","126","943722","0.0-57.0","battery-v0.2","","""event"",""trial"",""time""
""fullscreenenter"",""1"",""6488""
","
","
","""event"",""trial"",""time""
""fullscreenenter"",""1"",""6488""
","
","","","1328.6999999955297","","","23","1241","542","r","elianto","#f73b6a7A"," "," ","1","0","[2179.4000000059605]","1","2","","","1241","53","1","3","lose","go","0","0"
"pit-trial","127","948575","0.0-58.0","battery-v0.2","","""event"",""trial"",""time""
""fullscreenenter"",""1"",""6488""
","
","
","""event"",""trial"",""time""
""fullscreenenter"",""1"",""6488""
","
","","","-1","","","23","1241","542","y","elianto","#f73b6a7A","-1","-1","1","0","[]","0","2","","","1241","54","2","4","lose","no-go","0","0"
"pit-trial","128","952911","0.0-59.0","battery-v0.2","","""event"",""trial"",""time""
""fullscreenenter"",""1"",""6488""
","
","
","""event"",""trial"",""time""
""fullscreenenter"",""1"",""6488""
","
","","","1480.2000000029802","","","23","1241","542","c","elianto","#f73b6a7A","-1"," ","0","0","[2331.2000000029802]","1","2","","","1241","55","5","4","lose","no-go","1","0"
"pit-trial","129","956744","0.0-60.0","battery-v0.2","","""event"",""trial"",""time""
""fullscreenenter"",""1"",""6488""
","
","
","""event"",""trial"",""time""
""fullscreenenter"",""1"",""6488""
","
","","","979","","","23","1241","542","z","elianto","#f73b6a7A"," "," ","1","0","[1829.0999999940395]","1","2","","","1241","56","4","3","lose","go","0","0"
"pit-trial","130","961598","0.0-61.0","battery-v0.2","","""event"",""trial"",""time""
""fullscreenenter"",""1"",""6488""
","
","
","""event"",""trial"",""time""
""fullscreenenter"",""1"",""6488""
","
","","","-1","","","23","1241","542","y","elianto","#f73b6a7A","-1","-1","1","-10","[]","0","2","","","1241","57","2","4","lose","no-go","1","0"
"pit-trial","131","966253","0.0-62.0","battery-v0.2","","""event"",""trial"",""time""
""fullscreenenter"",""1"",""6488""
","
","
","""event"",""trial"",""time""
""fullscreenenter"",""1"",""6488""
","
","","","1801.6999999955297","","","23","1241","542","r","elianto","#f73b6a7A"," "," ","1","0","[2652.4000000059605]","1","2","","","1241","58","1","3","lose","go","0","0"
"pit-trial","132","970236","0.0-63.0","battery-v0.2","","""event"",""trial"",""time""
""fullscreenenter"",""1"",""6488""
","
","
","""event"",""trial"",""time""
""fullscreenenter"",""1"",""6488""
","
","","","1127.5","","","23","1241","542","z","elianto","#f73b6a7A"," "," ","1","0","[1977.6000000014901]","1","2","","","1241","59","4","3","lose","go","0","0"
"pit-trial","133","974483","0.0-64.0","battery-v0.2","","""event"",""trial"",""time""
""fullscreenenter"",""1"",""6488""
","
","
","""event"",""trial"",""time""
""fullscreenenter"",""1"",""6488""
","
","","","1394.1000000014901","","","23","1241","542","c","elianto","#f73b6a7A","-1"," ","0","-10","[2244.7999999970198]","1","2","","","1241","60","5","4","lose","no-go","0","0"
"pit-trial","134","979338","0.0-65.0","battery-v0.2","","""event"",""trial"",""time""
""fullscreenenter"",""1"",""6488""
","
","
","""event"",""trial"",""time""
""fullscreenenter"",""1"",""6488""
","
","","","-1","","","23","1241","542","z","elianto","#f73b6a7A"," ","-1","0","-10","[3271.5]","1","2","","","1241","61","4","3","lose","go","0","0"
"pit-trial","135","983466","0.0-66.0","battery-v0.2","","""event"",""trial"",""time""
""fullscreenenter"",""1"",""6488""
","
","
","""event"",""trial"",""time""
""fullscreenenter"",""1"",""6488""
","
","","","1274.3000000044703","","","23","1241","542","c","elianto","#f73b6a7A","-1"," ","0","-10","[2124.5,3974.2999999970198]","2","2","","","1241","62","5","4","lose","no-go","0","0"
"pit-trial","136","987914","0.0-67.0","battery-v0.2","","""event"",""trial"",""time""
""fullscreenenter"",""1"",""6488""
","
","
","""event"",""trial"",""time""
""fullscreenenter"",""1"",""6488""
","
","","","1594.2000000029802","","","23","1241","542","b","elianto","#3366ff99","-1"," ","0","0","[2444.5]","1","2","","","1241","63","6","2","win","no-go","0","0"
"pit-trial","137","992771","0.0-68.0","battery-v0.2","","""event"",""trial"",""time""
""fullscreenenter"",""1"",""6488""
","
","
","""event"",""trial"",""time""
""fullscreenenter"",""1"",""6488""
","
","","","-1","","","23","1241","542","y","elianto","#f73b6a7A","-1","-1","1","0","[]","0","2","","","1241","64","2","4","lose","no-go","0","0"
"pit-trial","138","997625","0.0-69.0","battery-v0.2","","""event"",""trial"",""time""
""fullscreenenter"",""1"",""6488""
","
","
","""event"",""trial"",""time""
""fullscreenenter"",""1"",""6488""
","
","","","-1","","","23","1241","542","c","elianto","#f73b6a7A","-1","-1","1","-10","[]","0","2","","","1241","65","5","4","lose","no-go","1","0"
"pit-trial","139","1002479","0.0-70.0","battery-v0.2","","""event"",""trial"",""time""
""fullscreenenter"",""1"",""6488""
","
","
","""event"",""trial"",""time""
""fullscreenenter"",""1"",""6488""
","
","","","-1","","","23","1241","542","b","elianto","#3366ff99","-1","-1","1","+10","[]","0","2","","","1241","66","6","2","win","no-go","0","0"
"pit-trial","140","1006826","0.0-71.0","battery-v0.2","","""event"",""trial"",""time""
""fullscreenenter"",""1"",""6488""
","
","
","""event"",""trial"",""time""
""fullscreenenter"",""1"",""6488""
","
","","","1492.8999999985099","","","23","1241","542","z","elianto","#f73b6a7A"," "," ","1","0","[2344.6999999955297]","1","2","","","1241","67","4","3","lose","go","0","0"
"pit-trial","141","1011680","0.0-72.0","battery-v0.2","","""event"",""trial"",""time""
""fullscreenenter"",""1"",""6488""
","
","
","""event"",""trial"",""time""
""fullscreenenter"",""1"",""6488""
","
","","","-1","","","23","1241","542","y","elianto","#f73b6a7A","-1","-1","1","0","[]","0","2","","","1241","68","2","4","lose","no-go","0","0"
"pit-trial","142","1015795","0.0-73.0","battery-v0.2","","""event"",""trial"",""time""
""fullscreenenter"",""1"",""6488""
","
","
","""event"",""trial"",""time""
""fullscreenenter"",""1"",""6488""
","
","","","1260.7000000029802","","","23","1241","542","z","elianto","#f73b6a7A"," "," ","1","-10","[2112]","1","2","","","1241","69","4","3","lose","go","1","0"
"pit-trial","143","1020207","0.0-74.0","battery-v0.2","","""event"",""trial"",""time""
""fullscreenenter"",""1"",""6488""
","
","
","""event"",""trial"",""time""
""fullscreenenter"",""1"",""6488""
","
","","","1556.9000000059605","","","23","1241","542","c","elianto","#f73b6a7A","-1"," ","0","-10","[2407.5]","1","2","","","1241","70","5","4","lose","no-go","0","0"
"pit-trial","144","1024427","0.0-75.0","battery-v0.2","","""event"",""trial"",""time""
""fullscreenenter"",""1"",""6488""
","
","
","""event"",""trial"",""time""
""fullscreenenter"",""1"",""6488""
","
","","","1362.8999999985099","","","23","1241","542","t","elianto","#3366ff99"," "," ","1","+10","[2215.5]","1","2","","","1241","71","7","1","win","go","0","0"
"pit-trial","145","1029284","0.0-76.0","battery-v0.2","","""event"",""trial"",""time""
""fullscreenenter"",""1"",""6488""
","
","
","""event"",""trial"",""time""
""fullscreenenter"",""1"",""6488""
","
","","","-1","","","23","1241","542","b","elianto","#3366ff99","-1","-1","1","+10","[]","0","2","","","1241","72","6","2","win","no-go","0","0"
"pit-trial","146","1034138","0.0-77.0","battery-v0.2","","""event"",""trial"",""time""
""fullscreenenter"",""1"",""6488""
","
","
","""event"",""trial"",""time""
""fullscreenenter"",""1"",""6488""
","
","","","-1","","","23","1241","542","c","elianto","#f73b6a7A","-1","-1","1","-10","[]","0","2","","","1241","73","5","4","lose","no-go","1","0"
"pit-trial","147","1038994","0.0-78.0","battery-v0.2","","""event"",""trial"",""time""
""fullscreenenter"",""1"",""6488""
","
","
","""event"",""trial"",""time""
""fullscreenenter"",""1"",""6488""
","
","","","-1","","","23","1241","542","b","elianto","#3366ff99","-1","-1","1","+10","[]","0","2","","","1241","74","6","2","win","no-go","0","0"
"pit-trial","148","1043185","0.0-79.0","battery-v0.2","","""event"",""trial"",""time""
""fullscreenenter"",""1"",""6488""
","
","
","""event"",""trial"",""time""
""fullscreenenter"",""1"",""6488""
","
","","","1337.2000000029802","","","23","1241","542","t","elianto","#3366ff99"," "," ","1","+10","[2187.8000000044703]","1","2","","","1241","75","7","1","win","go","0","0"
"pit-trial","149","1047994","0.0-80.0","battery-v0.2","","""event"",""trial"",""time""
""fullscreenenter"",""1"",""6488""
","
","
","""event"",""trial"",""time""
""fullscreenenter"",""1"",""6488""
","
","","","1953.2000000029802","","","23","1241","542","z","elianto","#f73b6a7A"," "," ","1","0","[2804.4000000059605]","1","2","","","1241","76","4","3","lose","go","0","0"
"pit-trial","150","1051981","0.0-81.0","battery-v0.2","","""event"",""trial"",""time""
""fullscreenenter"",""1"",""6488""
","
","
","""event"",""trial"",""time""
""fullscreenenter"",""1"",""6488""
","
","","","1132.5","","","23","1241","542","c","elianto","#f73b6a7A","-1"," ","0","0","[1984.6000000014901]","1","2","","","1241","77","5","4","lose","no-go","1","0"
"pit-trial","151","1056411","0.0-82.0","battery-v0.2","","""event"",""trial"",""time""
""fullscreenenter"",""1"",""6488""
","
","
","""event"",""trial"",""time""
""fullscreenenter"",""1"",""6488""
","
","","","1576.5","","","23","1241","542","z","elianto","#f73b6a7A"," "," ","1","-10","[2426.60000000149]","1","2","","","1241","78","4","3","lose","go","1","0"
"pit-trial","152","1061267","0.0-83.0","battery-v0.2","","""event"",""trial"",""time""
""fullscreenenter"",""1"",""6488""
","
","
","""event"",""trial"",""time""
""fullscreenenter"",""1"",""6488""
","
","","","-1","","","23","1241","542","b","elianto","#3366ff99","-1","-1","1","+10","[]","0","2","","","1241","79","6","2","win","no-go","0","0"
"pit-trial","153","1065578","0.0-84.0","battery-v0.2","","""event"",""trial"",""time""
""fullscreenenter"",""1"",""6488""
","
","
","""event"",""trial"",""time""
""fullscreenenter"",""1"",""6488""
","
","","","1457.1000000014901","","","23","1241","542","t","elianto","#3366ff99"," "," ","1","+10","[2308.10000000149]","1","2","","","1241","80","7","1","win","go","0","0"
"pit-trial","154","1070431","0.0-85.0","battery-v0.2","","""event"",""trial"",""time""
""fullscreenenter"",""1"",""6488""
","
","
","""event"",""trial"",""time""
""fullscreenenter"",""1"",""6488""
","
","","","-1","","","23","1241","542","b","elianto","#3366ff99","-1","-1","1","+10","[]","0","2","","","1241","81","6","2","win","no-go","0","0"
"pit-trial","155","1074804","0.0-86.0","battery-v0.2","","""event"",""trial"",""time""
""fullscreenenter"",""1"",""6488""
","
","
","""event"",""trial"",""time""
""fullscreenenter"",""1"",""6488""
","
","","","1517.3999999985099","","","23","1241","542","t","elianto","#3366ff99"," "," ","1","+10","[2368.2000000029802]","1","2","","","1241","82","7","1","win","go","0","0"
"pit-trial","156","1079373","0.0-87.0","battery-v0.2","","""event"",""trial"",""time""
""fullscreenenter"",""1"",""6488""
","
","
","""event"",""trial"",""time""
""fullscreenenter"",""1"",""6488""
","
","","","1713.2999999970198","","","23","1241","542","z","elianto","#f73b6a7A"," "," ","1","0","[2565.39999999851]","1","2","","","1241","83","4","3","lose","go","0","0"
"pit-trial","157","1083396","0.0-88.0","battery-v0.2","","""event"",""trial"",""time""
""fullscreenenter"",""1"",""6488""
","
","
","""event"",""trial"",""time""
""fullscreenenter"",""1"",""6488""
","
","","","1169.2999999970198","","","23","1241","542","c","elianto","#f73b6a7A","-1"," ","0","-10","[2019.3999999985099]","1","2","","","1241","84","5","4","lose","no-go","0","0"
"pit-trial","158","1088249","0.0-89.0","battery-v0.2","","""event"",""trial"",""time""
""fullscreenenter"",""1"",""6488""
","
","
","""event"",""trial"",""time""
""fullscreenenter"",""1"",""6488""
","
","","","-1","","","23","1241","542","b","elianto","#3366ff99","-1","-1","1","0","[]","0","2","","","1241","85","6","2","win","no-go","1","0"
"pit-trial","159","1092630","0.0-90.0","battery-v0.2","","""event"",""trial"",""time""
""fullscreenenter"",""1"",""6488""
","
","
","""event"",""trial"",""time""
""fullscreenenter"",""1"",""6488""
","
","","","1526.8999999985099","","","23","1241","542","c","elianto","#f73b6a7A","-1"," ","0","-10","[2378.2999999970198]","1","2","","","1241","86","5","4","lose","no-go","0","0"
"pit-trial","160","1096793","0.0-91.0","battery-v0.2","","""event"",""trial"",""time""
""fullscreenenter"",""1"",""6488""
","
","
","""event"",""trial"",""time""
""fullscreenenter"",""1"",""6488""
","
","","","1308.5","","","23","1241","542","z","elianto","#f73b6a7A"," "," ","1","0","[2160.10000000149]","1","2","","","1241","87","4","3","lose","go","0","0"
"pit-trial","161","1100923","0.0-92.0","battery-v0.2","","""event"",""trial"",""time""
""fullscreenenter"",""1"",""6488""
","
","
","""event"",""trial"",""time""
""fullscreenenter"",""1"",""6488""
","
","","","1277.6000000014901","","","23","1241","542","t","elianto","#3366ff99"," "," ","1","+10","[2128.10000000149]","1","2","","","1241","88","7","1","win","go","0","0"
"pit-trial","162","1105776","0.0-93.0","battery-v0.2","","""event"",""trial"",""time""
""fullscreenenter"",""1"",""6488""
","
","
","""event"",""trial"",""time""
""fullscreenenter"",""1"",""6488""
","
","","","-1","","","23","1241","542","b","elianto","#3366ff99","-1","-1","1","+10","[]","0","2","","","1241","89","6","2","win","no-go","0","0"
"pit-trial","163","1110232","0.0-94.0","battery-v0.2","","""event"",""trial"",""time""
""fullscreenenter"",""1"",""6488""
","
","
","""event"",""trial"",""time""
""fullscreenenter"",""1"",""6488""
","
","","","1602.1999999955297","","","23","1241","542","z","elianto","#f73b6a7A"," "," ","1","0","[2453.6999999955297]","1","2","","","1241","90","4","3","lose","go","0","0"
"pit-trial","164","1115088","0.0-95.0","battery-v0.2","","""event"",""trial"",""time""
""fullscreenenter"",""1"",""6488""
","
","
","""event"",""trial"",""time""
""fullscreenenter"",""1"",""6488""
","
","","","-1","","","23","1241","542","c","elianto","#f73b6a7A","-1","-1","1","-10","[]","0","2","","","1241","91","5","4","lose","no-go","1","0"
"pit-trial","165","1119226","0.0-96.0","battery-v0.2","","""event"",""trial"",""time""
""fullscreenenter"",""1"",""6488""
","
","
","""event"",""trial"",""time""
""fullscreenenter"",""1"",""6488""
","
","","","1281.5999999940395","","","23","1241","542","t","elianto","#3366ff99"," "," ","1","+10","[2133.9000000059605]","1","2","","","1241","92","7","1","win","go","0","0"
"pit-trial","166","1123913","0.0-97.0","battery-v0.2","","""event"",""trial"",""time""
""fullscreenenter"",""1"",""6488""
","
","
","""event"",""trial"",""time""
""fullscreenenter"",""1"",""6488""
","
","","","1834.1999999955297","","","23","1241","542","z","elianto","#f73b6a7A"," "," ","1","0","[2684.2999999970198]","1","2","","","1241","93","4","3","lose","go","0","0"
"pit-trial","167","1128484","0.0-98.0","battery-v0.2","","""event"",""trial"",""time""
""fullscreenenter"",""1"",""6488""
","
","
","""event"",""trial"",""time""
""fullscreenenter"",""1"",""6488""
","
","","","1714.6000000014901","","","23","1241","542","x","elianto","#3366ff99"," "," ","1","+10","[2565.6999999955297]","1","2","","","1241","94","8","1","win","go","0","0"
"pit-trial","168","1133339","0.0-99.0","battery-v0.2","","""event"",""trial"",""time""
""fullscreenenter"",""1"",""6488""
","
","
","""event"",""trial"",""time""
""fullscreenenter"",""1"",""6488""
","
","","","-1","","","23","1241","542","t","elianto","#3366ff99"," ","-1","0","0","[2913.39999999851]","1","2","","","1241","95","7","1","win","go","0","0"
"pit-trial","169","1138198","0.0-100.0","battery-v0.2","","""event"",""trial"",""time""
""fullscreenenter"",""1"",""6488""
","
","
","""event"",""trial"",""time""
""fullscreenenter"",""1"",""6488""
","
","","","-1","","","23","1241","542","b","elianto","#3366ff99","-1","-1","1","+10","[]","0","2","","","1241","96","6","2","win","no-go","0","0"
"pit-trial","170","1142264","0.0-101.0","battery-v0.2","","""event"",""trial"",""time""
""fullscreenenter"",""1"",""6488""
","
","
","""event"",""trial"",""time""
""fullscreenenter"",""1"",""6488""
","
","","","1211.2000000029802","","","23","1241","542","x","elianto","#3366ff99"," "," ","1","+10","[2061.3000000044703]","1","2","","","1241","97","8","1","win","go","0","0"
"pit-trial","171","1146765","0.0-102.0","battery-v0.2","","""event"",""trial"",""time""
""fullscreenenter"",""1"",""6488""
","
","
","""event"",""trial"",""time""
""fullscreenenter"",""1"",""6488""
","
","","","1647.8000000044703","","","23","1241","542","t","elianto","#3366ff99"," "," ","1","+10","[2497.9000000059605]","1","2","","","1241","98","7","1","win","go","0","0"
"pit-trial","172","1151302","0.0-103.0","battery-v0.2","","""event"",""trial"",""time""
""fullscreenenter"",""1"",""6488""
","
","
","""event"",""trial"",""time""
""fullscreenenter"",""1"",""6488""
","
","","","1681.8000000044703","","","23","1241","542","z","elianto","#f73b6a7A"," "," ","1","0","[2532.10000000149]","1","2","","","1241","99","4","3","lose","go","0","0"
"pit-trial","173","1156158","0.0-104.0","battery-v0.2","","""event"",""trial"",""time""
""fullscreenenter"",""1"",""6488""
","
","
","""event"",""trial"",""time""
""fullscreenenter"",""1"",""6488""
","
","","","-1","","","23","1241","542","b","elianto","#3366ff99","-1","-1","1","+10","[]","0","2","","","1241","100","6","2","win","no-go","0","0"
"pit-trial","174","1161014","0.0-105.0","battery-v0.2","","""event"",""trial"",""time""
""fullscreenenter"",""1"",""6488""
","
","
","""event"",""trial"",""time""
""fullscreenenter"",""1"",""6488""
","
","","","-1","","","23","1241","542","b","elianto","#3366ff99","-1","-1","1","+10","[]","0","2","","","1241","101","6","2","win","no-go","0","0"
"pit-trial","175","1164845","0.0-106.0","battery-v0.2","","""event"",""trial"",""time""
""fullscreenenter"",""1"",""6488""
","
","
","""event"",""trial"",""time""
""fullscreenenter"",""1"",""6488""
","
","","","976.1000000014901","","","23","1241","542","x","elianto","#3366ff99"," "," ","1","+10","[1826.2000000029802]","1","2","","","1241","102","8","1","win","go","0","0"
"pit-trial","176","1169042","0.0-107.0","battery-v0.2","","""event"",""trial"",""time""
""fullscreenenter"",""1"",""6488""
","
","
","""event"",""trial"",""time""
""fullscreenenter"",""1"",""6488""
","
","","","1343.2000000029802","","","23","1241","542","t","elianto","#3366ff99"," "," ","1","0","[2194.10000000149]","1","2","","","1241","103","7","1","win","go","1","0"
"pit-trial","177","1173556","0.0-108.0","battery-v0.2","","""event"",""trial"",""time""
""fullscreenenter"",""1"",""6488""
","
","
","""event"",""trial"",""time""
""fullscreenenter"",""1"",""6488""
","
","","","1658","","","23","1241","542","f","elianto","#3366ff99","-1"," ","0","0","[2508.7999999970198]","1","2","","","1241","104","9","2","win","no-go","0","0"
"pit-trial","178","1177751","0.0-109.0","battery-v0.2","","""event"",""trial"",""time""
""fullscreenenter"",""1"",""6488""
","
","
","""event"",""trial"",""time""
""fullscreenenter"",""1"",""6488""
","
","","","1342","","","23","1241","542","t","elianto","#3366ff99"," "," ","1","+10","[2192.10000000149]","1","2","","","1241","105","7","1","win","go","0","0"
"pit-trial","179","1182607","0.0-110.0","battery-v0.2","","""event"",""trial"",""time""
""fullscreenenter"",""1"",""6488""
","
","
","""event"",""trial"",""time""
""fullscreenenter"",""1"",""6488""
","
","","","-1","","","23","1241","542","b","elianto","#3366ff99","-1","-1","1","+10","[]","0","2","","","1241","106","6","2","win","no-go","0","0"
"pit-trial","180","1187463","0.0-111.0","battery-v0.2","","""event"",""trial"",""time""
""fullscreenenter"",""1"",""6488""
","
","
","""event"",""trial"",""time""
""fullscreenenter"",""1"",""6488""
","
","","","-1","","","23","1241","542","f","elianto","#3366ff99","-1","-1","1","+10","[]","0","2","","","1241","107","9","2","win","no-go","0","0"
"pit-trial","181","1192150","0.0-112.0","battery-v0.2","","""event"",""trial"",""time""
""fullscreenenter"",""1"",""6488""
","
","
","""event"",""trial"",""time""
""fullscreenenter"",""1"",""6488""
","
","","","1832.8000000044703","","","23","1241","542","x","elianto","#3366ff99"," "," ","1","+10","[2683.2000000029802]","1","2","","","1241","108","8","1","win","go","0","0"
"pit-trial","182","1197005","0.0-113.0","battery-v0.2","","""event"",""trial"",""time""
""fullscreenenter"",""1"",""6488""
","
","
","""event"",""trial"",""time""
""fullscreenenter"",""1"",""6488""
","
","","","-1","","","23","1241","542","q","elianto","#f73b6a7A","-1","-1","1","0","[]","0","2","","","1241","109","11","4","lose","no-go","0","0"
"pit-trial","183","1200991","0.0-114.0","battery-v0.2","","""event"",""trial"",""time""
""fullscreenenter"",""1"",""6488""
","
","
","""event"",""trial"",""time""
""fullscreenenter"",""1"",""6488""
","
","","","1130.5","","","23","1241","542","n","elianto","#f73b6a7A"," "," ","1","0","[1980.6000000014901]","1","2","","","1241","110","10","3","lose","go","0","0"
"pit-trial","184","1205844","0.0-115.0","battery-v0.2","","""event"",""trial"",""time""
""fullscreenenter"",""1"",""6488""
","
","
","""event"",""trial"",""time""
""fullscreenenter"",""1"",""6488""
","
","","","-1","","","23","1241","542","x","elianto","#3366ff99"," ","-1","0","0","[3295.2999999970198]","1","2","","","1241","111","8","1","win","go","0","0"
"pit-trial","185","1210698","0.0-116.0","battery-v0.2","","""event"",""trial"",""time""
""fullscreenenter"",""1"",""6488""
","
","
","""event"",""trial"",""time""
""fullscreenenter"",""1"",""6488""
","
","","","-1","","","23","1241","542","f","elianto","#3366ff99","-1","-1","1","+10","[]","0","2","","","1241","112","9","2","win","no-go","0","0"
"pit-trial","186","1215553","0.0-117.0","battery-v0.2","","""event"",""trial"",""time""
""fullscreenenter"",""1"",""6488""
","
","
","""event"",""trial"",""time""
""fullscreenenter"",""1"",""6488""
","
","","","-1","","","23","1241","542","f","elianto","#3366ff99","-1","-1","1","+10","[]","0","2","","","1241","113","9","2","win","no-go","0","0"
"pit-trial","187","1220090","0.0-118.0","battery-v0.2","","""event"",""trial"",""time""
""fullscreenenter"",""1"",""6488""
","
","
","""event"",""trial"",""time""
""fullscreenenter"",""1"",""6488""
","
","","","1682.3999999985099","","","23","1241","542","x","elianto","#3366ff99"," "," ","1","+10","[2533.60000000149]","1","2","","","1241","114","8","1","win","go","0","0"
"pit-trial","188","1224945","0.0-119.0","battery-v0.2","","""event"",""trial"",""time""
""fullscreenenter"",""1"",""6488""
","
","
","""event"",""trial"",""time""
""fullscreenenter"",""1"",""6488""
","
","","","-1","","","23","1241","542","q","elianto","#f73b6a7A","-1","-1","1","-10","[]","0","2","","","1241","115","11","4","lose","no-go","1","0"
"pit-trial","189","1229800","0.0-120.0","battery-v0.2","","""event"",""trial"",""time""
""fullscreenenter"",""1"",""6488""
","
","
","""event"",""trial"",""time""
""fullscreenenter"",""1"",""6488""
","
","","","-1","","","23","1241","542","n","elianto","#f73b6a7A"," ","-1","0","-10","[4706]","1","2","","","1241","116","10","3","lose","go","0","0"
"pit-trial","190","1234657","0.0-121.0","battery-v0.2","","""event"",""trial"",""time""
""fullscreenenter"",""1"",""6488""
","
","
","""event"",""trial"",""time""
""fullscreenenter"",""1"",""6488""
","
","","","-1","","","23","1241","542","q","elianto","#f73b6a7A","-1","-1","1","0","[]","0","2","","","1241","117","11","4","lose","no-go","0","0"
"pit-trial","191","1239512","0.0-122.0","battery-v0.2","","""event"",""trial"",""time""
""fullscreenenter"",""1"",""6488""
","
","
","""event"",""trial"",""time""
""fullscreenenter"",""1"",""6488""
","
","","","-1","","","23","1241","542","f","elianto","#3366ff99","-1","-1","1","0","[]","0","2","","","1241","118","9","2","win","no-go","1","0"
"pit-trial","192","1244366","0.0-123.0","battery-v0.2","","""event"",""trial"",""time""
""fullscreenenter"",""1"",""6488""
","
","
","""event"",""trial"",""time""
""fullscreenenter"",""1"",""6488""
","
","","","-1","","","23","1241","542","n","elianto","#f73b6a7A"," ","-1","0","-10","[2918.10000000149,4329.5]","2","2","","","1241","119","10","3","lose","go","0","0"
"pit-trial","193","1248343","0.0-124.0","battery-v0.2","","""event"",""trial"",""time""
""fullscreenenter"",""1"",""6488""
","
","
","""event"",""trial"",""time""
""fullscreenenter"",""1"",""6488""
","
","","","1124.3000000044703","","","23","1241","542","x","elianto","#3366ff99"," "," ","1","+10","[1974.5]","1","2","","","1241","120","8","1","win","go","0","0"
"pit-trial","194","1252234","0.0-125.0","battery-v0.2","","""event"",""trial"",""time""
""fullscreenenter"",""1"",""6488""
","
","
","""event"",""trial"",""time""
""fullscreenenter"",""1"",""6488""
","
","","","1036.8999999985099","","","23","1241","542","x","elianto","#3366ff99"," "," ","1","+10","[1888.7000000029802]","1","2","","","1241","121","8","1","win","go","0","0"
"pit-trial","195","1257088","0.0-126.0","battery-v0.2","","""event"",""trial"",""time""
""fullscreenenter"",""1"",""6488""
","
","
","""event"",""trial"",""time""
""fullscreenenter"",""1"",""6488""
","
","","","-1","","","23","1241","542","f","elianto","#3366ff99","-1","-1","1","+10","[]","0","2","","","1241","122","9","2","win","no-go","0","0"
"pit-trial","196","1261941","0.0-127.0","battery-v0.2","","""event"",""trial"",""time""
""fullscreenenter"",""1"",""6488""
","
","
","""event"",""trial"",""time""
""fullscreenenter"",""1"",""6488""
","
","","","-1","","","23","1241","542","n","elianto","#f73b6a7A"," ","-1","0","-10","[3325.89999999851]","1","2","","","1241","123","10","3","lose","go","0","0"
"pit-trial","197","1266795","0.0-128.0","battery-v0.2","","""event"",""trial"",""time""
""fullscreenenter"",""1"",""6488""
","
","
","""event"",""trial"",""time""
""fullscreenenter"",""1"",""6488""
","
","","","-1","","","23","1241","542","q","elianto","#f73b6a7A","-1","-1","1","0","[]","0","2","","","1241","124","11","4","lose","no-go","0","0"
"pit-trial","198","1271648","0.0-129.0","battery-v0.2","","""event"",""trial"",""time""
""fullscreenenter"",""1"",""6488""
","
","
","""event"",""trial"",""time""
""fullscreenenter"",""1"",""6488""
","
","","","-1","","","23","1241","542","q","elianto","#f73b6a7A","-1","-1","1","-10","[]","0","2","","","1241","125","11","4","lose","no-go","1","0"
"pit-trial","199","1276226","0.0-130.0","battery-v0.2","","""event"",""trial"",""time""
""fullscreenenter"",""1"",""6488""
","
","
","""event"",""trial"",""time""
""fullscreenenter"",""1"",""6488""
","
","","","1722.3999999985099","","","23","1241","542","x","elianto","#3366ff99"," "," ","1","+10","[2573.7000000029802]","1","2","","","1241","126","8","1","win","go","0","0"
"pit-trial","200","1281083","0.0-131.0","battery-v0.2","","""event"",""trial"",""time""
""fullscreenenter"",""1"",""6488""
","
","
","""event"",""trial"",""time""
""fullscreenenter"",""1"",""6488""
","
","","","-1","","","23","1241","542","f","elianto","#3366ff99","-1","-1","1","+10","[]","0","2","","","1241","127","9","2","win","no-go","0","0"
"pit-trial","201","1285788","0.0-132.0","battery-v0.2","","""event"",""trial"",""time""
""fullscreenenter"",""1"",""6488""
","
","
","""event"",""trial"",""time""
""fullscreenenter"",""1"",""6488""
","
","","","1852.5","","","23","1241","542","n","elianto","#f73b6a7A"," "," ","1","0","[2702.60000000149]","1","2","","","1241","128","10","3","lose","go","0","0"
"pit-trial","202","1289603","0.0-133.0","battery-v0.2","","""event"",""trial"",""time""
""fullscreenenter"",""1"",""6488""
","
","
","""event"",""trial"",""time""
""fullscreenenter"",""1"",""6488""
","
","","","962.7000000029802","","","23","1241","542","x","elianto","#3366ff99"," "," ","1","+10","[1812.7000000029802]","1","2","","","1241","129","8","1","win","go","0","0"
"pit-trial","203","1294455","0.0-134.0","battery-v0.2","","""event"",""trial"",""time""
""fullscreenenter"",""1"",""6488""
","
","
","""event"",""trial"",""time""
""fullscreenenter"",""1"",""6488""
","
","","","-1","","","23","1241","542","f","elianto","#3366ff99","-1","-1","1","0","[]","0","2","","","1241","130","9","2","win","no-go","1","0"
"pit-trial","204","1298598","0.0-135.0","battery-v0.2","","""event"",""trial"",""time""
""fullscreenenter"",""1"",""6488""
","
","
","""event"",""trial"",""time""
""fullscreenenter"",""1"",""6488""
","
","","","1288.3999999985099","","","23","1241","542","n","elianto","#f73b6a7A"," "," ","1","0","[2138.6999999955297]","1","2","","","1241","131","10","3","lose","go","0","0"
"pit-trial","205","1303455","0.0-136.0","battery-v0.2","","""event"",""trial"",""time""
""fullscreenenter"",""1"",""6488""
","
","
","""event"",""trial"",""time""
""fullscreenenter"",""1"",""6488""
","
","","","-1","","","23","1241","542","q","elianto","#f73b6a7A","-1","-1","1","0","[]","0","2","","","1241","132","11","4","lose","no-go","0","0"
"pit-trial","206","1308310","0.0-137.0","battery-v0.2","","""event"",""trial"",""time""
""fullscreenenter"",""1"",""6488""
","
","
","""event"",""trial"",""time""
""fullscreenenter"",""1"",""6488""
","
","","","-1","","","23","1241","542","q","elianto","#f73b6a7A","-1","-1","1","0","[]","0","2","","","1241","133","11","4","lose","no-go","0","0"
"pit-trial","207","1312598","0.0-138.0","battery-v0.2","","""event"",""trial"",""time""
""fullscreenenter"",""1"",""6488""
","
","
","""event"",""trial"",""time""
""fullscreenenter"",""1"",""6488""
","
","","","1432.0999999940395","","","23","1241","542","n","elianto","#f73b6a7A"," "," ","1","0","[2285.39999999851]","1","2","","","1241","134","10","3","lose","go","0","0"
"pit-trial","208","1316548","0.0-139.0","battery-v0.2","","""event"",""trial"",""time""
""fullscreenenter"",""1"",""6488""
","
","
","""event"",""trial"",""time""
""fullscreenenter"",""1"",""6488""
","
","","","1096.1999999955297","","","23","1241","542","x","elianto","#3366ff99"," "," ","1","+10","[1946.5999999940395]","1","2","","","1241","135","8","1","win","go","0","0"
"pit-trial","209","1321405","0.0-140.0","battery-v0.2","","""event"",""trial"",""time""
""fullscreenenter"",""1"",""6488""
","
","
","""event"",""trial"",""time""
""fullscreenenter"",""1"",""6488""
","
","","","-1","","","23","1241","542","f","elianto","#3366ff99","-1","-1","1","+10","[]","0","2","","","1241","136","9","2","win","no-go","0","0"
"pit-trial","210","1325640","0.0-141.0","battery-v0.2","","""event"",""trial"",""time""
""fullscreenenter"",""1"",""6488""
","
","
","""event"",""trial"",""time""
""fullscreenenter"",""1"",""6488""
","
","","","1381.5","","","23","1241","542","n","elianto","#f73b6a7A"," "," ","1","0","[2231.6999999955297]","1","2","","","1241","137","10","3","lose","go","0","0"
"pit-trial","211","1330492","0.0-142.0","battery-v0.2","","""event"",""trial"",""time""
""fullscreenenter"",""1"",""6488""
","
","
","""event"",""trial"",""time""
""fullscreenenter"",""1"",""6488""
","
","","","-1","","","23","1241","542","q","elianto","#f73b6a7A","-1","-1","1","0","[]","0","2","","","1241","138","11","4","lose","no-go","0","0"
"pit-trial","212","1334144","0.0-143.0","battery-v0.2","","""event"",""trial"",""time""
""fullscreenenter"",""1"",""6488""
","
","
","""event"",""trial"",""time""
""fullscreenenter"",""1"",""6488""
","
","","","803.3999999985099","","","23","1241","542","x","elianto","#3366ff99"," "," ","1","+10","[1653.5]","1","2","","","1241","139","8","1","win","go","0","0"
"pit-trial","213","1338994","0.0-144.0","battery-v0.2","","""event"",""trial"",""time""
""fullscreenenter"",""1"",""6488""
","
","
","""event"",""trial"",""time""
""fullscreenenter"",""1"",""6488""
","
","","","-1","","","23","1241","542","f","elianto","#3366ff99","-1","-1","1","0","[]","0","2","","","1241","140","9","2","win","no-go","1","0"
"pit-instructions","214","1360846","0.0-145.0","battery-v0.2","","""event"",""trial"",""time""
""fullscreenenter"",""1"",""6488""
","
","
","""event"",""trial"",""time""
""fullscreenenter"",""1"",""6488""
","
","","[{""page_index"":0,""viewing_time"":6351.29999999702},{""page_index"":1,""viewing_time"":15505.60000000149}]","21857.29999999702","","","","","","","","","","","","","","","","","","","","","","","","",""
"pit-trial","215","1365120","0.0-146.0","battery-v0.2","","""event"",""trial"",""time""
""fullscreenenter"",""1"",""6488""
","
","
","""event"",""trial"",""time""
""fullscreenenter"",""1"",""6488""
","
","","","1420.2999999970198","","","23","1241","542","k","elianto","#f73b6a7A"," "," ","1","0","[2270.5]","1","3","","","1241","141","3","3","lose","go","0","0"
"pit-trial","216","1369112","0.0-147.0","battery-v0.2","","""event"",""trial"",""time""
""fullscreenenter"",""1"",""6488""
","
","
","""event"",""trial"",""time""
""fullscreenenter"",""1"",""6488""
","
","","","1136.7999999970198","","","23","1241","542","j","elianto","#3366ff99","-1"," ","0","+10","[1987.5999999940395]","1","3","","","1241","142","1","2","win","no-go","1","0"
"pit-trial","217","1372964","0.0-148.0","battery-v0.2","","""event"",""trial"",""time""
""fullscreenenter"",""1"",""6488""
","
","
","""event"",""trial"",""time""
""fullscreenenter"",""1"",""6488""
","
","","","999.8999999985099","","","23","1241","542","v","elianto","#3366ff99","-1"," ","0","0","[1850]","1","3","","","1241","143","0","2","win","no-go","0","0"
"pit-trial","218","1376556","0.0-149.0","battery-v0.2","","""event"",""trial"",""time""
""fullscreenenter"",""1"",""6488""
","
","
","""event"",""trial"",""time""
""fullscreenenter"",""1"",""6488""
","
","","","737.3999999985099","","","23","1241","542","d","elianto","#3366ff99"," "," ","1","0","[1588]","1","3","","","1241","144","2","1","win","go","1","0"
"pit-trial","219","1380895","0.0-150.0","battery-v0.2","","""event"",""trial"",""time""
""fullscreenenter"",""1"",""6488""
","
","
","""event"",""trial"",""time""
""fullscreenenter"",""1"",""6488""
","
","","","1483.2000000029802","","","23","1241","542","k","elianto","#f73b6a7A"," "," ","1","-10","[2334.3000000044703]","1","3","","","1241","145","3","3","lose","go","1","0"
"pit-trial","220","1385751","0.0-151.0","battery-v0.2","","""event"",""trial"",""time""
""fullscreenenter"",""1"",""6488""
","
","
","""event"",""trial"",""time""
""fullscreenenter"",""1"",""6488""
","
","","","-1","","","23","1241","542","d","elianto","#3366ff99"," ","-1","0","+10","[]","0","3","","","1241","146","2","1","win","go","1","0"
"pit-trial","221","1389968","0.0-152.0","battery-v0.2","","""event"",""trial"",""time""
""fullscreenenter"",""1"",""6488""
","
","
","""event"",""trial"",""time""
""fullscreenenter"",""1"",""6488""
","
","","","1363.5","","","23","1241","542","j","elianto","#3366ff99","-1"," ","0","+10","[2214.7999999970198]","1","3","","","1241","147","1","2","win","no-go","1","0"
"pit-trial","222","1394264","0.0-153.0","battery-v0.2","","""event"",""trial"",""time""
""fullscreenenter"",""1"",""6488""
","
","
","""event"",""trial"",""time""
""fullscreenenter"",""1"",""6488""
","
","","","1442.1000000014901","","","23","1241","542","v","elianto","#3366ff99","-1"," ","0","0","[2292.7999999970198]","1","3","","","1241","148","0","2","win","no-go","0","0"
"pit-trial","223","1398416","0.0-154.0","battery-v0.2","","""event"",""trial"",""time""
""fullscreenenter"",""1"",""6488""
","
","
","""event"",""trial"",""time""
""fullscreenenter"",""1"",""6488""
","
","","","1297.1999999955297","","","23","1241","542","k","elianto","#f73b6a7A"," "," ","1","0","[2148.39999999851]","1","3","","","1241","149","3","3","lose","go","0","0"
"pit-trial","224","1403272","0.0-155.0","battery-v0.2","","""event"",""trial"",""time""
""fullscreenenter"",""1"",""6488""
","
","
","""event"",""trial"",""time""
""fullscreenenter"",""1"",""6488""
","
","","","-1","","","23","1241","542","d","elianto","#3366ff99"," ","-1","0","+10","[]","0","3","","","1241","150","2","1","win","go","1","0"
"pit-trial","225","1407669","0.0-156.0","battery-v0.2","","""event"",""trial"",""time""
""fullscreenenter"",""1"",""6488""
","
","
","""event"",""trial"",""time""
""fullscreenenter"",""1"",""6488""
","
","","","1543.7000000029802","","","23","1241","542","j","elianto","#3366ff99","-1"," ","0","0","[2394.8000000044703]","1","3","","","1241","151","1","2","win","no-go","0","0"
"pit-trial","226","1412525","0.0-157.0","battery-v0.2","","""event"",""trial"",""time""
""fullscreenenter"",""1"",""6488""
","
","
","""event"",""trial"",""time""
""fullscreenenter"",""1"",""6488""
","
","","","-1","","","23","1241","542","v","elianto","#3366ff99","-1","-1","1","+10","[]","0","3","","","1241","152","0","2","win","no-go","0","0"
"pit-trial","227","1417378","0.0-158.0","battery-v0.2","","""event"",""trial"",""time""
""fullscreenenter"",""1"",""6488""
","
","
","""event"",""trial"",""time""
""fullscreenenter"",""1"",""6488""
","
","","","-1","","","23","1241","542","d","elianto","#3366ff99"," ","-1","0","+10","[]","0","3","","","1241","153","2","1","win","go","1","0"
"pit-trial","228","1421805","0.0-159.0","battery-v0.2","","""event"",""trial"",""time""
""fullscreenenter"",""1"",""6488""
","
","
","""event"",""trial"",""time""
""fullscreenenter"",""1"",""6488""
","
","","","1571","","","23","1241","542","k","elianto","#f73b6a7A"," "," ","1","0","[2421.89999999851]","1","3","","","1241","154","3","3","lose","go","0","0"
"pit-trial","229","1425996","0.0-160.0","battery-v0.2","","""event"",""trial"",""time""
""fullscreenenter"",""1"",""6488""
","
","
","""event"",""trial"",""time""
""fullscreenenter"",""1"",""6488""
","
","","","1337.3000000044703","","","23","1241","542","j","elianto","#3366ff99","-1"," ","0","0","[2188.3000000044703]","1","3","","","1241","155","1","2","win","no-go","0","0"
"pit-trial","230","1430849","0.0-161.0","battery-v0.2","","""event"",""trial"",""time""
""fullscreenenter"",""1"",""6488""
","
","
","""event"",""trial"",""time""
""fullscreenenter"",""1"",""6488""
","
","","","-1","","","23","1241","542","v","elianto","#3366ff99","-1","-1","1","+10","[]","0","3","","","1241","156","0","2","win","no-go","0","0"
"pit-trial","231","1435703","0.0-162.0","battery-v0.2","","""event"",""trial"",""time""
""fullscreenenter"",""1"",""6488""
","
","
","""event"",""trial"",""time""
""fullscreenenter"",""1"",""6488""
","
","","","-1","","","23","1241","542","d","elianto","#3366ff99"," ","-1","0","0","[]","0","3","","","1241","157","2","1","win","go","0","0"
"pit-trial","232","1439791","0.0-163.0","battery-v0.2","","""event"",""trial"",""time""
""fullscreenenter"",""1"",""6488""
","
","
","""event"",""trial"",""time""
""fullscreenenter"",""1"",""6488""
","
","","","1234.3999999985099","","","23","1241","542","j","elianto","#3366ff99","-1"," ","0","0","[2085.39999999851]","1","3","","","1241","158","1","2","win","no-go","0","0"
"pit-trial","233","1444337","0.0-164.0","battery-v0.2","","""event"",""trial"",""time""
""fullscreenenter"",""1"",""6488""
","
","
","""event"",""trial"",""time""
""fullscreenenter"",""1"",""6488""
","
","","","1690.6000000014901","","","23","1241","542","k","elianto","#f73b6a7A"," "," ","1","0","[2541.2000000029802]","1","3","","","1241","159","3","3","lose","go","0","0"
"pit-trial","234","1449191","0.0-165.0","battery-v0.2","","""event"",""trial"",""time""
""fullscreenenter"",""1"",""6488""
","
","
","""event"",""trial"",""time""
""fullscreenenter"",""1"",""6488""
","
","","","-1","","","23","1241","542","v","elianto","#3366ff99","-1","-1","1","+10","[]","0","3","","","1241","160","0","2","win","no-go","0","0"
"pit-trial","235","1454047","0.0-166.0","battery-v0.2","","""event"",""trial"",""time""
""fullscreenenter"",""1"",""6488""
","
","
","""event"",""trial"",""time""
""fullscreenenter"",""1"",""6488""
","
","","","-1","","","23","1241","542","j","elianto","#3366ff99","-1","-1","1","+10","[]","0","3","","","1241","161","1","2","win","no-go","0","0"
"pit-trial","236","1458900","0.0-167.0","battery-v0.2","","""event"",""trial"",""time""
""fullscreenenter"",""1"",""6488""
","
","
","""event"",""trial"",""time""
""fullscreenenter"",""1"",""6488""
","
","","","-1","","","23","1241","542","v","elianto","#3366ff99","-1","-1","1","+10","[]","0","3","","","1241","162","0","2","win","no-go","0","0"
"pit-trial","237","1463756","0.0-168.0","battery-v0.2","","""event"",""trial"",""time""
""fullscreenenter"",""1"",""6488""
","
","
","""event"",""trial"",""time""
""fullscreenenter"",""1"",""6488""
","
","","","-1","","","23","1241","542","d","elianto","#3366ff99"," ","-1","0","0","[]","0","3","","","1241","163","2","1","win","go","0","0"
"pit-trial","238","1467837","0.0-169.0","battery-v0.2","","""event"",""trial"",""time""
""fullscreenenter"",""1"",""6488""
","
","
","""event"",""trial"",""time""
""fullscreenenter"",""1"",""6488""
","
","","","1227.7999999970198","","","23","1241","542","k","elianto","#f73b6a7A"," "," ","1","0","[2077.89999999851]","1","3","","","1241","164","3","3","lose","go","0","0"
"pit-trial","239","1472691","0.0-170.0","battery-v0.2","","""event"",""trial"",""time""
""fullscreenenter"",""1"",""6488""
","
","
","""event"",""trial"",""time""
""fullscreenenter"",""1"",""6488""
","
","","","-1","","","23","1241","542","v","elianto","#3366ff99","-1","-1","1","0","[]","0","3","","","1241","165","0","2","win","no-go","1","0"
"pit-trial","240","1477081","0.0-171.0","battery-v0.2","","""event"",""trial"",""time""
""fullscreenenter"",""1"",""6488""
","
","
","""event"",""trial"",""time""
""fullscreenenter"",""1"",""6488""
","
","","","1535.7999999970198","","","23","1241","542","k","elianto","#f73b6a7A"," "," ","1","0","[2388.1999999955297]","1","3","","","1241","166","3","3","lose","go","0","0"
"pit-trial","241","1481935","0.0-172.0","battery-v0.2","","""event"",""trial"",""time""
""fullscreenenter"",""1"",""6488""
","
","
","""event"",""trial"",""time""
""fullscreenenter"",""1"",""6488""
","
","","","-1","","","23","1241","542","j","elianto","#3366ff99","-1","-1","1","+10","[]","0","3","","","1241","167","1","2","win","no-go","0","0"
"pit-trial","242","1486791","0.0-173.0","battery-v0.2","","""event"",""trial"",""time""
""fullscreenenter"",""1"",""6488""
","
","
","""event"",""trial"",""time""
""fullscreenenter"",""1"",""6488""
","
","","","-1","","","23","1241","542","d","elianto","#3366ff99"," ","-1","0","0","[]","0","3","","","1241","168","2","1","win","go","0","0"
"pit-trial","243","1491645","0.0-174.0","battery-v0.2","","""event"",""trial"",""time""
""fullscreenenter"",""1"",""6488""
","
","
","""event"",""trial"",""time""
""fullscreenenter"",""1"",""6488""
","
","","","-1","","","23","1241","542","v","elianto","#3366ff99","-1","-1","1","+10","[]","0","3","","","1241","169","0","2","win","no-go","0","0"
"pit-trial","244","1495912","0.0-175.0","battery-v0.2","","""event"",""trial"",""time""
""fullscreenenter"",""1"",""6488""
","
","
","""event"",""trial"",""time""
""fullscreenenter"",""1"",""6488""
","
","","","1412.7999999970198","","","23","1241","542","k","elianto","#f73b6a7A"," "," ","1","0","[2263.89999999851]","1","3","","","1241","170","3","3","lose","go","0","0"
"pit-trial","245","1500770","0.0-176.0","battery-v0.2","","""event"",""trial"",""time""
""fullscreenenter"",""1"",""6488""
","
","
","""event"",""trial"",""time""
""fullscreenenter"",""1"",""6488""
","
","","","-1","","","23","1241","542","j","elianto","#3366ff99","-1","-1","1","+10","[]","0","3","","","1241","171","1","2","win","no-go","0","0"
"pit-trial","246","1505180","0.0-177.0","battery-v0.2","","""event"",""trial"",""time""
""fullscreenenter"",""1"",""6488""
","
","
","""event"",""trial"",""time""
""fullscreenenter"",""1"",""6488""
","
","","","1557.1999999955297","","","23","1241","542","d","elianto","#3366ff99"," "," ","1","+10","[2407.39999999851]","1","3","","","1241","172","2","1","win","go","0","0"
"pit-trial","247","1510035","0.0-178.0","battery-v0.2","","""event"",""trial"",""time""
""fullscreenenter"",""1"",""6488""
","
","
","""event"",""trial"",""time""
""fullscreenenter"",""1"",""6488""
","
","","","-1","","","23","1241","542","v","elianto","#3366ff99","-1","-1","1","+10","[]","0","3","","","1241","173","0","2","win","no-go","0","0"
"pit-trial","248","1514352","0.0-179.0","battery-v0.2","","""event"",""trial"",""time""
""fullscreenenter"",""1"",""6488""
","
","
","""event"",""trial"",""time""
""fullscreenenter"",""1"",""6488""
","
","","","1461.6999999955297","","","23","1241","542","d","elianto","#3366ff99"," "," ","1","0","[2313.10000000149]","1","3","","","1241","174","2","1","win","go","1","0"
"pit-trial","249","1518745","0.0-180.0","battery-v0.2","","""event"",""trial"",""time""
""fullscreenenter"",""1"",""6488""
","
","
","""event"",""trial"",""time""
""fullscreenenter"",""1"",""6488""
","
","","","1538","","","23","1241","542","e","elianto","#f73b6a7A","-1"," ","0","-10","[2388.3000000044703]","1","3","","","1241","175","4","4","lose","no-go","0","0"
"pit-trial","250","1522850","0.0-181.0","battery-v0.2","","""event"",""trial"",""time""
""fullscreenenter"",""1"",""6488""
","
","
","""event"",""trial"",""time""
""fullscreenenter"",""1"",""6488""
","
","","","1249.7999999970198","","","23","1241","542","w","elianto","#f73b6a7A"," "," ","1","0","[2102.89999999851]","1","3","","","1241","176","5","3","lose","go","0","0"
"pit-trial","251","1526561","0.0-182.0","battery-v0.2","","""event"",""trial"",""time""
""fullscreenenter"",""1"",""6488""
","
","
","""event"",""trial"",""time""
""fullscreenenter"",""1"",""6488""
","
","","","857.2000000029802","","","23","1241","542","v","elianto","#3366ff99","-1"," ","0","0","[1707.7000000029802]","1","3","","","1241","177","0","2","win","no-go","0","0"
"pit-trial","252","1531414","0.0-183.0","battery-v0.2","","""event"",""trial"",""time""
""fullscreenenter"",""1"",""6488""
","
","
","""event"",""trial"",""time""
""fullscreenenter"",""1"",""6488""
","
","","","-1","","","23","1241","542","e","elianto","#f73b6a7A","-1","-1","1","-10","[]","0","3","","","1241","178","4","4","lose","no-go","1","0"
"pit-trial","253","1535788","0.0-184.0","battery-v0.2","","""event"",""trial"",""time""
""fullscreenenter"",""1"",""6488""
","
","
","""event"",""trial"",""time""
""fullscreenenter"",""1"",""6488""
","
","","","1518.1999999955297","","","23","1241","542","d","elianto","#3366ff99"," "," ","1","0","[2370.39999999851]","1","3","","","1241","179","2","1","win","go","1","0"
"pit-trial","254","1540260","0.0-185.0","battery-v0.2","","""event"",""trial"",""time""
""fullscreenenter"",""1"",""6488""
","
","
","""event"",""trial"",""time""
""fullscreenenter"",""1"",""6488""
","
","","","1619","","","23","1241","542","w","elianto","#f73b6a7A"," "," ","1","0","[2469.10000000149]","1","3","","","1241","180","5","3","lose","go","0","0"
"pit-trial","255","1544150","0.0-186.0","battery-v0.2","","""event"",""trial"",""time""
""fullscreenenter"",""1"",""6488""
","
","
","""event"",""trial"",""time""
""fullscreenenter"",""1"",""6488""
","
","","","1036.7999999970198","","","23","1241","542","w","elianto","#f73b6a7A"," "," ","1","0","[1887.1000000014901]","1","3","","","1241","181","5","3","lose","go","0","0"
"pit-trial","256","1548485","0.0-187.0","battery-v0.2","","""event"",""trial"",""time""
""fullscreenenter"",""1"",""6488""
","
","
","""event"",""trial"",""time""
""fullscreenenter"",""1"",""6488""
","
","","","1476.8000000044703","","","23","1241","542","d","elianto","#3366ff99"," "," ","1","+10","[2329.7000000029802]","1","3","","","1241","182","2","1","win","go","0","0"
"pit-trial","257","1552460","0.0-188.0","battery-v0.2","","""event"",""trial"",""time""
""fullscreenenter"",""1"",""6488""
","
","
","""event"",""trial"",""time""
""fullscreenenter"",""1"",""6488""
","
","","","1120.6999999955297","","","23","1241","542","s","elianto","#3366ff99","-1"," ","0","0","[1971.1999999955297]","1","3","","","1241","183","6","2","win","no-go","0","0"
"pit-trial","258","1557313","0.0-189.0","battery-v0.2","","""event"",""trial"",""time""
""fullscreenenter"",""1"",""6488""
","
","
","""event"",""trial"",""time""
""fullscreenenter"",""1"",""6488""
","
","","","-1","","","23","1241","542","e","elianto","#f73b6a7A","-1","-1","1","0","[]","0","3","","","1241","184","4","4","lose","no-go","0","0"
"pit-trial","259","1561512","0.0-190.0","battery-v0.2","","""event"",""trial"",""time""
""fullscreenenter"",""1"",""6488""
","
","
","""event"",""trial"",""time""
""fullscreenenter"",""1"",""6488""
","
","","","1344.5","","","23","1241","542","w","elianto","#f73b6a7A"," "," ","1","0","[2196.3000000044703]","1","3","","","1241","185","5","3","lose","go","0","0"
"pit-trial","260","1566367","0.0-191.0","battery-v0.2","","""event"",""trial"",""time""
""fullscreenenter"",""1"",""6488""
","
","
","""event"",""trial"",""time""
""fullscreenenter"",""1"",""6488""
","
","","","-1","","","23","1241","542","e","elianto","#f73b6a7A","-1","-1","1","0","[]","0","3","","","1241","186","4","4","lose","no-go","0","0"
"pit-trial","261","1571222","0.0-192.0","battery-v0.2","","""event"",""trial"",""time""
""fullscreenenter"",""1"",""6488""
","
","
","""event"",""trial"",""time""
""fullscreenenter"",""1"",""6488""
","
","","","-1","","","23","1241","542","s","elianto","#3366ff99","-1","-1","1","0","[]","0","3","","","1241","187","6","2","win","no-go","1","0"
"pit-trial","262","1576073","0.0-193.0","battery-v0.2","","""event"",""trial"",""time""
""fullscreenenter"",""1"",""6488""
","
","
","""event"",""trial"",""time""
""fullscreenenter"",""1"",""6488""
","
","","","1995.5","","","23","1241","542","d","elianto","#3366ff99"," "," ","1","+10","[2846.89999999851]","1","3","","","1241","188","2","1","win","go","0","0"
"pit-trial","263","1580929","0.0-194.0","battery-v0.2","","""event"",""trial"",""time""
""fullscreenenter"",""1"",""6488""
","
","
","""event"",""trial"",""time""
""fullscreenenter"",""1"",""6488""
","
","","","-1","","","23","1241","542","e","elianto","#f73b6a7A","-1","-1","1","0","[]","0","3","","","1241","189","4","4","lose","no-go","0","0"
"pit-trial","264","1585447","0.0-195.0","battery-v0.2","","""event"",""trial"",""time""
""fullscreenenter"",""1"",""6488""
","
","
","""event"",""trial"",""time""
""fullscreenenter"",""1"",""6488""
","
