"trial_type","trial_index","time_elapsed","internal_node_id","task_version","subject_id","interactions","blur_events","focus_events","fullscreenenter_events","fullscreenexit_events","success","view_history","rt","responses","num_errors","age","subject","participantId","rune","rune_set","hex","correct","choice","accuracy","outcome","keys","total_keys","block","practice","value","sub","trial","stimulus","robot","valence","action","sham","browser_interactions"
"pavlovia","0","19","0.0-0.0","battery-v0.2","","""event"",""trial"",""time""
""fullscreenenter"",""1"",""3538""
","
","
","""event"",""trial"",""time""
""fullscreenenter"",""1"",""3538""
","
","","","","","","","","","","","","","","","","","","","","","","","","","","","",""
"fullscreen","1","4436","0.0-1.0","battery-v0.2","","""event"",""trial"",""time""
""fullscreenenter"",""1"",""3538""
","
","
","""event"",""trial"",""time""
""fullscreenenter"",""1"",""3538""
","
","true","","","","","","","","","","","","","","","","","","","","","","","","","","",""
"pit-instructions","2","10098","0.0-2.0-0.0","battery-v0.2","","""event"",""trial"",""time""
""fullscreenenter"",""1"",""3538""
","
","
","""event"",""trial"",""time""
""fullscreenenter"",""1"",""3538""
","
","","[{""page_index"":0,""viewing_time"":5651}]","5655","","","","","","","","","","","","","","","","","","","","","","","","",""
"pit-comprehension","3","12731","0.0-2.0-1.0-0.0","battery-v0.2","","""event"",""trial"",""time""
""fullscreenenter"",""1"",""3538""
","
","
","""event"",""trial"",""time""
""fullscreenenter"",""1"",""3538""
","
","","","2620.000000000002","[""shark""]","0","24","1051","541","","","","","","","","","","","","","","","","","","","",""
"pit-instructions","4","14508","0.0-2.0-1.0-1.0","battery-v0.2","","""event"",""trial"",""time""
""fullscreenenter"",""1"",""3538""
","
","
","""event"",""trial"",""time""
""fullscreenenter"",""1"",""3538""
","
","","[{""page_index"":0,""viewing_time"":1709.9999999999982}]","1710.9999999999982","","","","","","","","","","","","","","","","","","","","","","","","",""
"pit-comprehension","5","16470","0.0-2.0-2.0-0.0","battery-v0.2","","""event"",""trial"",""time""
""fullscreenenter"",""1"",""3538""
","
","
","""event"",""trial"",""time""
""fullscreenenter"",""1"",""3538""
","
","","","1953.9999999999982","[""tiger""]","0","24","1051","541","","","","","","","","","","","","","","","","","","","",""
"pit-instructions","6","17452","0.0-2.0-2.0-1.0","battery-v0.2","","""event"",""trial"",""time""
""fullscreenenter"",""1"",""3538""
","
","
","""event"",""trial"",""time""
""fullscreenenter"",""1"",""3538""
","
","","[{""page_index"":0,""viewing_time"":975.9999999999964}]","976.9999999999964","","","","","","","","","","","","","","","","","","","","","","","","",""
"pit-instructions","7","138000","0.0-2.0-3.0","battery-v0.2","","""event"",""trial"",""time""
""fullscreenenter"",""1"",""3538""
","
","
","""event"",""trial"",""time""
""fullscreenenter"",""1"",""3538""
","
","","[{""page_index"":0,""viewing_time"":8961.000000000004},{""page_index"":1,""viewing_time"":6467.999999999996},{""page_index"":2,""viewing_time"":6605},{""page_index"":3,""viewing_time"":9397},{""page_index"":4,""viewing_time"":7918},{""page_index"":5,""viewing_time"":7693},{""page_index"":6,""viewing_time"":7087},{""page_index"":7,""viewing_time"":14142},{""page_index"":8,""viewing_time"":10628},{""page_index"":9,""viewing_time"":14899},{""page_index"":10,""viewing_time"":7466},{""page_index"":11,""viewing_time"":7667.000000000015},{""page_index"":12,""viewing_time"":6024.999999999985},{""page_index"":13,""viewing_time"":5585}]","120542","","","","","","","","","","","","","","","","","","","","","","","","",""
"pit-trial","8","141463","0.0-2.0-4.0-0.0","battery-v0.2","","""event"",""trial"",""time""
""fullscreenenter"",""1"",""3538""
","
","
","""event"",""trial"",""time""
""fullscreenenter"",""1"",""3538""
","
","","","604.9999999999709","","","24","1051","541","&#9784;","elianto","#FFFFF080"," "," ","1","&#10004","[1456]","1","0","0","","","","","","","","",""
"pit-trial","9","144822","0.0-2.0-4.1-0.1","battery-v0.2","","""event"",""trial"",""time""
""fullscreenenter"",""1"",""3538""
","
","
","""event"",""trial"",""time""
""fullscreenenter"",""1"",""3538""
","
","","","500","","","24","1051","541","&#9784;","elianto","#FFFFF080"," "," ","1","&#10004","[1351]","1","0","0","","","","","","","","",""
"pit-trial","10","148260","0.0-2.0-4.2-0.2","battery-v0.2","","""event"",""trial"",""time""
""fullscreenenter"",""1"",""3538""
","
","
","""event"",""trial"",""time""
""fullscreenenter"",""1"",""3538""
","
","","","580","","","24","1051","541","&#9784;","elianto","#FFFFF080"," "," ","1","&#10004","[1431]","1","0","0","","","","","","","","",""
"pit-trial","11","151656","0.0-2.0-4.3-0.3","battery-v0.2","","""event"",""trial"",""time""
""fullscreenenter"",""1"",""3538""
","
","
","""event"",""trial"",""time""
""fullscreenenter"",""1"",""3538""
","
","","","537","","","24","1051","541","&#9784;","elianto","#FFFFF080"," "," ","1","&#10004","[1387]","1","0","0","","","","","","","","",""
"pit-trial","12","155139","0.0-2.0-4.4-0.4","battery-v0.2","","""event"",""trial"",""time""
""fullscreenenter"",""1"",""3538""
","
","
","""event"",""trial"",""time""
""fullscreenenter"",""1"",""3538""
","
","","","624","","","24","1051","541","&#9784;","elianto","#FFFFF080"," "," ","1","&#10004","[1475]","1","0","0","","","","","","","","",""
"pit-instructions","13","176876","0.0-2.0-5.0","battery-v0.2","","""event"",""trial"",""time""
""fullscreenenter"",""1"",""3538""
","
","
","""event"",""trial"",""time""
""fullscreenenter"",""1"",""3538""
","
","","[{""page_index"":0,""viewing_time"":5549.000000000029},{""page_index"":1,""viewing_time"":5871.999999999971},{""page_index"":2,""viewing_time"":4509.000000000029},{""page_index"":3,""viewing_time"":5799.999999999971}]","21731","","","","","","","","","","","","","","","","","","","","","","","","",""
"pit-trial","14","181732","0.0-2.0-6.0-0.0","battery-v0.2","","""event"",""trial"",""time""
""fullscreenenter"",""1"",""3538""
","
","
","""event"",""trial"",""time""
""fullscreenenter"",""1"",""3538""
","
","","","-1","","","24","1051","541","&#9854;","elianto","#FFFFF080","-1","-1","1","&#10004","[]","0","0","1","","","","","","","","",""
"pit-trial","15","186589","0.0-2.0-6.1-0.1","battery-v0.2","","""event"",""trial"",""time""
""fullscreenenter"",""1"",""3538""
","
","
","""event"",""trial"",""time""
""fullscreenenter"",""1"",""3538""
","
","","","-1","","","24","1051","541","&#9854;","elianto","#FFFFF080","-1","-1","1","&#10004","[]","0","0","1","","","","","","","","",""
"pit-trial","16","191448","0.0-2.0-6.2-0.2","battery-v0.2","","""event"",""trial"",""time""
""fullscreenenter"",""1"",""3538""
","
","
","""event"",""trial"",""time""
""fullscreenenter"",""1"",""3538""
","
","","","-1","","","24","1051","541","&#9854;","elianto","#FFFFF080","-1","-1","1","&#10004","[]","0","0","1","","","","","","","","",""
"pit-trial","17","196307","0.0-2.0-6.3-0.3","battery-v0.2","","""event"",""trial"",""time""
""fullscreenenter"",""1"",""3538""
","
","
","""event"",""trial"",""time""
""fullscreenenter"",""1"",""3538""
","
","","","-1","","","24","1051","541","&#9854;","elianto","#FFFFF080","-1","-1","1","&#10004","[]","0","0","1","","","","","","","","",""
"pit-trial","18","201166","0.0-2.0-6.4-0.4","battery-v0.2","","""event"",""trial"",""time""
""fullscreenenter"",""1"",""3538""
","
","
","""event"",""trial"",""time""
""fullscreenenter"",""1"",""3538""
","
","","","-1","","","24","1051","541","&#9854;","elianto","#FFFFF080","-1","-1","1","&#10004","[]","0","0","1","","","","","","","","",""
"pit-instructions","19","312366","0.0-2.0-7.0","battery-v0.2","","""event"",""trial"",""time""
""fullscreenenter"",""1"",""3538""
","
","
","""event"",""trial"",""time""
""fullscreenenter"",""1"",""3538""
","
","","[{""page_index"":0,""viewing_time"":5352},{""page_index"":1,""viewing_time"":7998},{""page_index"":2,""viewing_time"":5934},{""page_index"":3,""viewing_time"":5572},{""page_index"":4,""viewing_time"":5323},{""page_index"":5,""viewing_time"":5201},{""page_index"":6,""viewing_time"":4684},{""page_index"":7,""viewing_time"":7748},{""page_index"":8,""viewing_time"":6160.000000000029},{""page_index"":9,""viewing_time"":5481.999999999971},{""page_index"":10,""viewing_time"":6708},{""page_index"":11,""viewing_time"":4741},{""page_index"":12,""viewing_time"":6827},{""page_index"":13,""viewing_time"":7240},{""page_index"":14,""viewing_time"":6724},{""page_index"":15,""viewing_time"":6852},{""page_index"":16,""viewing_time"":6183.000000000058},{""page_index"":17,""viewing_time"":6464.999999999942}]","111196","","","","","","","","","","","","","","","","","","","","","","","","",""
"pit-trial","20","315731","0.0-2.0-8.0-0.0","battery-v0.2","","""event"",""trial"",""time""
""fullscreenenter"",""1"",""3538""
","
","
","""event"",""trial"",""time""
""fullscreenenter"",""1"",""3538""
","
","","","507","","","24","1051","541","&#9776;","elianto","#3366ff99"," "," ","1","+10","[1357]","1","0","1","","","","","","","","",""
"pit-trial","21","319091","0.0-2.0-8.0-1.0","battery-v0.2","","""event"",""trial"",""time""
""fullscreenenter"",""1"",""3538""
","
","
","""event"",""trial"",""time""
""fullscreenenter"",""1"",""3538""
","
","","","501","","","24","1051","541","&#9776;","elianto","#3366ff99"," "," ","1","+10","[1352]","1","0","1","","","","","","","","",""
"pit-trial","22","322391","0.0-2.0-8.0-2.0","battery-v0.2","","""event"",""trial"",""time""
""fullscreenenter"",""1"",""3538""
","
","
","""event"",""trial"",""time""
""fullscreenenter"",""1"",""3538""
","
","","","442","","","24","1051","541","&#9776;","elianto","#3366ff99"," "," ","1","+10","[1293]","1","0","1","","","","","","","","",""
"pit-trial","23","325735","0.0-2.0-8.0-3.0","battery-v0.2","","""event"",""trial"",""time""
""fullscreenenter"",""1"",""3538""
","
","
","""event"",""trial"",""time""
""fullscreenenter"",""1"",""3538""
","
","","","487","","","24","1051","541","&#9776;","elianto","#3366ff99"," "," ","1","0","[1338]","1","0","1","","","","","","","","",""
"pit-trial","24","329026","0.0-2.0-8.0-4.0","battery-v0.2","","""event"",""trial"",""time""
""fullscreenenter"",""1"",""3538""
","
","
","""event"",""trial"",""time""
""fullscreenenter"",""1"",""3538""
","
","","","433","","","24","1051","541","&#9776;","elianto","#3366ff99"," "," ","1","+10","[1284]","1","0","1","","","","","","","","",""
"call-function","25","329031","0.0-2.0-9.0","battery-v0.2","","""event"",""trial"",""time""
""fullscreenenter"",""1"",""3538""
","
","
","""event"",""trial"",""time""
""fullscreenenter"",""1"",""3538""
","
","","","","","","","","","","","","","","","","","","","","","","","","","","","",""
"pit-instructions","26","373345","0.0-2.0-10.0","battery-v0.2","","""event"",""trial"",""time""
""fullscreenenter"",""1"",""3538""
","
","
","""event"",""trial"",""time""
""fullscreenenter"",""1"",""3538""
","
","","[{""page_index"":0,""viewing_time"":10732},{""page_index"":1,""viewing_time"":7939.000000000058},{""page_index"":2,""viewing_time"":9245.999999999942},{""page_index"":3,""viewing_time"":8536},{""page_index"":4,""viewing_time"":7860}]","44314","","","","","","","","","","","","","","","","","","","","","","","","",""
"pit-trial","27","377318","0.0-2.0-11.0-0.0","battery-v0.2","","""event"",""trial"",""time""
""fullscreenenter"",""1"",""3538""
","
","
","""event"",""trial"",""time""
""fullscreenenter"",""1"",""3538""
","
","","","1116","","","24","1051","541","&#9761;","elianto","#3366ff99","-1"," ","0","0","[1967]","1","0","2","","","","","","","","",""
"pit-trial","28","382176","0.0-2.0-11.0-1.0","battery-v0.2","","""event"",""trial"",""time""
""fullscreenenter"",""1"",""3538""
","
","
","""event"",""trial"",""time""
""fullscreenenter"",""1"",""3538""
","
","","","-1","","","24","1051","541","&#9761;","elianto","#3366ff99","-1","-1","1","+10","[]","0","0","2","","","","","","","","",""
"pit-trial","29","387035","0.0-2.0-11.0-2.0","battery-v0.2","","""event"",""trial"",""time""
""fullscreenenter"",""1"",""3538""
","
","
","""event"",""trial"",""time""
""fullscreenenter"",""1"",""3538""
","
","","","-1","","","24","1051","541","&#9761;","elianto","#3366ff99","-1","-1","1","+10","[]","0","0","2","","","","","","","","",""
"pit-trial","30","391893","0.0-2.0-11.0-3.0","battery-v0.2","","""event"",""trial"",""time""
""fullscreenenter"",""1"",""3538""
","
","
","""event"",""trial"",""time""
""fullscreenenter"",""1"",""3538""
","
","","","-1","","","24","1051","541","&#9761;","elianto","#3366ff99","-1","-1","1","0","[]","0","0","2","","","","","","","","",""
"pit-trial","31","396750","0.0-2.0-11.0-4.0","battery-v0.2","","""event"",""trial"",""time""
""fullscreenenter"",""1"",""3538""
","
","
","""event"",""trial"",""time""
""fullscreenenter"",""1"",""3538""
","
","","","-1","","","24","1051","541","&#9761;","elianto","#3366ff99","-1","-1","1","+10","[]","0","0","2","","","","","","","","",""
"call-function","32","396756","0.0-2.0-12.0","battery-v0.2","","""event"",""trial"",""time""
""fullscreenenter"",""1"",""3538""
","
","
","""event"",""trial"",""time""
""fullscreenenter"",""1"",""3538""
","
","","","","","","","","","","","","","","","","","","","","","","","","","","","",""
"pit-instructions","33","432598","0.0-2.0-13.0","battery-v0.2","","""event"",""trial"",""time""
""fullscreenenter"",""1"",""3538""
","
","
","""event"",""trial"",""time""
""fullscreenenter"",""1"",""3538""
","
","","[{""page_index"":0,""viewing_time"":5491},{""page_index"":1,""viewing_time"":7810},{""page_index"":2,""viewing_time"":4226},{""page_index"":3,""viewing_time"":10812},{""page_index"":4,""viewing_time"":7503}]","35843","","","","","","","","","","","","","","","","","","","","","","","","",""
"pit-trial","34","437455","0.0-2.0-14.0-0.0","battery-v0.2","","""event"",""trial"",""time""
""fullscreenenter"",""1"",""3538""
","
","
","""event"",""trial"",""time""
""fullscreenenter"",""1"",""3538""
","
","","","-1","","","24","1051","541","&#9826;","elianto","#f73b6a7A","-1","-1","1","0","[]","0","0","3","","","","","","","","",""
"pit-trial","35","442314","0.0-2.0-14.0-1.0","battery-v0.2","","""event"",""trial"",""time""
""fullscreenenter"",""1"",""3538""
","
","
","""event"",""trial"",""time""
""fullscreenenter"",""1"",""3538""
","
","","","-1","","","24","1051","541","&#9826;","elianto","#f73b6a7A","-1","-1","1","0","[]","0","0","3","","","","","","","","",""
"pit-trial","36","447157","0.0-2.0-14.0-2.0","battery-v0.2","","""event"",""trial"",""time""
""fullscreenenter"",""1"",""3538""
","
","
","""event"",""trial"",""time""
""fullscreenenter"",""1"",""3538""
","
","","","1984","","","24","1051","541","&#9826;","elianto","#f73b6a7A","-1"," ","0","-10","[2835]","1","0","3","","","","","","","","",""
"pit-trial","37","452015","0.0-2.0-14.0-3.0","battery-v0.2","","""event"",""trial"",""time""
""fullscreenenter"",""1"",""3538""
","
","
","""event"",""trial"",""time""
""fullscreenenter"",""1"",""3538""
","
","","","-1","","","24","1051","541","&#9826;","elianto","#f73b6a7A","-1","-1","1","-10","[]","0","0","3","","","","","","","","",""
"pit-trial","38","456874","0.0-2.0-14.0-4.0","battery-v0.2","","""event"",""trial"",""time""
""fullscreenenter"",""1"",""3538""
","
","
","""event"",""trial"",""time""
""fullscreenenter"",""1"",""3538""
","
","","","-1","","","24","1051","541","&#9826;","elianto","#f73b6a7A","-1","-1","1","0","[]","0","0","3","","","","","","","","",""
"pit-trial","39","461733","0.0-2.0-14.1-0.1","battery-v0.2","","""event"",""trial"",""time""
""fullscreenenter"",""1"",""3538""
","
","
","""event"",""trial"",""time""
""fullscreenenter"",""1"",""3538""
","
","","","-1","","","24","1051","541","&#9826;","elianto","#f73b6a7A","-1","-1","1","0","[]","0","0","3","","","","","","","","",""
"pit-trial","40","466592","0.0-2.0-14.1-1.1","battery-v0.2","","""event"",""trial"",""time""
""fullscreenenter"",""1"",""3538""
","
","
","""event"",""trial"",""time""
""fullscreenenter"",""1"",""3538""
","
","","","-1","","","24","1051","541","&#9826;","elianto","#f73b6a7A","-1","-1","1","0","[]","0","0","3","","","","","","","","",""
"pit-trial","41","471450","0.0-2.0-14.1-2.1","battery-v0.2","","""event"",""trial"",""time""
""fullscreenenter"",""1"",""3538""
","
","
","""event"",""trial"",""time""
""fullscreenenter"",""1"",""3538""
","
","","","-1","","","24","1051","541","&#9826;","elianto","#f73b6a7A","-1","-1","1","0","[]","0","0","3","","","","","","","","",""
"pit-trial","42","476309","0.0-2.0-14.1-3.1","battery-v0.2","","""event"",""trial"",""time""
""fullscreenenter"",""1"",""3538""
","
","
","""event"",""trial"",""time""
""fullscreenenter"",""1"",""3538""
","
","","","-1","","","24","1051","541","&#9826;","elianto","#f73b6a7A","-1","-1","1","-10","[]","0","0","3","","","","","","","","",""
"pit-trial","43","481168","0.0-2.0-14.1-4.1","battery-v0.2","","""event"",""trial"",""time""
""fullscreenenter"",""1"",""3538""
","
","
","""event"",""trial"",""time""
""fullscreenenter"",""1"",""3538""
","
","","","-1","","","24","1051","541","&#9826;","elianto","#f73b6a7A","-1","-1","1","0","[]","0","0","3","","","","","","","","",""
"call-function","44","481172","0.0-2.0-15.0","battery-v0.2","","""event"",""trial"",""time""
""fullscreenenter"",""1"",""3538""
","
","
","""event"",""trial"",""time""
""fullscreenenter"",""1"",""3538""
","
","","","","","","","","","","","","","","","","","","","","","","","","","","","",""
"pit-instructions","45","506374","0.0-2.0-16.0","battery-v0.2","","""event"",""trial"",""time""
""fullscreenenter"",""1"",""3538""
","
","
","""event"",""trial"",""time""
""fullscreenenter"",""1"",""3538""
","
","","[{""page_index"":0,""viewing_time"":6334.999999999942},{""page_index"":1,""viewing_time"":8327},{""page_index"":2,""viewing_time"":4458.000000000058},{""page_index"":3,""viewing_time"":6080.999999999942}]","25202","","","","","","","","","","","","","","","","","","","","","","","","",""
"pit-trial","46","509581","0.0-2.0-17.0-0.0","battery-v0.2","","""event"",""trial"",""time""
""fullscreenenter"",""1"",""3538""
","
","
","""event"",""trial"",""time""
""fullscreenenter"",""1"",""3538""
","
","","","349","","","24","1051","541","&#9789;","elianto","#f73b6a7A"," "," ","1","0","[1200]","1","0","4","","","","","","","","",""
"pit-trial","47","512870","0.0-2.0-17.0-1.0","battery-v0.2","","""event"",""trial"",""time""
""fullscreenenter"",""1"",""3538""
","
","
","""event"",""trial"",""time""
""fullscreenenter"",""1"",""3538""
","
","","","428","","","24","1051","541","&#9789;","elianto","#f73b6a7A"," "," ","1","0","[1281]","1","0","4","","","","","","","","",""
"pit-trial","48","516171","0.0-2.0-17.0-2.0","battery-v0.2","","""event"",""trial"",""time""
""fullscreenenter"",""1"",""3538""
","
","
","""event"",""trial"",""time""
""fullscreenenter"",""1"",""3538""
","
","","","442.9999999999418","","","24","1051","541","&#9789;","elianto","#f73b6a7A"," "," ","1","0","[1293.9999999999418]","1","0","4","","","","","","","","",""
"pit-trial","49","519457","0.0-2.0-17.0-3.0","battery-v0.2","","""event"",""trial"",""time""
""fullscreenenter"",""1"",""3538""
","
","
","""event"",""trial"",""time""
""fullscreenenter"",""1"",""3538""
","
","","","428.9999999999418","","","24","1051","541","&#9789;","elianto","#f73b6a7A"," "," ","1","-10","[1279]","1","0","4","","","","","","","","",""
"pit-trial","50","522590","0.0-2.0-17.0-4.0","battery-v0.2","","""event"",""trial"",""time""
""fullscreenenter"",""1"",""3538""
","
","
","""event"",""trial"",""time""
""fullscreenenter"",""1"",""3538""
","
","","","275.0000000001164","","","24","1051","541","&#9789;","elianto","#f73b6a7A"," "," ","1","0","[1126.0000000001164]","1","0","4","","","","","","","","",""
"call-function","51","522595","0.0-2.0-18.0","battery-v0.2","","""event"",""trial"",""time""
""fullscreenenter"",""1"",""3538""
","
","
","""event"",""trial"",""time""
""fullscreenenter"",""1"",""3538""
","
","","","","","","","","","","","","","","","","","","","","","","","","","","","",""
"pit-instructions","52","596418","0.0-2.0-19.0","battery-v0.2","","""event"",""trial"",""time""
""fullscreenenter"",""1"",""3538""
","
","
","""event"",""trial"",""time""
""fullscreenenter"",""1"",""3538""
","
","","[{""page_index"":0,""viewing_time"":8709},{""page_index"":1,""viewing_time"":7335},{""page_index"":2,""viewing_time"":13419},{""page_index"":3,""viewing_time"":7825},{""page_index"":4,""viewing_time"":9509},{""page_index"":5,""viewing_time"":9013},{""page_index"":6,""viewing_time"":7952},{""page_index"":7,""viewing_time"":6116},{""page_index"":8,""viewing_time"":3944}]","73823","","","","","","","","","","","","","","","","","","","","","","","","",""
"pit-comprehension","53","601203","0.0-2.0-20.0-0.0","battery-v0.2","","""event"",""trial"",""time""
""fullscreenenter"",""1"",""3538""
","
","
","""event"",""trial"",""time""
""fullscreenenter"",""1"",""3538""
","
","","","4781","[""SPACE""]","0","24","1051","541","","","","","","","","","","","","","","","","","","","",""
"pit-instructions","54","603995","0.0-2.0-20.0-1.0","battery-v0.2","","""event"",""trial"",""time""
""fullscreenenter"",""1"",""3538""
","
","
","""event"",""trial"",""time""
""fullscreenenter"",""1"",""3538""
","
","","[{""page_index"":0,""viewing_time"":2779.0000000001164}]","2779.0000000001164","","","","","","","","","","","","","","","","","","","","","","","","",""
"pit-comprehension","55","609330","0.0-2.0-21.0-0.0","battery-v0.2","","""event"",""trial"",""time""
""fullscreenenter"",""1"",""3538""
","
","
","""event"",""trial"",""time""
""fullscreenenter"",""1"",""3538""
","
","","","5329","[""10""]","0","24","1051","541","","","","","","","","","","","","","","","","","","","",""
"pit-instructions","56","610976","0.0-2.0-21.0-1.0","battery-v0.2","","""event"",""trial"",""time""
""fullscreenenter"",""1"",""3538""
","
","
","""event"",""trial"",""time""
""fullscreenenter"",""1"",""3538""
","
","","[{""page_index"":0,""viewing_time"":1631}]","1632.0000000001164","","","","","","","","","","","","","","","","","","","","","","","","",""
"pit-comprehension","57","620142","0.0-2.0-22.0-0.0","battery-v0.2","","""event"",""trial"",""time""
""fullscreenenter"",""1"",""3538""
","
","
","""event"",""trial"",""time""
""fullscreenenter"",""1"",""3538""
","
","","","9157","[""0""]","0","24","1051","541","","","","","","","","","","","","","","","","","","","",""
"pit-instructions","58","621844","0.0-2.0-22.0-1.0","battery-v0.2","","""event"",""trial"",""time""
""fullscreenenter"",""1"",""3538""
","
","
","""event"",""trial"",""time""
""fullscreenenter"",""1"",""3538""
","
","","[{""page_index"":0,""viewing_time"":1686}]","1687","","","","","","","","","","","","","","","","","","","","","","","","",""
"pit-comprehension","59","634933","0.0-2.0-23.0-0.0","battery-v0.2","","""event"",""trial"",""time""
""fullscreenenter"",""1"",""3538""
","
","
","""event"",""trial"",""time""
""fullscreenenter"",""1"",""3538""
","
","","","13083","[""True""]","0","24","1051","541","","","","","","","","","","","","","","","","","","","",""
"pit-instructions","60","636485","0.0-2.0-23.0-1.0","battery-v0.2","","""event"",""trial"",""time""
""fullscreenenter"",""1"",""3538""
","
","
","""event"",""trial"",""time""
""fullscreenenter"",""1"",""3538""
","
","","[{""page_index"":0,""viewing_time"":1536.9999999998836}]","1537.9999999998836","","","","","","","","","","","","","","","","","","","","","","","","",""
"pit-comprehension","61","644536","0.0-2.0-24.0-0.0","battery-v0.2","","""event"",""trial"",""time""
""fullscreenenter"",""1"",""3538""
","
","
","""event"",""trial"",""time""
""fullscreenenter"",""1"",""3538""
","
","","","8044","[""True""]","0","24","1051","541","","","","","","","","","","","","","","","","","","","",""
"pit-instructions","62","646197","0.0-2.0-24.0-1.0","battery-v0.2","","""event"",""trial"",""time""
""fullscreenenter"",""1"",""3538""
","
","
","""event"",""trial"",""time""
""fullscreenenter"",""1"",""3538""
","
","","[{""page_index"":0,""viewing_time"":1651.0000000001164}]","1652","","","","","","","","","","","","","","","","","","","","","","","","",""
"pit-comprehension","63","652818","0.0-2.0-25.0-0.0","battery-v0.2","","""event"",""trial"",""time""
""fullscreenenter"",""1"",""3538""
","
","
","""event"",""trial"",""time""
""fullscreenenter"",""1"",""3538""
","
","","","6614.999999999884","[""True""]","0","24","1051","541","","","","","","","","","","","","","","","","","","","",""
"pit-instructions","64","654311","0.0-2.0-25.0-1.0","battery-v0.2","","""event"",""trial"",""time""
""fullscreenenter"",""1"",""3538""
","
","
","""event"",""trial"",""time""
""fullscreenenter"",""1"",""3538""
","
","","[{""page_index"":0,""viewing_time"":1478}]","1478","","","","","","","","","","","","","","","","","","","","","","","","",""
"pit-comprehension","65","659676","0.0-2.0-26.0-0.0","battery-v0.2","","""event"",""trial"",""time""
""fullscreenenter"",""1"",""3538""
","
","
","""event"",""trial"",""time""
""fullscreenenter"",""1"",""3538""
","
","","","5359","[""False""]","0","24","1051","541","","","","","","","","","","","","","","","","","","","",""
"pit-instructions","66","661740","0.0-2.0-26.0-1.0","battery-v0.2","","""event"",""trial"",""time""
""fullscreenenter"",""1"",""3538""
","
","
","""event"",""trial"",""time""
""fullscreenenter"",""1"",""3538""
","
","","[{""page_index"":0,""viewing_time"":2048}]","2049","","","","","","","","","","","","","","","","","","","","","","","","",""
"pit-instructions","67","678066","0.0-3.0","battery-v0.2","","""event"",""trial"",""time""
""fullscreenenter"",""1"",""3538""
","
","
","""event"",""trial"",""time""
""fullscreenenter"",""1"",""3538""
","
","","[{""page_index"":0,""viewing_time"":3507},{""page_index"":1,""viewing_time"":5827},{""page_index"":2,""viewing_time"":6985}]","16320","","","","","","","","","","","","","","","","","","","","","","","","",""
"pit-trial","68","681550","0.0-4.0","battery-v0.2","","""event"",""trial"",""time""
""fullscreenenter"",""1"",""3538""
","
","
","""event"",""trial"",""time""
""fullscreenenter"",""1"",""3538""
","
","","","625","","","24","1051","541","&#9733;","elianto","#3366ff99","-1"," ","0","0","[1475.0000000001164]","1","1","","","1051","1","2","2","win","no-go","0","[]"
"pit-trial","69","685047","0.0-5.0","battery-v0.2","","""event"",""trial"",""time""
""fullscreenenter"",""1"",""3538""
","
","
","""event"",""trial"",""time""
""fullscreenenter"",""1"",""3538""
","
","","","639","","","24","1051","541","&#9752;","elianto","#f73b6a7A"," "," ","1","-10","[1489]","1","1","","","1051","2","3","3","lose","go","1","0"
"pit-trial","70","688538","0.0-6.0","battery-v0.2","","""event"",""trial"",""time""
""fullscreenenter"",""1"",""3538""
","
","
","""event"",""trial"",""time""
""fullscreenenter"",""1"",""3538""
","
","","","634","","","24","1051","541","&#9728;","elianto","#f73b6a7A","-1"," ","0","-10","[1484]","1","1","","","1051","3","0","4","lose","no-go","0","0"
"pit-trial","71","691871","0.0-7.0","battery-v0.2","","""event"",""trial"",""time""
""fullscreenenter"",""1"",""3538""
","
","
","""event"",""trial"",""time""
""fullscreenenter"",""1"",""3538""
","
","","","476","","","24","1051","541","&#9730;","elianto","#3366ff99"," "," ","1","+10","[1325.9999999998836]","1","1","","","1051","4","1","1","win","go","0","0"
"pit-trial","72","696730","0.0-8.0","battery-v0.2","","""event"",""trial"",""time""
""fullscreenenter"",""1"",""3538""
","
","
","""event"",""trial"",""time""
""fullscreenenter"",""1"",""3538""
","
","","","-1","","","24","1051","541","&#9752;","elianto","#f73b6a7A"," ","-1","0","-10","[]","0","1","","","1051","5","3","3","lose","go","0","0"
"pit-trial","73","700560","0.0-9.0","battery-v0.2","","""event"",""trial"",""time""
""fullscreenenter"",""1"",""3538""
","
","
","""event"",""trial"",""time""
""fullscreenenter"",""1"",""3538""
","
","","","968","","","24","1051","541","&#9730;","elianto","#3366ff99"," "," ","1","+10","[1819]","1","1","","","1051","6","1","1","win","go","0","0"
"pit-trial","74","705422","0.0-10.0","battery-v0.2","","""event"",""trial"",""time""
""fullscreenenter"",""1"",""3538""
","
","
","""event"",""trial"",""time""
""fullscreenenter"",""1"",""3538""
","
","","","-1","","","24","1051","541","&#9728;","elianto","#f73b6a7A","-1","-1","1","0","[]","0","1","","","1051","7","0","4","lose","no-go","0","0"
"pit-trial","75","710284","0.0-11.0","battery-v0.2","","""event"",""trial"",""time""
""fullscreenenter"",""1"",""3538""
","
","
","""event"",""trial"",""time""
""fullscreenenter"",""1"",""3538""
","
","","","-1","","","24","1051","541","&#9733;","elianto","#3366ff99","-1","-1","1","+10","[]","0","1","","","1051","8","2","2","win","no-go","0","0"
"pit-trial","76","713684","0.0-12.0","battery-v0.2","","""event"",""trial"",""time""
""fullscreenenter"",""1"",""3538""
","
","
","""event"",""trial"",""time""
""fullscreenenter"",""1"",""3538""
","
","","","542","","","24","1051","541","&#9752;","elianto","#f73b6a7A"," "," ","1","0","[1392]","1","1","","","1051","9","3","3","lose","go","0","0"
"pit-trial","77","718544","0.0-13.0","battery-v0.2","","""event"",""trial"",""time""
""fullscreenenter"",""1"",""3538""
","
","
","""event"",""trial"",""time""
""fullscreenenter"",""1"",""3538""
","
","","","-1","","","24","1051","541","&#9728;","elianto","#f73b6a7A","-1","-1","1","-10","[]","0","1","","","1051","10","0","4","lose","no-go","1","0"
"pit-trial","78","721975","0.0-14.0","battery-v0.2","","""event"",""trial"",""time""
""fullscreenenter"",""1"",""3538""
","
","
","""event"",""trial"",""time""
""fullscreenenter"",""1"",""3538""
","
","","","570","","","24","1051","541","&#9730;","elianto","#3366ff99"," "," ","1","+10","[1421]","1","1","","","1051","11","1","1","win","go","0","0"
"pit-trial","79","726835","0.0-15.0","battery-v0.2","","""event"",""trial"",""time""
""fullscreenenter"",""1"",""3538""
","
","
","""event"",""trial"",""time""
""fullscreenenter"",""1"",""3538""
","
","","","-1","","","24","1051","541","&#9733;","elianto","#3366ff99","-1","-1","1","+10","[]","0","1","","","1051","12","2","2","win","no-go","0","0"
"pit-trial","80","731695","0.0-16.0","battery-v0.2","","""event"",""trial"",""time""
""fullscreenenter"",""1"",""3538""
","
","
","""event"",""trial"",""time""
""fullscreenenter"",""1"",""3538""
","
","","","-1","","","24","1051","541","&#9733;","elianto","#3366ff99","-1","-1","1","0","[]","0","1","","","1051","13","2","2","win","no-go","1","0"
"pit-trial","81","735303","0.0-17.0","battery-v0.2","","""event"",""trial"",""time""
""fullscreenenter"",""1"",""3538""
","
","
","""event"",""trial"",""time""
""fullscreenenter"",""1"",""3538""
","
","","","747","","","24","1051","541","&#9752;","elianto","#f73b6a7A"," "," ","1","0","[1598.9999999998836]","1","1","","","1051","14","3","3","lose","go","0","0"
"pit-trial","82","738694","0.0-18.0","battery-v0.2","","""event"",""trial"",""time""
""fullscreenenter"",""1"",""3538""
","
","
","""event"",""trial"",""time""
""fullscreenenter"",""1"",""3538""
","
","","","533","","","24","1051","541","&#9730;","elianto","#3366ff99"," "," ","1","+10","[1383]","1","1","","","1051","15","1","1","win","go","0","0"
"pit-trial","83","743555","0.0-19.0","battery-v0.2","","""event"",""trial"",""time""
""fullscreenenter"",""1"",""3538""
","
","
","""event"",""trial"",""time""
""fullscreenenter"",""1"",""3538""
","
","","","-1","","","24","1051","541","&#9728;","elianto","#f73b6a7A","-1","-1","1","0","[]","0","1","","","1051","16","0","4","lose","no-go","0","0"
"pit-trial","84","747143","0.0-20.0","battery-v0.2","","""event"",""trial"",""time""
""fullscreenenter"",""1"",""3538""
","
","
","""event"",""trial"",""time""
""fullscreenenter"",""1"",""3538""
","
","","","729","","","24","1051","541","&#9730;","elianto","#3366ff99"," "," ","1","+10","[1579]","1","1","","","1051","17","1","1","win","go","0","0"
"pit-trial","85","752002","0.0-21.0","battery-v0.2","","""event"",""trial"",""time""
""fullscreenenter"",""1"",""3538""
","
","
","""event"",""trial"",""time""
""fullscreenenter"",""1"",""3538""
","
","","","-1","","","24","1051","541","&#9728;","elianto","#f73b6a7A","-1","-1","1","0","[]","0","1","","","1051","18","0","4","lose","no-go","0","0"
"pit-trial","86","756863","0.0-22.0","battery-v0.2","","""event"",""trial"",""time""
""fullscreenenter"",""1"",""3538""
","
","
","""event"",""trial"",""time""
""fullscreenenter"",""1"",""3538""
","
","","","-1","","","24","1051","541","&#9733;","elianto","#3366ff99","-1","-1","1","0","[]","0","1","","","1051","19","2","2","win","no-go","1","0"
"pit-trial","87","760511","0.0-23.0","battery-v0.2","","""event"",""trial"",""time""
""fullscreenenter"",""1"",""3538""
","
","
","""event"",""trial"",""time""
""fullscreenenter"",""1"",""3538""
","
","","","786","","","24","1051","541","&#9752;","elianto","#f73b6a7A"," "," ","1","0","[1638.9999999998836]","1","1","","","1051","20","3","3","lose","go","0","0"
"pit-instructions","88","773634","0.0-24.0","battery-v0.2","","""event"",""trial"",""time""
""fullscreenenter"",""1"",""3538""
","
","
","""event"",""trial"",""time""
""fullscreenenter"",""1"",""3538""
","
","","[{""page_index"":0,""viewing_time"":6283},{""page_index"":1,""viewing_time"":6834}]","13117","","","","","","","","","","","","","","","","","","","","","","","","",""
"pit-trial","89","776932","0.0-25.0","battery-v0.2","","""event"",""trial"",""time""
""fullscreenenter"",""1"",""3538""
","
","
","""event"",""trial"",""time""
""fullscreenenter"",""1"",""3538""
","
","","","438","","","24","1051","541","u","elianto","#3366ff99","-1"," ","0","0","[1288]","1","2","","","1051","21","0","2","win","no-go","0","0"
"pit-trial","90","780605","0.0-26.0","battery-v0.2","","""event"",""trial"",""time""
""fullscreenenter"",""1"",""3538""
","
","
","""event"",""trial"",""time""
""fullscreenenter"",""1"",""3538""
","
","","","812","","","24","1051","541","g","elianto","#3366ff99"," "," ","1","+10","[1664]","1","2","","","1051","22","3","1","win","go","0","0"
"pit-trial","91","784101","0.0-27.0","battery-v0.2","","""event"",""trial"",""time""
""fullscreenenter"",""1"",""3538""
","
","
","""event"",""trial"",""time""
""fullscreenenter"",""1"",""3538""
","
","","","636","","","24","1051","541","l","elianto","#f73b6a7A"," "," ","1","0","[1487]","1","2","","","1051","23","1","3","lose","go","0","0"
"pit-trial","92","788963","0.0-28.0","battery-v0.2","","""event"",""trial"",""time""
""fullscreenenter"",""1"",""3538""
","
","
","""event"",""trial"",""time""
""fullscreenenter"",""1"",""3538""
","
","","","-1","","","24","1051","541","a","elianto","#f73b6a7A","-1","-1","1","-10","[]","0","2","","","1051","24","2","4","lose","no-go","1","0"
"pit-trial","93","792370","0.0-29.0","battery-v0.2","","""event"",""trial"",""time""
""fullscreenenter"",""1"",""3538""
","
","
","""event"",""trial"",""time""
""fullscreenenter"",""1"",""3538""
","
","","","545","","","24","1051","541","g","elianto","#3366ff99"," "," ","1","+10","[1396]","1","2","","","1051","25","3","1","win","go","0","0"
"pit-trial","94","795981","0.0-30.0","battery-v0.2","","""event"",""trial"",""time""
""fullscreenenter"",""1"",""3538""
","
","
","""event"",""trial"",""time""
""fullscreenenter"",""1"",""3538""
","
","","","750","","","24","1051","541","a","elianto","#f73b6a7A","-1"," ","0","-10","[1601]","1","2","","","1051","26","2","4","lose","no-go","0","0"
"pit-trial","95","799397","0.0-31.0","battery-v0.2","","""event"",""trial"",""time""
""fullscreenenter"",""1"",""3538""
","
","
","""event"",""trial"",""time""
""fullscreenenter"",""1"",""3538""
","
","","","556","","","24","1051","541","l","elianto","#f73b6a7A"," "," ","1","0","[1407]","1","2","","","1051","27","1","3","lose","go","0","0"
"pit-trial","96","804258","0.0-32.0","battery-v0.2","","""event"",""trial"",""time""
""fullscreenenter"",""1"",""3538""
","
","
","""event"",""trial"",""time""
""fullscreenenter"",""1"",""3538""
","
","","","-1","","","24","1051","541","u","elianto","#3366ff99","-1","-1","1","+10","[]","0","2","","","1051","28","0","2","win","no-go","0","0"
"pit-trial","97","808014","0.0-33.0","battery-v0.2","","""event"",""trial"",""time""
""fullscreenenter"",""1"",""3538""
","
","
","""event"",""trial"",""time""
""fullscreenenter"",""1"",""3538""
","
","","","899","","","24","1051","541","l","elianto","#f73b6a7A"," "," ","1","-10","[1750]","1","2","","","1051","29","1","3","lose","go","1","0"
"pit-trial","98","812873","0.0-34.0","battery-v0.2","","""event"",""trial"",""time""
""fullscreenenter"",""1"",""3538""
","
","
","""event"",""trial"",""time""
""fullscreenenter"",""1"",""3538""
","
","","","-1","","","24","1051","541","u","elianto","#3366ff99","-1","-1","1","+10","[]","0","2","","","1051","30","0","2","win","no-go","0","0"
"pit-trial","99","817734","0.0-35.0","battery-v0.2","","""event"",""trial"",""time""
""fullscreenenter"",""1"",""3538""
","
","
","""event"",""trial"",""time""
""fullscreenenter"",""1"",""3538""
","
","","","-1","","","24","1051","541","a","elianto","#f73b6a7A","-1","-1","1","0","[]","0","2","","","1051","31","2","4","lose","no-go","0","0"
"pit-trial","100","821238","0.0-36.0","battery-v0.2","","""event"",""trial"",""time""
""fullscreenenter"",""1"",""3538""
","
","
","""event"",""trial"",""time""
""fullscreenenter"",""1"",""3538""
","
","","","645","","","24","1051","541","g","elianto","#3366ff99"," "," ","1","+10","[1496]","1","2","","","1051","32","3","1","win","go","0","0"
"pit-trial","101","826099","0.0-37.0","battery-v0.2","","""event"",""trial"",""time""
""fullscreenenter"",""1"",""3538""
","
","
","""event"",""trial"",""time""
""fullscreenenter"",""1"",""3538""
","
","","","-1","","","24","1051","541","a","elianto","#f73b6a7A","-1","-1","1","-10","[]","0","2","","","1051","33","2","4","lose","no-go","1","0"
"pit-trial","102","829609","0.0-38.0","battery-v0.2","","""event"",""trial"",""time""
""fullscreenenter"",""1"",""3538""
","
","
","""event"",""trial"",""time""
""fullscreenenter"",""1"",""3538""
","
","","","652","","","24","1051","541","l","elianto","#f73b6a7A"," "," ","1","-10","[1503]","1","2","","","1051","34","1","3","lose","go","1","0"
"pit-trial","103","834468","0.0-39.0","battery-v0.2","","""event"",""trial"",""time""
""fullscreenenter"",""1"",""3538""
","
","
","""event"",""trial"",""time""
""fullscreenenter"",""1"",""3538""
","
","","","-1","","","24","1051","541","u","elianto","#3366ff99","-1","-1","1","+10","[]","0","2","","","1051","35","0","2","win","no-go","0","0"
"pit-trial","104","838004","0.0-40.0","battery-v0.2","","""event"",""trial"",""time""
""fullscreenenter"",""1"",""3538""
","
","
","""event"",""trial"",""time""
""fullscreenenter"",""1"",""3538""
","
","","","677","","","24","1051","541","g","elianto","#3366ff99"," "," ","1","+10","[1528]","1","2","","","1051","36","3","1","win","go","0","0"
"pit-trial","105","842864","0.0-41.0","battery-v0.2","","""event"",""trial"",""time""
""fullscreenenter"",""1"",""3538""
","
","
","""event"",""trial"",""time""
""fullscreenenter"",""1"",""3538""
","
","","","-1","","","24","1051","541","a","elianto","#f73b6a7A","-1","-1","1","-10","[]","0","2","","","1051","37","2","4","lose","no-go","1","0"
"pit-trial","106","846413","0.0-42.0","battery-v0.2","","""event"",""trial"",""time""
""fullscreenenter"",""1"",""3538""
","
","
","""event"",""trial"",""time""
""fullscreenenter"",""1"",""3538""
","
","","","689","","","24","1051","541","g","elianto","#3366ff99"," "," ","1","+10","[1540]","1","2","","","1051","38","3","1","win","go","0","0"
"pit-trial","107","851273","0.0-43.0","battery-v0.2","","""event"",""trial"",""time""
""fullscreenenter"",""1"",""3538""
","
","
","""event"",""trial"",""time""
""fullscreenenter"",""1"",""3538""
","
","","","-1","","","24","1051","541","u","elianto","#3366ff99","-1","-1","1","+10","[]","0","2","","","1051","39","0","2","win","no-go","0","0"
"pit-trial","108","856133","0.0-44.0","battery-v0.2","","""event"",""trial"",""time""
""fullscreenenter"",""1"",""3538""
","
","
","""event"",""trial"",""time""
""fullscreenenter"",""1"",""3538""
","
","","","-1","","","24","1051","541","l","elianto","#f73b6a7A"," ","-1","0","-10","[]","0","2","","","1051","40","1","3","lose","go","0","0"
"pit-trial","109","859693","0.0-45.0","battery-v0.2","","""event"",""trial"",""time""
""fullscreenenter"",""1"",""3538""
","
","
","""event"",""trial"",""time""
""fullscreenenter"",""1"",""3538""
","
","","","700.0000000001164","","","24","1051","541","g","elianto","#3366ff99"," "," ","1","+10","[1550.0000000001164]","1","2","","","1051","41","3","1","win","go","0","0"
"pit-trial","110","864553","0.0-46.0","battery-v0.2","","""event"",""trial"",""time""
""fullscreenenter"",""1"",""3538""
","
","
","""event"",""trial"",""time""
""fullscreenenter"",""1"",""3538""
","
","","","-1","","","24","1051","541","u","elianto","#3366ff99","-1","-1","1","+10","[]","0","2","","","1051","42","0","2","win","no-go","0","0"
"pit-trial","111","868211","0.0-47.0","battery-v0.2","","""event"",""trial"",""time""
""fullscreenenter"",""1"",""3538""
","
","
","""event"",""trial"",""time""
""fullscreenenter"",""1"",""3538""
","
","","","798","","","24","1051","541","a","elianto","#f73b6a7A","-1"," ","0","-10","[1649]","1","2","","","1051","43","2","4","lose","no-go","0","0"
"pit-trial","112","871720","0.0-48.0","battery-v0.2","","""event"",""trial"",""time""
""fullscreenenter"",""1"",""3538""
","
","
","""event"",""trial"",""time""
""fullscreenenter"",""1"",""3538""
","
","","","650","","","24","1051","541","l","elianto","#f73b6a7A"," "," ","1","0","[1501]","1","2","","","1051","44","1","3","lose","go","0","0"
"pit-trial","113","875181","0.0-49.0","battery-v0.2","","""event"",""trial"",""time""
""fullscreenenter"",""1"",""3538""
","
","
","""event"",""trial"",""time""
""fullscreenenter"",""1"",""3538""
","
","","","601","","","24","1051","541","g","elianto","#3366ff99"," "," ","1","+10","[1452]","1","2","","","1051","45","3","1","win","go","0","0"
"pit-trial","114","880047","0.0-50.0","battery-v0.2","","""event"",""trial"",""time""
""fullscreenenter"",""1"",""3538""
","
","
","""event"",""trial"",""time""
""fullscreenenter"",""1"",""3538""
","
","","","-1","","","24","1051","541","a","elianto","#f73b6a7A","-1","-1","1","0","[]","0","2","","","1051","46","2","4","lose","no-go","0","0"
"pit-trial","115","883942","0.0-51.0","battery-v0.2","","""event"",""trial"",""time""
""fullscreenenter"",""1"",""3538""
","
","
","""event"",""trial"",""time""
""fullscreenenter"",""1"",""3538""
","
","","","1026.9999999998836","","","24","1051","541","l","elianto","#f73b6a7A"," "," ","1","0","[1877]","1","2","","","1051","47","1","3","lose","go","0","0"
"pit-trial","116","888809","0.0-52.0","battery-v0.2","","""event"",""trial"",""time""
""fullscreenenter"",""1"",""3538""
","
","
","""event"",""trial"",""time""
""fullscreenenter"",""1"",""3538""
","
","","","-1","","","24","1051","541","u","elianto","#3366ff99","-1","-1","1","+10","[]","0","2","","","1051","48","0","2","win","no-go","0","0"
"pit-trial","117","892468","0.0-53.0","battery-v0.2","","""event"",""trial"",""time""
""fullscreenenter"",""1"",""3538""
","
","
","""event"",""trial"",""time""
""fullscreenenter"",""1"",""3538""
","
","","","794","","","24","1051","541","l","elianto","#f73b6a7A"," "," ","1","-10","[1645]","1","2","","","1051","49","1","3","lose","go","1","0"
"pit-trial","118","895924","0.0-54.0","battery-v0.2","","""event"",""trial"",""time""
""fullscreenenter"",""1"",""3538""
","
","
","""event"",""trial"",""time""
""fullscreenenter"",""1"",""3538""
","
","","","593","","","24","1051","541","g","elianto","#3366ff99"," "," ","1","+10","[1443]","1","2","","","1051","50","3","1","win","go","0","0"
"pit-trial","119","900786","0.0-55.0","battery-v0.2","","""event"",""trial"",""time""
""fullscreenenter"",""1"",""3538""
","
","
","""event"",""trial"",""time""
""fullscreenenter"",""1"",""3538""
","
","","","-1","","","24","1051","541","u","elianto","#3366ff99","-1","-1","1","0","[]","0","2","","","1051","51","0","2","win","no-go","1","0"
"pit-trial","120","905651","0.0-56.0","battery-v0.2","","""event"",""trial"",""time""
""fullscreenenter"",""1"",""3538""
","
","
","""event"",""trial"",""time""
""fullscreenenter"",""1"",""3538""
","
","","","-1","","","24","1051","541","a","elianto","#f73b6a7A","-1","-1","1","-10","[]","0","2","","","1051","52","2","4","lose","no-go","1","0"
"pit-trial","121","910513","0.0-57.0","battery-v0.2","","""event"",""trial"",""time""
""fullscreenenter"",""1"",""3538""
","
","
","""event"",""trial"",""time""
""fullscreenenter"",""1"",""3538""
","
","","","-1","","","24","1051","541","a","elianto","#f73b6a7A","-1","-1","1","0","[]","0","2","","","1051","53","2","4","lose","no-go","0","0"
"pit-trial","122","915375","0.0-58.0","battery-v0.2","","""event"",""trial"",""time""
""fullscreenenter"",""1"",""3538""
","
","
","""event"",""trial"",""time""
""fullscreenenter"",""1"",""3538""
","
","","","-1","","","24","1051","541","s","elianto","#f73b6a7A","-1","-1","1","0","[2853]","1","2","","","1051","54","5","4","lose","no-go","0","0"
"pit-trial","123","919307","0.0-59.0","battery-v0.2","","""event"",""trial"",""time""
""fullscreenenter"",""1"",""3538""
","
","
","""event"",""trial"",""time""
""fullscreenenter"",""1"",""3538""
","
","","","1071.0000000001164","","","24","1051","541","l","elianto","#f73b6a7A"," "," ","1","0","[1922.0000000001164]","1","2","","","1051","55","1","3","lose","go","0","0"
"pit-trial","124","924167","0.0-60.0","battery-v0.2","","""event"",""trial"",""time""
""fullscreenenter"",""1"",""3538""
","
","
","""event"",""trial"",""time""
""fullscreenenter"",""1"",""3538""
","
","","","-1","","","24","1051","541","p","elianto","#f73b6a7A"," ","-1","0","-10","[]","0","2","","","1051","56","4","3","lose","go","0","0"
"pit-trial","125","929028","0.0-61.0","battery-v0.2","","""event"",""trial"",""time""
""fullscreenenter"",""1"",""3538""
","
","
","""event"",""trial"",""time""
""fullscreenenter"",""1"",""3538""
","
","","","-1","","","24","1051","541","a","elianto","#f73b6a7A","-1","-1","1","-10","[]","0","2","","","1051","57","2","4","lose","no-go","1","0"
"pit-trial","126","932683","0.0-62.0","battery-v0.2","","""event"",""trial"",""time""
""fullscreenenter"",""1"",""3538""
","
","
","""event"",""trial"",""time""
""fullscreenenter"",""1"",""3538""
","
","","","796","","","24","1051","541","l","elianto","#f73b6a7A"," "," ","1","0","[1646]","1","2","","","1051","58","1","3","lose","go","0","0"
"pit-trial","127","936455","0.0-63.0","battery-v0.2","","""event"",""trial"",""time""
""fullscreenenter"",""1"",""3538""
","
","
","""event"",""trial"",""time""
""fullscreenenter"",""1"",""3538""
","
","","","912","","","24","1051","541","p","elianto","#f73b6a7A"," "," ","1","-10","[1763]","1","2","","","1051","59","4","3","lose","go","1","0"
"pit-trial","128","939954","0.0-64.0","battery-v0.2","","""event"",""trial"",""time""
""fullscreenenter"",""1"",""3538""
","
","
","""event"",""trial"",""time""
""fullscreenenter"",""1"",""3538""
","
","","","640","","","24","1051","541","s","elianto","#f73b6a7A","-1"," ","0","-10","[1489.9999999998836]","1","2","","","1051","60","5","4","lose","no-go","0","0"
"pit-trial","129","944813","0.0-65.0","battery-v0.2","","""event"",""trial"",""time""
""fullscreenenter"",""1"",""3538""
","
","
","""event"",""trial"",""time""
""fullscreenenter"",""1"",""3538""
","
","","","-1","","","24","1051","541","p","elianto","#f73b6a7A"," ","-1","0","-10","[]","0","2","","","1051","61","4","3","lose","go","0","0"
"pit-trial","130","949675","0.0-66.0","battery-v0.2","","""event"",""trial"",""time""
""fullscreenenter"",""1"",""3538""
","
","
","""event"",""trial"",""time""
""fullscreenenter"",""1"",""3538""
","
","","","-1","","","24","1051","541","a","elianto","#f73b6a7A","-1","-1","1","0","[]","0","2","","","1051","62","2","4","lose","no-go","0","0"
"pit-trial","131","953483","0.0-67.0","battery-v0.2","","""event"",""trial"",""time""
""fullscreenenter"",""1"",""3538""
","
","
","""event"",""trial"",""time""
""fullscreenenter"",""1"",""3538""
","
","","","945.9999999998836","","","24","1051","541","w","elianto","#3366ff99","-1"," ","0","0","[1796.9999999998836]","1","2","","","1051","63","6","2","win","no-go","0","0"
"pit-trial","132","957619","0.0-68.0","battery-v0.2","","""event"",""trial"",""time""
""fullscreenenter"",""1"",""3538""
","
","
","""event"",""trial"",""time""
""fullscreenenter"",""1"",""3538""
","
","","","1277.0000000001164","","","24","1051","541","s","elianto","#f73b6a7A","-1"," ","0","0","[2128.0000000001164]","1","2","","","1051","64","5","4","lose","no-go","1","0"
"pit-trial","133","962479","0.0-69.0","battery-v0.2","","""event"",""trial"",""time""
""fullscreenenter"",""1"",""3538""
","
","
","""event"",""trial"",""time""
""fullscreenenter"",""1"",""3538""
","
","","","-1","","","24","1051","541","w","elianto","#3366ff99","-1","-1","1","+10","[]","0","2","","","1051","65","6","2","win","no-go","0","0"
"pit-trial","134","967339","0.0-70.0","battery-v0.2","","""event"",""trial"",""time""
""fullscreenenter"",""1"",""3538""
","
","
","""event"",""trial"",""time""
""fullscreenenter"",""1"",""3538""
","
","","","-1","","","24","1051","541","a","elianto","#f73b6a7A","-1","-1","1","-10","[]","0","2","","","1051","66","2","4","lose","no-go","1","0"
"pit-trial","135","972199","0.0-71.0","battery-v0.2","","""event"",""trial"",""time""
""fullscreenenter"",""1"",""3538""
","
","
","""event"",""trial"",""time""
""fullscreenenter"",""1"",""3538""
","
","","","-1","","","24","1051","541","s","elianto","#f73b6a7A","-1","-1","1","0","[2879]","1","2","","","1051","67","5","4","lose","no-go","0","0"
"pit-trial","136","977060","0.0-72.0","battery-v0.2","","""event"",""trial"",""time""
""fullscreenenter"",""1"",""3538""
","
","
","""event"",""trial"",""time""
""fullscreenenter"",""1"",""3538""
","
","","","-1","","","24","1051","541","p","elianto","#f73b6a7A"," ","-1","0","-10","[]","0","2","","","1051","68","4","3","lose","go","0","0"
"pit-trial","137","981535","0.0-73.0","battery-v0.2","","""event"",""trial"",""time""
""fullscreenenter"",""1"",""3538""
","
","
","""event"",""trial"",""time""
""fullscreenenter"",""1"",""3538""
","
","","","1614","","","24","1051","541","p","elianto","#f73b6a7A"," "," ","1","0","[2466]","1","2","","","1051","69","4","3","lose","go","0","0"
"pit-trial","138","985690","0.0-74.0","battery-v0.2","","""event"",""trial"",""time""
""fullscreenenter"",""1"",""3538""
","
","
","""event"",""trial"",""time""
""fullscreenenter"",""1"",""3538""
","
","","","1295","","","24","1051","541","s","elianto","#f73b6a7A","-1"," ","0","-10","[2145]","1","2","","","1051","70","5","4","lose","no-go","0","0"
"pit-trial","139","990045","0.0-75.0","battery-v0.2","","""event"",""trial"",""time""
""fullscreenenter"",""1"",""3538""
","
","
","""event"",""trial"",""time""
""fullscreenenter"",""1"",""3538""
","
","","","1495.9999999998836","","","24","1051","541","e","elianto","#3366ff99"," "," ","1","+10","[2346]","1","2","","","1051","71","7","1","win","go","0","0"
"pit-trial","140","994905","0.0-76.0","battery-v0.2","","""event"",""trial"",""time""
""fullscreenenter"",""1"",""3538""
","
","
","""event"",""trial"",""time""
""fullscreenenter"",""1"",""3538""
","
","","","-1","","","24","1051","541","w","elianto","#3366ff99","-1","-1","1","+10","[]","0","2","","","1051","72","6","2","win","no-go","0","0"
"pit-trial","141","998865","0.0-77.0","battery-v0.2","","""event"",""trial"",""time""
""fullscreenenter"",""1"",""3538""
","
","
","""event"",""trial"",""time""
""fullscreenenter"",""1"",""3538""
","
","","","1099","","","24","1051","541","e","elianto","#3366ff99"," "," ","1","+10","[1949]","1","2","","","1051","73","7","1","win","go","0","0"
"pit-trial","142","1003725","0.0-78.0","battery-v0.2","","""event"",""trial"",""time""
""fullscreenenter"",""1"",""3538""
","
","
","""event"",""trial"",""time""
""fullscreenenter"",""1"",""3538""
","
","","","-1","","","24","1051","541","s","elianto","#f73b6a7A","-1","-1","1","0","[]","0","2","","","1051","74","5","4","lose","no-go","0","0"
"pit-trial","143","1008585","0.0-79.0","battery-v0.2","","""event"",""trial"",""time""
""fullscreenenter"",""1"",""3538""
","
","
","""event"",""trial"",""time""
""fullscreenenter"",""1"",""3538""
","
","","","-1","","","24","1051","541","p","elianto","#f73b6a7A"," ","-1","0","0","[]","0","2","","","1051","75","4","3","lose","go","1","0"
"pit-trial","144","1013445","0.0-80.0","battery-v0.2","","""event"",""trial"",""time""
""fullscreenenter"",""1"",""3538""
","
","
","""event"",""trial"",""time""
""fullscreenenter"",""1"",""3538""
","
","","","-1","","","24","1051","541","w","elianto","#3366ff99","-1","-1","1","+10","[]","0","2","","","1051","76","6","2","win","no-go","0","0"
"pit-trial","145","1018307","0.0-81.0","battery-v0.2","","""event"",""trial"",""time""
""fullscreenenter"",""1"",""3538""
","
","
","""event"",""trial"",""time""
""fullscreenenter"",""1"",""3538""
","
","","","-1","","","24","1051","541","p","elianto","#f73b6a7A"," ","-1","0","0","[]","0","2","","","1051","77","4","3","lose","go","1","0"
"pit-trial","146","1022227","0.0-82.0","battery-v0.2","","""event"",""trial"",""time""
""fullscreenenter"",""1"",""3538""
","
","
","""event"",""trial"",""time""
""fullscreenenter"",""1"",""3538""
","
","","","1063","","","24","1051","541","e","elianto","#3366ff99"," "," ","1","+10","[1913.0000000001164]","1","2","","","1051","78","7","1","win","go","0","0"
"pit-trial","147","1027088","0.0-83.0","battery-v0.2","","""event"",""trial"",""time""
""fullscreenenter"",""1"",""3538""
","
","
","""event"",""trial"",""time""
""fullscreenenter"",""1"",""3538""
","
","","","-1","","","24","1051","541","w","elianto","#3366ff99","-1","-1","1","+10","[]","0","2","","","1051","79","6","2","win","no-go","0","0"
"pit-trial","148","1031264","0.0-84.0","battery-v0.2","","""event"",""trial"",""time""
""fullscreenenter"",""1"",""3538""
","
","
","""event"",""trial"",""time""
""fullscreenenter"",""1"",""3538""
","
","","","1317","","","24","1051","541","s","elianto","#f73b6a7A","-1"," ","0","-10","[2167.0000000001164]","1","2","","","1051","80","5","4","lose","no-go","0","0"
"pit-trial","149","1036125","0.0-85.0","battery-v0.2","","""event"",""trial"",""time""
""fullscreenenter"",""1"",""3538""
","
","
","""event"",""trial"",""time""
""fullscreenenter"",""1"",""3538""
","
","","","-1","","","24","1051","541","p","elianto","#f73b6a7A"," ","-1","0","-10","[]","0","2","","","1051","81","4","3","lose","go","0","0"
"pit-trial","150","1040987","0.0-86.0","battery-v0.2","","""event"",""trial"",""time""
""fullscreenenter"",""1"",""3538""
","
","
","""event"",""trial"",""time""
""fullscreenenter"",""1"",""3538""
","
","","","-1","","","24","1051","541","w","elianto","#3366ff99","-1","-1","1","0","[]","0","2","","","1051","82","6","2","win","no-go","1","0"
"pit-trial","151","1045847","0.0-87.0","battery-v0.2","","""event"",""trial"",""time""
""fullscreenenter"",""1"",""3538""
","
","
","""event"",""trial"",""time""
""fullscreenenter"",""1"",""3538""
","
","","","-1","","","24","1051","541","s","elianto","#f73b6a7A","-1","-1","1","-10","[]","0","2","","","1051","83","5","4","lose","no-go","1","0"
"pit-trial","152","1049576","0.0-88.0","battery-v0.2","","""event"",""trial"",""time""
""fullscreenenter"",""1"",""3538""
","
","
","""event"",""trial"",""time""
""fullscreenenter"",""1"",""3538""
","
","","","866","","","24","1051","541","e","elianto","#3366ff99"," "," ","1","+10","[1718]","1","2","","","1051","84","7","1","win","go","0","0"
"pit-trial","153","1054436","0.0-89.0","battery-v0.2","","""event"",""trial"",""time""
""fullscreenenter"",""1"",""3538""
","
","
","""event"",""trial"",""time""
""fullscreenenter"",""1"",""3538""
","
","","","-1","","","24","1051","541","w","elianto","#3366ff99","-1","-1","1","+10","[]","0","2","","","1051","85","6","2","win","no-go","0","0"
"pit-trial","154","1057988","0.0-90.0","battery-v0.2","","""event"",""trial"",""time""
""fullscreenenter"",""1"",""3538""
","
","
","""event"",""trial"",""time""
""fullscreenenter"",""1"",""3538""
","
","","","694","","","24","1051","541","e","elianto","#3366ff99"," "," ","1","+10","[1544]","1","2","","","1051","86","7","1","win","go","0","0"
"pit-trial","155","1062849","0.0-91.0","battery-v0.2","","""event"",""trial"",""time""
""fullscreenenter"",""1"",""3538""
","
","
","""event"",""trial"",""time""
""fullscreenenter"",""1"",""3538""
","
","","","-1","","","24","1051","541","s","elianto","#f73b6a7A","-1","-1","1","0","[]","0","2","","","1051","87","5","4","lose","no-go","0","0"
"pit-trial","156","1067711","0.0-92.0","battery-v0.2","","""event"",""trial"",""time""
""fullscreenenter"",""1"",""3538""
","
","
","""event"",""trial"",""time""
""fullscreenenter"",""1"",""3538""
","
","","","-1","","","24","1051","541","p","elianto","#f73b6a7A"," ","-1","0","-10","[]","0","2","","","1051","88","4","3","lose","go","0","0"
"pit-trial","157","1071636","0.0-93.0","battery-v0.2","","""event"",""trial"",""time""
""fullscreenenter"",""1"",""3538""
","
","
","""event"",""trial"",""time""
""fullscreenenter"",""1"",""3538""
","
","","","1065","","","24","1051","541","e","elianto","#3366ff99"," "," ","1","+10","[1916]","1","2","","","1051","89","7","1","win","go","0","0"
"pit-trial","158","1075252","0.0-94.0","battery-v0.2","","""event"",""trial"",""time""
""fullscreenenter"",""1"",""3538""
","
","
","""event"",""trial"",""time""
""fullscreenenter"",""1"",""3538""
","
","","","754","","","24","1051","541","p","elianto","#f73b6a7A"," "," ","1","0","[1607]","1","2","","","1051","90","4","3","lose","go","0","0"
"pit-trial","159","1080112","0.0-95.0","battery-v0.2","","""event"",""trial"",""time""
""fullscreenenter"",""1"",""3538""
","
","
","""event"",""trial"",""time""
""fullscreenenter"",""1"",""3538""
","
","","","-1","","","24","1051","541","s","elianto","#f73b6a7A","-1","-1","1","-10","[]","0","2","","","1051","91","5","4","lose","no-go","1","0"
"pit-trial","160","1084973","0.0-96.0","battery-v0.2","","""event"",""trial"",""time""
""fullscreenenter"",""1"",""3538""
","
","
","""event"",""trial"",""time""
""fullscreenenter"",""1"",""3538""
","
","","","-1","","","24","1051","541","w","elianto","#3366ff99","-1","-1","1","+10","[]","0","2","","","1051","92","6","2","win","no-go","0","0"
"pit-trial","161","1088704","0.0-97.0","battery-v0.2","","""event"",""trial"",""time""
""fullscreenenter"",""1"",""3538""
","
","
","""event"",""trial"",""time""
""fullscreenenter"",""1"",""3538""
","
","","","873","","","24","1051","541","e","elianto","#3366ff99"," "," ","1","+10","[1723]","1","2","","","1051","93","7","1","win","go","0","0"
"pit-trial","162","1092213","0.0-98.0","battery-v0.2","","""event"",""trial"",""time""
""fullscreenenter"",""1"",""3538""
","
","
","""event"",""trial"",""time""
""fullscreenenter"",""1"",""3538""
","
","","","649","","","24","1051","541","p","elianto","#f73b6a7A"," "," ","1","0","[1501]","1","2","","","1051","94","4","3","lose","go","0","0"
"pit-trial","163","1097073","0.0-99.0","battery-v0.2","","""event"",""trial"",""time""
""fullscreenenter"",""1"",""3538""
","
","
","""event"",""trial"",""time""
""fullscreenenter"",""1"",""3538""
","
","","","-1","","","24","1051","541","k","elianto","#3366ff99"," ","-1","0","+10","[]","0","2","","","1051","95","8","1","win","go","1","0"
"pit-trial","164","1101931","0.0-100.0","battery-v0.2","","""event"",""trial"",""time""
""fullscreenenter"",""1"",""3538""
","
","
","""event"",""trial"",""time""
""fullscreenenter"",""1"",""3538""
","
","","","-1","","","24","1051","541","w","elianto","#3366ff99","-1","-1","1","+10","[]","0","2","","","1051","96","6","2","win","no-go","0","0"
"pit-trial","165","1105563","0.0-101.0","battery-v0.2","","""event"",""trial"",""time""
""fullscreenenter"",""1"",""3538""
","
","
","""event"",""trial"",""time""
""fullscreenenter"",""1"",""3538""
","
","","","772","","","24","1051","541","e","elianto","#3366ff99"," "," ","1","+10","[1623]","1","2","","","1051","97","7","1","win","go","0","0"
"pit-trial","166","1110422","0.0-102.0","battery-v0.2","","""event"",""trial"",""time""
""fullscreenenter"",""1"",""3538""
","
","
","""event"",""trial"",""time""
""fullscreenenter"",""1"",""3538""
","
","","","-1","","","24","1051","541","k","elianto","#3366ff99"," ","-1","0","0","[]","0","2","","","1051","98","8","1","win","go","0","0"
"pit-trial","167","1114400","0.0-103.0","battery-v0.2","","""event"",""trial"",""time""
""fullscreenenter"",""1"",""3538""
","
","
","""event"",""trial"",""time""
""fullscreenenter"",""1"",""3538""
","
","","","1116.0000000002328","","","24","1051","541","p","elianto","#f73b6a7A"," "," ","1","0","[1969.0000000002328]","1","2","","","1051","99","4","3","lose","go","0","0"
"pit-trial","168","1119261","0.0-104.0","battery-v0.2","","""event"",""trial"",""time""
""fullscreenenter"",""1"",""3538""
","
","
","""event"",""trial"",""time""
""fullscreenenter"",""1"",""3538""
","
","","","-1","","","24","1051","541","w","elianto","#3366ff99","-1","-1","1","+10","[]","0","2","","","1051","100","6","2","win","no-go","0","0"
"pit-trial","169","1123250","0.0-105.0","battery-v0.2","","""event"",""trial"",""time""
""fullscreenenter"",""1"",""3538""
","
","
","""event"",""trial"",""time""
""fullscreenenter"",""1"",""3538""
","
","","","1130","","","24","1051","541","d","elianto","#3366ff99","-1"," ","0","0","[1981]","1","2","","","1051","101","9","2","win","no-go","0","0"
"pit-trial","170","1126831","0.0-106.0","battery-v0.2","","""event"",""trial"",""time""
""fullscreenenter"",""1"",""3538""
","
","
","""event"",""trial"",""time""
""fullscreenenter"",""1"",""3538""
","
","","","722","","","24","1051","541","k","elianto","#3366ff99"," "," ","1","+10","[1572]","1","2","","","1051","102","8","1","win","go","0","0"
"pit-trial","171","1131690","0.0-107.0","battery-v0.2","","""event"",""trial"",""time""
""fullscreenenter"",""1"",""3538""
","
","
","""event"",""trial"",""time""
""fullscreenenter"",""1"",""3538""
","
","","","-1","","","24","1051","541","w","elianto","#3366ff99","-1","-1","1","0","[]","0","2","","","1051","103","6","2","win","no-go","1","0"
"pit-trial","172","1135186","0.0-108.0","battery-v0.2","","""event"",""trial"",""time""
""fullscreenenter"",""1"",""3538""
","
","
","""event"",""trial"",""time""
""fullscreenenter"",""1"",""3538""
","
","","","634","","","24","1051","541","e","elianto","#3366ff99"," "," ","1","+10","[1485]","1","2","","","1051","104","7","1","win","go","0","0"
"pit-trial","173","1138694","0.0-109.0","battery-v0.2","","""event"",""trial"",""time""
""fullscreenenter"",""1"",""3538""
","
","
","""event"",""trial"",""time""
""fullscreenenter"",""1"",""3538""
","
","","","648","","","24","1051","541","e","elianto","#3366ff99"," "," ","1","+10","[1499]","1","2","","","1051","105","7","1","win","go","0","0"
"pit-trial","174","1143555","0.0-110.0","battery-v0.2","","""event"",""trial"",""time""
""fullscreenenter"",""1"",""3538""
","
","
","""event"",""trial"",""time""
""fullscreenenter"",""1"",""3538""
","
","","","-1","","","24","1051","541","d","elianto","#3366ff99","-1","-1","1","+10","[]","0","2","","","1051","106","9","2","win","no-go","0","0"
"pit-trial","175","1148416","0.0-111.0","battery-v0.2","","""event"",""trial"",""time""
""fullscreenenter"",""1"",""3538""
","
","
","""event"",""trial"",""time""
""fullscreenenter"",""1"",""3538""
","
","","","-1","","","24","1051","541","w","elianto","#3366ff99","-1","-1","1","+10","[]","0","2","","","1051","107","6","2","win","no-go","0","0"
"pit-trial","176","1152105","0.0-112.0","battery-v0.2","","""event"",""trial"",""time""
""fullscreenenter"",""1"",""3538""
","
","
","""event"",""trial"",""time""
""fullscreenenter"",""1"",""3538""
","
","","","830","","","24","1051","541","k","elianto","#3366ff99"," "," ","1","0","[1681]","1","2","","","1051","108","8","1","win","go","1","0"
"pit-trial","177","1156965","0.0-113.0","battery-v0.2","","""event"",""trial"",""time""
""fullscreenenter"",""1"",""3538""
","
","
","""event"",""trial"",""time""
""fullscreenenter"",""1"",""3538""
","
","","","-1","","","24","1051","541","k","elianto","#3366ff99"," ","-1","0","0","[]","0","2","","","1051","109","8","1","win","go","0","0"
"pit-trial","178","1161242","0.0-114.0","battery-v0.2","","""event"",""trial"",""time""
""fullscreenenter"",""1"",""3538""
","
","
","""event"",""trial"",""time""
""fullscreenenter"",""1"",""3538""
","
","","","1420","","","24","1051","541","d","elianto","#3366ff99","-1"," ","0","0","[2270]","1","2","","","1051","110","9","2","win","no-go","0","0"
"pit-trial","179","1166099","0.0-115.0","battery-v0.2","","""event"",""trial"",""time""
""fullscreenenter"",""1"",""3538""
","
","
","""event"",""trial"",""time""
""fullscreenenter"",""1"",""3538""
","
","","","-1","","","24","1051","541","j","elianto","#f73b6a7A"," ","-1","0","-10","[]","0","2","","","1051","111","10","3","lose","go","0","0"
"pit-trial","180","1170233","0.0-116.0","battery-v0.2","","""event"",""trial"",""time""
""fullscreenenter"",""1"",""3538""
","
","
","""event"",""trial"",""time""
""fullscreenenter"",""1"",""3538""
","
","","","1275","","","24","1051","541","v","elianto","#f73b6a7A","-1"," ","0","-10","[2125]","1","2","","","1051","112","11","4","lose","no-go","0","0"
"pit-trial","181","1173602","0.0-117.0","battery-v0.2","","""event"",""trial"",""time""
""fullscreenenter"",""1"",""3538""
","
","
","""event"",""trial"",""time""
""fullscreenenter"",""1"",""3538""
","
","","","507.99999999976717","","","24","1051","541","j","elianto","#f73b6a7A"," "," ","1","0","[1359]","1","2","","","1051","113","10","3","lose","go","0","0"
"pit-trial","182","1178463","0.0-118.0","battery-v0.2","","""event"",""trial"",""time""
""fullscreenenter"",""1"",""3538""
","
","
","""event"",""trial"",""time""
""fullscreenenter"",""1"",""3538""
","
","","","-1","","","24","1051","541","k","elianto","#3366ff99"," ","-1","0","0","[]","0","2","","","1051","114","8","1","win","go","0","0"
"pit-trial","183","1183324","0.0-119.0","battery-v0.2","","""event"",""trial"",""time""
""fullscreenenter"",""1"",""3538""
","
","
","""event"",""trial"",""time""
""fullscreenenter"",""1"",""3538""
","
","","","-1","","","24","1051","541","d","elianto","#3366ff99","-1","-1","1","+10","[]","0","2","","","1051","115","9","2","win","no-go","0","0"
"pit-trial","184","1188182","0.0-120.0","battery-v0.2","","""event"",""trial"",""time""
""fullscreenenter"",""1"",""3538""
","
","
","""event"",""trial"",""time""
""fullscreenenter"",""1"",""3538""
","
","","","-1","","","24","1051","541","v","elianto","#f73b6a7A","-1","-1","1","0","[]","0","2","","","1051","116","11","4","lose","no-go","0","0"
"pit-trial","185","1192021","0.0-121.0","battery-v0.2","","""event"",""trial"",""time""
""fullscreenenter"",""1"",""3538""
","
","
","""event"",""trial"",""time""
""fullscreenenter"",""1"",""3538""
","
","","","980","","","24","1051","541","k","elianto","#3366ff99"," "," ","1","+10","[1829.9999999997672]","1","2","","","1051","117","8","1","win","go","0","0"
"pit-trial","186","1196454","0.0-122.0","battery-v0.2","","""event"",""trial"",""time""
""fullscreenenter"",""1"",""3538""
","
","
","""event"",""trial"",""time""
""fullscreenenter"",""1"",""3538""
","
","","","1575","","","24","1051","541","j","elianto","#f73b6a7A"," "," ","1","-10","[2426]","1","2","","","1051","118","10","3","lose","go","1","0"
"pit-trial","187","1200244","0.0-123.0","battery-v0.2","","""event"",""trial"",""time""
""fullscreenenter"",""1"",""3538""
","
","
","""event"",""trial"",""time""
""fullscreenenter"",""1"",""3538""
","
","","","932","","","24","1051","541","v","elianto","#f73b6a7A","-1"," ","0","-10","[1782]","1","2","","","1051","119","11","4","lose","no-go","0","0"
"pit-trial","188","1205102","0.0-124.0","battery-v0.2","","""event"",""trial"",""time""
""fullscreenenter"",""1"",""3538""
","
","
","""event"",""trial"",""time""
""fullscreenenter"",""1"",""3538""
","
","","","-1","","","24","1051","541","d","elianto","#3366ff99","-1","-1","1","+10","[]","0","2","","","1051","120","9","2","win","no-go","0","0"
"pit-trial","189","1209962","0.0-125.0","battery-v0.2","","""event"",""trial"",""time""
""fullscreenenter"",""1"",""3538""
","
","
","""event"",""trial"",""time""
""fullscreenenter"",""1"",""3538""
","
","","","-1","","","24","1051","541","v","elianto","#f73b6a7A","-1","-1","1","0","[]","0","2","","","1051","121","11","4","lose","no-go","0","0"
"pit-trial","190","1213541","0.0-126.0","battery-v0.2","","""event"",""trial"",""time""
""fullscreenenter"",""1"",""3538""
","
","
","""event"",""trial"",""time""
""fullscreenenter"",""1"",""3538""
","
","","","718","","","24","1051","541","k","elianto","#3366ff99"," "," ","1","+10","[1567]","1","2","","","1051","122","8","1","win","go","0","0"
"pit-trial","191","1218401","0.0-127.0","battery-v0.2","","""event"",""trial"",""time""
""fullscreenenter"",""1"",""3538""
","
","
","""event"",""trial"",""time""
""fullscreenenter"",""1"",""3538""
","
","","","-1","","","24","1051","541","j","elianto","#f73b6a7A"," ","-1","0","-10","[]","0","2","","","1051","123","10","3","lose","go","0","0"
"pit-trial","192","1223262","0.0-128.0","battery-v0.2","","""event"",""trial"",""time""
""fullscreenenter"",""1"",""3538""
","
","
","""event"",""trial"",""time""
""fullscreenenter"",""1"",""3538""
","
","","","-1","","","24","1051","541","d","elianto","#3366ff99","-1","-1","1","+10","[]","0","2","","","1051","124","9","2","win","no-go","0","0"
"pit-trial","193","1228121","0.0-129.0","battery-v0.2","","""event"",""trial"",""time""
""fullscreenenter"",""1"",""3538""
","
","
","""event"",""trial"",""time""
""fullscreenenter"",""1"",""3538""
","
","","","-1","","","24","1051","541","d","elianto","#3366ff99","-1","-1","1","0","[]","0","2","","","1051","125","9","2","win","no-go","1","0"
"pit-trial","194","1232502","0.0-130.0","battery-v0.2","","""event"",""trial"",""time""
""fullscreenenter"",""1"",""3538""
","
","
","""event"",""trial"",""time""
""fullscreenenter"",""1"",""3538""
","
","","","1522","","","24","1051","541","j","elianto","#f73b6a7A"," "," ","1","0","[2372]","1","2","","","1051","126","10","3","lose","go","0","0"
"pit-trial","195","1235912","0.0-131.0","battery-v0.2","","""event"",""trial"",""time""
""fullscreenenter"",""1"",""3538""
","
","
","""event"",""trial"",""time""
""fullscreenenter"",""1"",""3538""
","
","","","549","","","24","1051","541","k","elianto","#3366ff99"," "," ","1","+10","[1400]","1","2","","","1051","127","8","1","win","go","0","0"
"pit-trial","196","1240774","0.0-132.0","battery-v0.2","","""event"",""trial"",""time""
""fullscreenenter"",""1"",""3538""
","
","
","""event"",""trial"",""time""
""fullscreenenter"",""1"",""3538""
","
","","","-1","","","24","1051","541","v","elianto","#f73b6a7A","-1","-1","1","-10","[]","0","2","","","1051","128","11","4","lose","no-go","1","0"
"pit-trial","197","1245633","0.0-133.0","battery-v0.2","","""event"",""trial"",""time""
""fullscreenenter"",""1"",""3538""
","
","
","""event"",""trial"",""time""
""fullscreenenter"",""1"",""3538""
","
","","","-1","","","24","1051","541","d","elianto","#3366ff99","-1","-1","1","+10","[]","0","2","","","1051","129","9","2","win","no-go","0","0"
"pit-trial","198","1249103","0.0-134.0","battery-v0.2","","""event"",""trial"",""time""
""fullscreenenter"",""1"",""3538""
","
","
","""event"",""trial"",""time""
""fullscreenenter"",""1"",""3538""
","
","","","609","","","24","1051","541","k","elianto","#3366ff99"," "," ","1","0","[1461]","1","2","","","1051","130","8","1","win","go","1","0"
"pit-trial","199","1253964","0.0-135.0","battery-v0.2","","""event"",""trial"",""time""
""fullscreenenter"",""1"",""3538""
","
","
","""event"",""trial"",""time""
""fullscreenenter"",""1"",""3538""
","
","","","-1","","","24","1051","541","v","elianto","#f73b6a7A","-1","-1","1","0","[]","0","2","","","1051","131","11","4","lose","no-go","0","0"
"pit-trial","200","1258391","0.0-136.0","battery-v0.2","","""event"",""trial"",""time""
""fullscreenenter"",""1"",""3538""
","
","
","""event"",""trial"",""time""
""fullscreenenter"",""1"",""3538""
","
","","","1566","","","24","1051","541","j","elianto","#f73b6a7A"," "," ","1","0","[2417.999999999767]","1","2","","","1051","132","10","3","lose","go","0","0"
"pit-trial","201","1263250","0.0-137.0","battery-v0.2","","""event"",""trial"",""time""
""fullscreenenter"",""1"",""3538""
","
","
","""event"",""trial"",""time""
""fullscreenenter"",""1"",""3538""
","
","","","-1","","","24","1051","541","v","elianto","#f73b6a7A","-1","-1","1","0","[]","0","2","","","1051","133","11","4","lose","no-go","0","0"
"pit-trial","202","1267009","0.0-138.0","battery-v0.2","","""event"",""trial"",""time""
""fullscreenenter"",""1"",""3538""
","
","
","""event"",""trial"",""time""
""fullscreenenter"",""1"",""3538""
","
","","","900","","","24","1051","541","j","elianto","#f73b6a7A"," "," ","1","-10","[1751]","1","2","","","1051","134","10","3","lose","go","1","0"
"pit-trial","203","1270846","0.0-139.0","battery-v0.2","","""event"",""trial"",""time""
""fullscreenenter"",""1"",""3538""
","
","
","""event"",""trial"",""time""
""fullscreenenter"",""1"",""3538""
","
","","","978","","","24","1051","541","d","elianto","#3366ff99","-1"," ","0","0","[1829]","1","2","","","1051","135","9","2","win","no-go","0","0"
"pit-trial","204","1274236","0.0-140.0","battery-v0.2","","""event"",""trial"",""time""
""fullscreenenter"",""1"",""3538""
","
","
","""event"",""trial"",""time""
""fullscreenenter"",""1"",""3538""
","
","","","530","","","24","1051","541","k","elianto","#3366ff99"," "," ","1","+10","[1381]","1","2","","","1051","136","8","1","win","go","0","0"
"pit-trial","205","1277765","0.0-141.0","battery-v0.2","","""event"",""trial"",""time""
""fullscreenenter"",""1"",""3538""
","
","
","""event"",""trial"",""time""
""fullscreenenter"",""1"",""3538""
","
","","","668","","","24","1051","541","k","elianto","#3366ff99"," "," ","1","+10","[1520]","1","2","","","1051","137","8","1","win","go","0","0"
"pit-trial","206","1281786","0.0-142.0","battery-v0.2","","""event"",""trial"",""time""
""fullscreenenter"",""1"",""3538""
","
","
","""event"",""trial"",""time""
""fullscreenenter"",""1"",""3538""
","
","","","1159.9999999997672","","","24","1051","541","j","elianto","#f73b6a7A"," "," ","1","0","[2011]","1","2","","","1051","138","10","3","lose","go","0","0"
"pit-trial","207","1286645","0.0-143.0","battery-v0.2","","""event"",""trial"",""time""
""fullscreenenter"",""1"",""3538""
","
","
","""event"",""trial"",""time""
""fullscreenenter"",""1"",""3538""
","
","","","-1","","","24","1051","541","d","elianto","#3366ff99","-1","-1","1","+10","[]","0","2","","","1051","139","9","2","win","no-go","0","0"
"pit-trial","208","1291504","0.0-144.0","battery-v0.2","","""event"",""trial"",""time""
""fullscreenenter"",""1"",""3538""
","
","
","""event"",""trial"",""time""
""fullscreenenter"",""1"",""3538""
","
","","","-1","","","24","1051","541","v","elianto","#f73b6a7A","-1","-1","1","0","[]","0","2","","","1051","140","11","4","lose","no-go","0","0"
"pit-instructions","209","1316183","0.0-145.0","battery-v0.2","","""event"",""trial"",""time""
""fullscreenenter"",""1"",""3538""
","
","
","""event"",""trial"",""time""
""fullscreenenter"",""1"",""3538""
","
","","[{""page_index"":0,""viewing_time"":16134.000000000233},{""page_index"":1,""viewing_time"":8536.999999999767}]","24673","","","","","","","","","","","","","","","","","","","","","","","","",""
"pit-trial","210","1319969","0.0-146.0","battery-v0.2","","""event"",""trial"",""time""
""fullscreenenter"",""1"",""3538""
","
","
","""event"",""trial"",""time""
""fullscreenenter"",""1"",""3538""
","
","","","926","","","24","1051","541","f","elianto","#3366ff99"," "," ","1","+10","[1776]","1","3","","","1051","141","2","1","win","go","0","0"
"pit-trial","211","1324828","0.0-147.0","battery-v0.2","","""event"",""trial"",""time""
""fullscreenenter"",""1"",""3538""
","
","
","""event"",""trial"",""time""
""fullscreenenter"",""1"",""3538""
","
","","","-1","","","24","1051","541","x","elianto","#f73b6a7A"," ","-1","0","-10","[]","0","3","","","1051","142","3","3","lose","go","0","0"
"pit-trial","212","1329687","0.0-148.0","battery-v0.2","","""event"",""trial"",""time""
""fullscreenenter"",""1"",""3538""
","
","
","""event"",""trial"",""time""
""fullscreenenter"",""1"",""3538""
","
","","","-1","","","24","1051","541","n","elianto","#3366ff99","-1","-1","1","+10","[]","0","3","","","1051","143","1","2","win","no-go","0","0"
"pit-trial","213","1333597","0.0-149.0","battery-v0.2","","""event"",""trial"",""time""
""fullscreenenter"",""1"",""3538""
","
","
","""event"",""trial"",""time""
""fullscreenenter"",""1"",""3538""
","
","","","1045.9999999997672","","","24","1051","541","q","elianto","#3366ff99","-1"," ","0","0","[1897]","1","3","","","1051","144","0","2","win","no-go","0","0"
"pit-trial","214","1338456","0.0-150.0","battery-v0.2","","""event"",""trial"",""time""
""fullscreenenter"",""1"",""3538""
","
","
","""event"",""trial"",""time""
""fullscreenenter"",""1"",""3538""
","
","","","-1","","","24","1051","541","n","elianto","#3366ff99","-1","-1","1","0","[]","0","3","","","1051","145","1","2","win","no-go","1","0"
"pit-trial","215","1343315","0.0-151.0","battery-v0.2","","""event"",""trial"",""time""
""fullscreenenter"",""1"",""3538""
","
","
","""event"",""trial"",""time""
""fullscreenenter"",""1"",""3538""
","
","","","-1","","","24","1051","541","q","elianto","#3366ff99","-1","-1","1","+10","[]","0","3","","","1051","146","0","2","win","no-go","0","0"
"pit-trial","216","1347274","0.0-152.0","battery-v0.2","","""event"",""trial"",""time""
""fullscreenenter"",""1"",""3538""
","
","
","""event"",""trial"",""time""
""fullscreenenter"",""1"",""3538""
","
","","","1099","","","24","1051","541","x","elianto","#f73b6a7A"," "," ","1","-10","[1949]","1","3","","","1051","147","3","3","lose","go","1","0"
"pit-trial","217","1350649","0.0-153.0","battery-v0.2","","""event"",""trial"",""time""
""fullscreenenter"",""1"",""3538""
","
","
","""event"",""trial"",""time""
""fullscreenenter"",""1"",""3538""
","
","","","517","","","24","1051","541","f","elianto","#3366ff99"," "," ","1","+10","[1368]","1","3","","","1051","148","2","1","win","go","0","0"
"pit-trial","218","1355509","0.0-154.0","battery-v0.2","","""event"",""trial"",""time""
""fullscreenenter"",""1"",""3538""
","
","
","""event"",""trial"",""time""
""fullscreenenter"",""1"",""3538""
","
","","","-1","","","24","1051","541","n","elianto","#3366ff99","-1","-1","1","+10","[]","0","3","","","1051","149","1","2","win","no-go","0","0"
"pit-trial","219","1359520","0.0-155.0","battery-v0.2","","""event"",""trial"",""time""
""fullscreenenter"",""1"",""3538""
","
","
","""event"",""trial"",""time""
""fullscreenenter"",""1"",""3538""
","
","","","1149","","","24","1051","541","x","elianto","#f73b6a7A"," "," ","1","0","[2000]","1","3","","","1051","150","3","3","lose","go","0","0"
"pit-trial","220","1364380","0.0-156.0","battery-v0.2","","""event"",""trial"",""time""
""fullscreenenter"",""1"",""3538""
","
","
","""event"",""trial"",""time""
""fullscreenenter"",""1"",""3538""
","
","","","-1","","","24","1051","541","q","elianto","#3366ff99","-1","-1","1","+10","[]","0","3","","","1051","151","0","2","win","no-go","0","0"
"pit-trial","221","1367851","0.0-157.0","battery-v0.2","","""event"",""trial"",""time""
""fullscreenenter"",""1"",""3538""
","
","
","""event"",""trial"",""time""
""fullscreenenter"",""1"",""3538""
","
","","","610.0000000002328","","","24","1051","541","f","elianto","#3366ff99"," "," ","1","+10","[1460.0000000002328]","1","3","","","1051","152","2","1","win","go","0","0"
"pit-trial","222","1371310","0.0-158.0","battery-v0.2","","""event"",""trial"",""time""
""fullscreenenter"",""1"",""3538""
","
","
","""event"",""trial"",""time""
""fullscreenenter"",""1"",""3538""
","
","","","600","","","24","1051","541","x","elianto","#f73b6a7A"," "," ","1","0","[1449.9999999997672]","1","3","","","1051","153","3","3","lose","go","0","0"
"pit-trial","223","1376171","0.0-159.0","battery-v0.2","","""event"",""trial"",""time""
""fullscreenenter"",""1"",""3538""
","
","
","""event"",""trial"",""time""
""fullscreenenter"",""1"",""3538""
","
","","","-1","","","24","1051","541","n","elianto","#3366ff99","-1","-1","1","+10","[]","0","3","","","1051","154","1","2","win","no-go","0","0"
"pit-trial","224","1379661","0.0-160.0","battery-v0.2","","""event"",""trial"",""time""
""fullscreenenter"",""1"",""3538""
","
","
","""event"",""trial"",""time""
""fullscreenenter"",""1"",""3538""
","
","","","630","","","24","1051","541","f","elianto","#3366ff99"," "," ","1","+10","[1481]","1","3","","","1051","155","2","1","win","go","0","0"
"pit-trial","225","1384520","0.0-161.0","battery-v0.2","","""event"",""trial"",""time""
""fullscreenenter"",""1"",""3538""
","
","
","""event"",""trial"",""time""
""fullscreenenter"",""1"",""3538""
","
","","","-1","","","24","1051","541","q","elianto","#3366ff99","-1","-1","1","+10","[]","0","3","","","1051","156","0","2","win","no-go","0","0"
"pit-trial","226","1388177","0.0-162.0","battery-v0.2","","""event"",""trial"",""time""
""fullscreenenter"",""1"",""3538""
","
","
","""event"",""trial"",""time""
""fullscreenenter"",""1"",""3538""
","
","","","795","","","24","1051","541","f","elianto","#3366ff99"," "," ","1","+10","[1646]","1","3","","","1051","157","2","1","win","go","0","0"
"pit-trial","227","1393036","0.0-163.0","battery-v0.2","","""event"",""trial"",""time""
""fullscreenenter"",""1"",""3538""
","
","
","""event"",""trial"",""time""
""fullscreenenter"",""1"",""3538""
","
","","","-1","","","24","1051","541","n","elianto","#3366ff99","-1","-1","1","+10","[]","0","3","","","1051","158","1","2","win","no-go","0","0"
"pit-trial","228","1396754","0.0-164.0","battery-v0.2","","""event"",""trial"",""time""
""fullscreenenter"",""1"",""3538""
","
","
","""event"",""trial"",""time""
""fullscreenenter"",""1"",""3538""
","
","","","859.0000000002328","","","24","1051","541","x","elianto","#f73b6a7A"," "," ","1","0","[1709.0000000002328]","1","3","","","1051","159","3","3","lose","go","0","0"
"pit-trial","229","1401612","0.0-165.0","battery-v0.2","","""event"",""trial"",""time""
""fullscreenenter"",""1"",""3538""
","
","
","""event"",""trial"",""time""
""fullscreenenter"",""1"",""3538""
","
","","","-1","","","24","1051","541","q","elianto","#3366ff99","-1","-1","1","+10","[]","0","3","","","1051","160","0","2","win","no-go","0","0"
"pit-trial","230","1405056","0.0-166.0","battery-v0.2","","""event"",""trial"",""time""
""fullscreenenter"",""1"",""3538""
","
","
","""event"",""trial"",""time""
""fullscreenenter"",""1"",""3538""
","
","","","583","","","24","1051","541","f","elianto","#3366ff99"," "," ","1","+10","[1434.9999999997672]","1","3","","","1051","161","2","1","win","go","0","0"
"pit-trial","231","1409918","0.0-167.0","battery-v0.2","","""event"",""trial"",""time""
""fullscreenenter"",""1"",""3538""
","
","
","""event"",""trial"",""time""
""fullscreenenter"",""1"",""3538""
","
","","","-1","","","24","1051","541","q","elianto","#3366ff99","-1","-1","1","+10","[]","0","3","","","1051","162","0","2","win","no-go","0","0"
"pit-trial","232","1413439","0.0-168.0","battery-v0.2","","""event"",""trial"",""time""
""fullscreenenter"",""1"",""3538""
","
","
","""event"",""trial"",""time""
""fullscreenenter"",""1"",""3538""
","
","","","659","","","24","1051","541","x","elianto","#f73b6a7A"," "," ","1","0","[1510.9999999997672]","1","3","","","1051","163","3","3","lose","go","0","0"
"pit-trial","233","1418300","0.0-169.0","battery-v0.2","","""event"",""trial"",""time""
""fullscreenenter"",""1"",""3538""
","
","
","""event"",""trial"",""time""
""fullscreenenter"",""1"",""3538""
","
","","","-1","","","24","1051","541","n","elianto","#3366ff99","-1","-1","1","+10","[]","0","3","","","1051","164","1","2","win","no-go","0","0"
"pit-trial","234","1423162","0.0-170.0","battery-v0.2","","""event"",""trial"",""time""
""fullscreenenter"",""1"",""3538""
","
","
","""event"",""trial"",""time""
""fullscreenenter"",""1"",""3538""
","
","","","-1","","","24","1051","541","n","elianto","#3366ff99","-1","-1","1","+10","[]","0","3","","","1051","165","1","2","win","no-go","0","0"
"pit-trial","235","1426558","0.0-171.0","battery-v0.2","","""event"",""trial"",""time""
""fullscreenenter"",""1"",""3538""
","
","
","""event"",""trial"",""time""
""fullscreenenter"",""1"",""3538""
","
","","","537","","","24","1051","541","x","elianto","#f73b6a7A"," "," ","1","-10","[1387]","1","3","","","1051","166","3","3","lose","go","1","0"
"pit-trial","236","1431420","0.0-172.0","battery-v0.2","","""event"",""trial"",""time""
""fullscreenenter"",""1"",""3538""
","
","
","""event"",""trial"",""time""
""fullscreenenter"",""1"",""3538""
","
","","","-1","","","24","1051","541","q","elianto","#3366ff99","-1","-1","1","+10","[]","0","3","","","1051","167","0","2","win","no-go","0","0"
"pit-trial","237","1434906","0.0-173.0","battery-v0.2","","""event"",""trial"",""time""
""fullscreenenter"",""1"",""3538""
","
","
","""event"",""trial"",""time""
""fullscreenenter"",""1"",""3538""
","
","","","627","","","24","1051","541","f","elianto","#3366ff99"," "," ","1","+10","[1477]","1","3","","","1051","168","2","1","win","go","0","0"
"pit-trial","238","1439766","0.0-174.0","battery-v0.2","","""event"",""trial"",""time""
""fullscreenenter"",""1"",""3538""
","
","
","""event"",""trial"",""time""
""fullscreenenter"",""1"",""3538""
","
","","","-1","","","24","1051","541","n","elianto","#3366ff99","-1","-1","1","+10","[]","0","3","","","1051","169","1","2","win","no-go","0","0"
"pit-trial","239","1444625","0.0-175.0","battery-v0.2","","""event"",""trial"",""time""
""fullscreenenter"",""1"",""3538""
","
","
","""event"",""trial"",""time""
""fullscreenenter"",""1"",""3538""
","
","","","-1","","","24","1051","541","q","elianto","#3366ff99","-1","-1","1","+10","[]","0","3","","","1051","170","0","2","win","no-go","0","0"
"pit-trial","240","1448034","0.0-176.0","battery-v0.2","","""event"",""trial"",""time""
""fullscreenenter"",""1"",""3538""
","
","
","""event"",""trial"",""time""
""fullscreenenter"",""1"",""3538""
","
","","","548","","","24","1051","541","f","elianto","#3366ff99"," "," ","1","+10","[1399]","1","3","","","1051","171","2","1","win","go","0","0"
"pit-trial","241","1451758","0.0-177.0","battery-v0.2","","""event"",""trial"",""time""
""fullscreenenter"",""1"",""3538""
","
","
","""event"",""trial"",""time""
""fullscreenenter"",""1"",""3538""
","
","","","864","","","24","1051","541","x","elianto","#f73b6a7A"," "," ","1","0","[1714]","1","3","","","1051","172","3","3","lose","go","0","0"
"pit-trial","242","1456618","0.0-178.0","battery-v0.2","","""event"",""trial"",""time""
""fullscreenenter"",""1"",""3538""
","
","
","""event"",""trial"",""time""
""fullscreenenter"",""1"",""3538""
","
","","","-1","","","24","1051","541","b","elianto","#f73b6a7A"," ","-1","0","-10","[]","0","3","","","1051","173","5","3","lose","go","0","0"
"pit-trial","243","1461479","0.0-179.0","battery-v0.2","","""event"",""trial"",""time""
""fullscreenenter"",""1"",""3538""
","
","
","""event"",""trial"",""time""
""fullscreenenter"",""1"",""3538""
","
","","","-1","","","24","1051","541","q","elianto","#3366ff99","-1","-1","1","+10","[]","0","3","","","1051","174","0","2","win","no-go","0","0"
"pit-trial","244","1464897","0.0-180.0","battery-v0.2","","""event"",""trial"",""time""
""fullscreenenter"",""1"",""3538""
","
","
","""event"",""trial"",""time""
""fullscreenenter"",""1"",""3538""
","
","","","557","","","24","1051","541","f","elianto","#3366ff99"," "," ","1","+10","[1408]","1","3","","","1051","175","2","1","win","go","0","0"
"pit-trial","245","1469757","0.0-181.0","battery-v0.2","","""event"",""trial"",""time""
""fullscreenenter"",""1"",""3538""
","
","
","""event"",""trial"",""time""
""fullscreenenter"",""1"",""3538""
","
","","","-1","","","24","1051","541","t","elianto","#f73b6a7A","-1","-1","1","0","[]","0","3","","","1051","176","4","4","lose","no-go","0","0"
"pit-trial","246","1473359","0.0-182.0","battery-v0.2","","""event"",""trial"",""time""
""fullscreenenter"",""1"",""3538""
","
","
","""event"",""trial"",""time""
""fullscreenenter"",""1"",""3538""
","
","","","743","","","24","1051","541","b","elianto","#f73b6a7A"," "," ","1","0","[1594]","1","3","","","1051","177","5","3","lose","go","0","0"
"pit-trial","247","1476866","0.0-183.0","battery-v0.2","","""event"",""trial"",""time""
""fullscreenenter"",""1"",""3538""
","
","
","""event"",""trial"",""time""
""fullscreenenter"",""1"",""3538""
","
","","","647","","","24","1051","541","f","elianto","#3366ff99"," "," ","1","0","[1499]","1","3","","","1051","178","2","1","win","go","1","0"
"pit-trial","248","1481726","0.0-184.0","battery-v0.2","","""event"",""trial"",""time""
""fullscreenenter"",""1"",""3538""
","
","
","""event"",""trial"",""time""
""fullscreenenter"",""1"",""3538""
","
","","","-1","","","24","1051","541","t","elianto","#f73b6a7A","-1","-1","1","-10","[]","0","3","","","1051","179","4","4","lose","no-go","1","0"
"pit-trial","249","1486586","0.0-185.0","battery-v0.2","","""event"",""trial"",""time""
""fullscreenenter"",""1"",""3538""
","
","
","""event"",""trial"",""time""
""fullscreenenter"",""1"",""3538""
","
","","","-1","","","24","1051","541","q","elianto","#3366ff99","-1","-1","1","0","[]","0","3","","","1051","180","0","2","win","no-go","1","0"
"pit-trial","250","1490905","0.0-186.0","battery-v0.2","","""event"",""trial"",""time""
""fullscreenenter"",""1"",""3538""
","
","
","""event"",""trial"",""time""
""fullscreenenter"",""1"",""3538""
","
","","","1461","","","24","1051","541","c","elianto","#3366ff99","-1"," ","0","0","[2310.999999999767]","1","3","","","1051","181","6","2","win","no-go","0","0"
"pit-trial","251","1494298","0.0-187.0","battery-v0.2","","""event"",""trial"",""time""
""fullscreenenter"",""1"",""3538""
","
","
","""event"",""trial"",""time""
""fullscreenenter"",""1"",""3538""
","
","","","534","","","24","1051","541","f","elianto","#3366ff99"," "," ","1","+10","[1386]","1","3","","","1051","182","2","1","win","go","0","0"
"pit-trial","252","1497966","0.0-188.0","battery-v0.2","","""event"",""trial"",""time""
""fullscreenenter"",""1"",""3538""
","
","
","""event"",""trial"",""time""
""fullscreenenter"",""1"",""3538""
","
","","","809","","","24","1051","541","b","elianto","#f73b6a7A"," "," ","1","0","[1659]","1","3","","","1051","183","5","3","lose","go","0","0"
"pit-trial","253","1502826","0.0-189.0","battery-v0.2","","""event"",""trial"",""time""
""fullscreenenter"",""1"",""3538""
","
","
","""event"",""trial"",""time""
""fullscreenenter"",""1"",""3538""
","
","","","-1","","","24","1051","541","t","elianto","#f73b6a7A","-1","-1","1","0","[]","0","3","","","1051","184","4","4","lose","no-go","0","0"
"pit-trial","254","1506780","0.0-190.0","battery-v0.2","","""event"",""trial"",""time""
""fullscreenenter"",""1"",""3538""
","
","
","""event"",""trial"",""time""
""fullscreenenter"",""1"",""3538""
","
","","","1091","","","24","1051","541","f","elianto","#3366ff99"," "," ","1","+10","[1944]","1","3","","","1051","185","2","1","win","go","0","0"
"pit-trial","255","1511640","0.0-191.0","battery-v0.2","","""event"",""trial"",""time""
""fullscreenenter"",""1"",""3538""
","
","
","""event"",""trial"",""time""
""fullscreenenter"",""1"",""3538""
","
","","","-1","","","24","1051","541","c","elianto","#3366ff99","-1","-1","1","+10","[]","0","3","","","1051","186","6","2","win","no-go","0","0"
"pit-trial","256","1516500","0.0-192.0","battery-v0.2","","""event"",""trial"",""time""
""fullscreenenter"",""1"",""3538""
","
","
","""event"",""trial"",""time""
""fullscreenenter"",""1"",""3538""
","
","","","-1","","","24","1051","541","t","elianto","#f73b6a7A","-1","-1","1","0","[]","0","3","","","1051","187","4","4","lose","no-go","0","0"
"pit-trial","257","1520312","0.0-193.0","battery-v0.2","","""event"",""trial"",""time""
""fullscreenenter"",""1"",""3538""
","
","
","""event"",""trial"",""time""
""fullscreenenter"",""1"",""3538""
","
","","","950","","","24","1051","541","b","elianto","#f73b6a7A"," "," ","1","0","[1801]","1","3","","","1051","188","5","3","lose","go","0","0"
"pit-trial","258","1525172","0.0-194.0","battery-v0.2","","""event"",""trial"",""time""
""fullscreenenter"",""1"",""3538""
","
","
","""event"",""trial"",""time""
""fullscreenenter"",""1"",""3538""
","
","","","-1","","","24","1051","541","z","elianto","#f73b6a7A","-1","-1","1","0","[]","0","3","","","1051","189","7","4","lose","no-go","0","0"
"pit-trial","259","1530030","0.0-195.0","battery-v0.2","","""event"",""trial"",""time""
""fullscreenenter"",""1"",""3538""
","
","
","""event"",""trial"",""time""
""fullscreenenter"",""1"",""3538""
","
","","","-1","","","24","1051","541","c","elianto","#3366ff99","-1","-1","1","0","[]","0","3","","","1051","190","6","2","win","no-go","1","0"
"pit-trial","260","1533651","0.0-196.0","battery-v0.2","","""event"",""trial"",""time""
""fullscreenenter"",""1"",""3538""
","
","
","""event"",""trial"",""time""
""fullscreenenter"",""1"",""3538""
","
","","","761","","","24","1051","541","b","elianto","#f73b6a7A"," "," ","1","0","[1611.9999999997672]","1","3","","","1051","191","5","3","lose","go","0","0"
"pit-trial","261","1538512","0.0-197.0","battery-v0.2","","""event"",""trial"",""time""
""fullscreenenter"",""1"",""3538""
","
","
","""event"",""trial"",""time""
""fullscreenenter"",""1"",""3538""
","
","","","-1","","","24","1051","541","t","elianto","#f73b6a7A","-1","-1","1","0","[]","0","3","","","1051","192","4","4","lose","no-go","0","0"
"pit-trial","262","1543372","0.0-198.0","battery-v0.2","","""event"",""trial"",""time""
""fullscreenenter"",""1"",""3538""
","
","
","""event"",""trial"",""time""
""fullscreenenter"",""1"",""3538""
","
","","","-1","","","24","1051","541","c","elianto","#3366ff99","-1","-1","1","+10","[]","0","3","","","1051","193","6","2","win","no-go","0","0"
"pit-trial","263","1548234","0.0-199.0","battery-v0.2","","""event"",""trial"",""time""
""fullscreenenter"",""1"",""3538""
","
","
","""event"",""trial"",""time""
""fullscreenenter"",""1"",""3538""
","
","","","-1","","","24","1051","541","z","elianto","#f73b6a7A","-1","-1","1","0","[]","0","3","","","1051","194","7","4","lose","no-go","0","0"
"pit-trial","264","1553094","0.0-200.0","battery-v0.2","","""event"",""trial"",""time""
""fullscreenenter"",""1"",""3538""
","
","
","""event"",""trial"",""time""
""fullscreenenter"",""1"",""3538""
","
","","","-1","","","24","1051","541","t","elianto","#f73b6a7A","-1","-1","1","0","[]","0","3","","","1051","195","4","4","lose","no-go","0","0"
"pit-trial","265","1556684","0.0-201.0","battery-v0.2","","""event"",""trial"",""time""
""fullscreenenter"",""1"",""3538""
","
","
","""event"",""trial"",""time""
""fullscreenenter"",""1"",""3538""
","
","","","730","","","24","1051","541","b","elianto","#f73b6a7A"," "," ","1","-10","[1580]","1","3","","","1051","196","5","3","lose","go","1","0"
"pit-trial","266","1561544","0.0-202.0","battery-v0.2","","""event"",""trial"",""time""
""fullscreenenter"",""1"",""3538""
","
","
","""event"",""trial"",""time""
""fullscreenenter"",""1"",""3538""
","
","","","-1","","","24","1051","541","z","elianto","#f73b6a7A","-1","-1","1","0","[]","0","3","","","1051","197","7","4","lose","no-go","0","0"
"pit-trial","267","1566404","0.0-203.0","battery-v0.2","","""event"",""trial"",""time""
""fullscreenenter"",""1"",""3538""
","
","
","""event"",""trial"",""time""
""fullscreenenter"",""1"",""3538""
","
","","","-1","","","24","1051","541","c","elianto","#3366ff99","-1","-1","1","+10","[]","0","3","","","1051","198","6","2","win","no-go","0","0"
"pit-trial","268","1569902","0.0-204.0","battery-v0.2","","""event"",""trial"",""time""
""fullscreenenter"",""1"",""3538""
","
","
","""event"",""trial"",""time""
""fullscreenenter"",""1"",""3538""
","
","","","639","","","24","1051","541","b","elianto","#f73b6a7A"," "," ","1","0","[1490]","1","3","","","1051","199","5","3","lose","go","0","0"
"pit-trial","269","1574763","0.0-205.0","battery-v0.2","","""event"",""trial"",""time""
""fullscreenenter"",""1"",""3538""
","
","
","""event"",""trial"",""time""
""fullscreenenter"",""1"",""3538""
","
","","","-1","","","24","1051","541","t","elianto","#f73b6a7A","-1","-1","1","0","[]","0","3","","","1051","200","4","4","lose","no-go","0","0"
"pit-trial","270","1578206","0.0-206.0","battery-v0.2","","""event"",""trial"",""time""
""fullscreenenter"",""1"",""3538""
","
","
","""event"",""trial"",""time""
""fullscreenenter"",""1"",""3538""
","
","","","585","","","24","1051","541","b","elianto","#f73b6a7A"," "," ","1","0","[1435]","1","3","","","1051","201","5","3","lose","go","0","0"
"pit-trial","271","1583067","0.0-207.0","battery-v0.2","","""event"",""trial"",""time""
""fullscreenenter"",""1"",""3538""
","
","
","""event"",""trial"",""time""
""fullscreenenter"",""1"",""3538""
","
","","","-1","","","24","1051","541","z","elianto","#f73b6a7A","-1","-1","1","0","[]","0","3","","","1051","202","7","4","lose","no-go","0","0"
"pit-trial","272","1587926","0.0-208.0","battery-v0.2","","""event"",""trial"",""time""
""fullscreenenter"",""1"",""3538""
","
","
","""event"",""trial"",""time""
""fullscreenenter"",""1"",""3538""
","
","","","-1","","","24","1051","541","t","elianto","#f73b6a7A","-1","-1","1","0","[]","0","3","","","1051","203","4","4","lose","no-go","0","0"
"pit-trial","273","1592786","0.0-209.0","battery-v0.2","","""event"",""trial"",""time""
""fullscreenenter"",""1"",""3538""
","
","
","""event"",""trial"",""time""
""fullscreenenter"",""1"",""3538""
","
","","","-1","","","24","1051","541","c","elianto","#3366ff99","-1","-1","1","+10","[]","0","3","","","1051","204","6","2","win","no-go","0","0"
