"trial_type","trial_index","time_elapsed","internal_node_id","task_version","subject_id","interactions","blur_events","focus_events","fullscreenenter_events","fullscreenexit_events","success","view_history","rt","responses","num_errors","age","subject","participantId","rune","rune_set","hex","correct","choice","accuracy","outcome","keys","total_keys","block","practice","value","sub","trial","stimulus","robot","valence","action","sham","browser_interactions"
"pavlovia","0","18","0.0-0.0","battery-v0.2","","""event"",""trial"",""time""
""fullscreenenter"",""1"",""2424""
","
","
","""event"",""trial"",""time""
""fullscreenenter"",""1"",""2424""
","
","","","","","","","","","","","","","","","","","","","","","","","","","","","",""
"fullscreen","1","3410","0.0-1.0","battery-v0.2","","""event"",""trial"",""time""
""fullscreenenter"",""1"",""2424""
","
","
","""event"",""trial"",""time""
""fullscreenenter"",""1"",""2424""
","
","true","","","","","","","","","","","","","","","","","","","","","","","","","","",""
"pit-instructions","2","7606","0.0-2.0-0.0","battery-v0.2","","""event"",""trial"",""time""
""fullscreenenter"",""1"",""2424""
","
","
","""event"",""trial"",""time""
""fullscreenenter"",""1"",""2424""
","
","","[{""page_index"":0,""viewing_time"":4192.5}]","4192.9000000059605","","","","","","","","","","","","","","","","","","","","","","","","",""
"pit-comprehension","3","10408","0.0-2.0-1.0-0.0","battery-v0.2","","""event"",""trial"",""time""
""fullscreenenter"",""1"",""2424""
","
","
","""event"",""trial"",""time""
""fullscreenenter"",""1"",""2424""
","
","","","2798","[""shark""]","0","12","1641","64","","","","","","","","","","","","","","","","","","","",""
"pit-instructions","4","13787","0.0-2.0-1.0-1.0","battery-v0.2","","""event"",""trial"",""time""
""fullscreenenter"",""1"",""2424""
","
","
","""event"",""trial"",""time""
""fullscreenenter"",""1"",""2424""
","
","","[{""page_index"":0,""viewing_time"":3373.600000023842}]","3373.800000011921","","","","","","","","","","","","","","","","","","","","","","","","",""
"pit-comprehension","5","16606","0.0-2.0-2.0-0.0","battery-v0.2","","""event"",""trial"",""time""
""fullscreenenter"",""1"",""2424""
","
","
","""event"",""trial"",""time""
""fullscreenenter"",""1"",""2424""
","
","","","2814.399999976158","[""tiger""]","0","12","1641","64","","","","","","","","","","","","","","","","","","","",""
"pit-instructions","6","21822","0.0-2.0-2.0-1.0","battery-v0.2","","""event"",""trial"",""time""
""fullscreenenter"",""1"",""2424""
","
","
","""event"",""trial"",""time""
""fullscreenenter"",""1"",""2424""
","
","","[{""page_index"":0,""viewing_time"":5212.9000000059605}]","5213.300000011921","","","","","","","","","","","","","","","","","","","","","","","","",""
"pit-instructions","7","140153","0.0-2.0-3.0","battery-v0.2","","""event"",""trial"",""time""
""fullscreenenter"",""1"",""2424""
","
","
","""event"",""trial"",""time""
""fullscreenenter"",""1"",""2424""
","
","","[{""page_index"":0,""viewing_time"":7630.200000017881},{""page_index"":1,""viewing_time"":6148.0999999940395},{""page_index"":2,""viewing_time"":6868},{""page_index"":3,""viewing_time"":12432.199999988079},{""page_index"":4,""viewing_time"":7051.0999999940395},{""page_index"":5,""viewing_time"":5899.5},{""page_index"":6,""viewing_time"":7550},{""page_index"":7,""viewing_time"":7865.700000017881},{""page_index"":8,""viewing_time"":13150.09999999404},{""page_index"":9,""viewing_time"":11749.90000000596},{""page_index"":10,""viewing_time"":9633.199999988079},{""page_index"":11,""viewing_time"":7899.4000000059605},{""page_index"":12,""viewing_time"":7118.800000011921},{""page_index"":13,""viewing_time"":7330.699999988079}]","118327.20000001788","","","","","","","","","","","","","","","","","","","","","","","","",""
"pit-trial","8","143813","0.0-2.0-4.0-0.0","battery-v0.2","","""event"",""trial"",""time""
""fullscreenenter"",""1"",""2424""
","
","
","""event"",""trial"",""time""
""fullscreenenter"",""1"",""2424""
","
","","","802","","","12","1641","64","&#9784;","elianto","#FFFFF080"," "," ","1","&#10004","[1652.5999999940395]","1","0","0","","","","","","","","",""
"pit-trial","9","147353","0.0-2.0-4.1-0.1","battery-v0.2","","""event"",""trial"",""time""
""fullscreenenter"",""1"",""2424""
","
","
","""event"",""trial"",""time""
""fullscreenenter"",""1"",""2424""
","
","","","682.0999999940395","","","12","1641","64","&#9784;","elianto","#FFFFF080"," "," ","1","&#10004","[1532.0999999940395]","1","0","0","","","","","","","","",""
"pit-trial","10","150665","0.0-2.0-4.2-0.2","battery-v0.2","","""event"",""trial"",""time""
""fullscreenenter"",""1"",""2424""
","
","
","""event"",""trial"",""time""
""fullscreenenter"",""1"",""2424""
","
","","","457.19999998807907","","","12","1641","64","&#9784;","elianto","#FFFFF080"," "," ","1","&#10004","[1308.4000000059605]","1","0","0","","","","","","","","",""
"pit-trial","11","154221","0.0-2.0-4.3-0.3","battery-v0.2","","""event"",""trial"",""time""
""fullscreenenter"",""1"",""2424""
","
","
","""event"",""trial"",""time""
""fullscreenenter"",""1"",""2424""
","
","","","698.5999999940395","","","12","1641","64","&#9784;","elianto","#FFFFF080"," "," ","1","&#10004","[1548.7999999821186]","1","0","0","","","","","","","","",""
"pit-trial","12","157517","0.0-2.0-4.4-0.4","battery-v0.2","","""event"",""trial"",""time""
""fullscreenenter"",""1"",""2424""
","
","
","""event"",""trial"",""time""
""fullscreenenter"",""1"",""2424""
","
","","","440.90000000596046","","","12","1641","64","&#9784;","elianto","#FFFFF080"," "," ","1","&#10004","[1291.5999999940395]","1","0","0","","","","","","","","",""
"pit-instructions","13","187753","0.0-2.0-5.0","battery-v0.2","","""event"",""trial"",""time""
""fullscreenenter"",""1"",""2424""
","
","
","""event"",""trial"",""time""
""fullscreenenter"",""1"",""2424""
","
","","[{""page_index"":0,""viewing_time"":11499.199999988079},{""page_index"":1,""viewing_time"":7117.100000023842},{""page_index"":2,""viewing_time"":5833.0999999940395},{""page_index"":3,""viewing_time"":5782.9000000059605}]","30232.69999998808","","","","","","","","","","","","","","","","","","","","","","","","",""
"pit-trial","14","192611","0.0-2.0-6.0-0.0","battery-v0.2","","""event"",""trial"",""time""
""fullscreenenter"",""1"",""2424""
","
","
","""event"",""trial"",""time""
""fullscreenenter"",""1"",""2424""
","
","","","-1","","","12","1641","64","&#9854;","elianto","#FFFFF080","-1","-1","1","&#10004","[]","0","0","1","","","","","","","","",""
"pit-trial","15","197470","0.0-2.0-6.1-0.1","battery-v0.2","","""event"",""trial"",""time""
""fullscreenenter"",""1"",""2424""
","
","
","""event"",""trial"",""time""
""fullscreenenter"",""1"",""2424""
","
","","","-1","","","12","1641","64","&#9854;","elianto","#FFFFF080","-1","-1","1","&#10004","[]","0","0","1","","","","","","","","",""
"pit-trial","16","202324","0.0-2.0-6.2-0.2","battery-v0.2","","""event"",""trial"",""time""
""fullscreenenter"",""1"",""2424""
","
","
","""event"",""trial"",""time""
""fullscreenenter"",""1"",""2424""
","
","","","-1","","","12","1641","64","&#9854;","elianto","#FFFFF080","-1","-1","1","&#10004","[]","0","0","1","","","","","","","","",""
"pit-trial","17","207177","0.0-2.0-6.3-0.3","battery-v0.2","","""event"",""trial"",""time""
""fullscreenenter"",""1"",""2424""
","
","
","""event"",""trial"",""time""
""fullscreenenter"",""1"",""2424""
","
","","","-1","","","12","1641","64","&#9854;","elianto","#FFFFF080","-1","-1","1","&#10004","[]","0","0","1","","","","","","","","",""
"pit-trial","18","212029","0.0-2.0-6.4-0.4","battery-v0.2","","""event"",""trial"",""time""
""fullscreenenter"",""1"",""2424""
","
","
","""event"",""trial"",""time""
""fullscreenenter"",""1"",""2424""
","
","","","-1","","","12","1641","64","&#9854;","elianto","#FFFFF080","-1","-1","1","&#10004","[]","0","0","1","","","","","","","","",""
"pit-instructions","19","366137","0.0-2.0-7.0","battery-v0.2","","""event"",""trial"",""time""
""fullscreenenter"",""1"",""2424""
","
","
","""event"",""trial"",""time""
""fullscreenenter"",""1"",""2424""
","
","","[{""page_index"":0,""viewing_time"":11404.799999982119},{""page_index"":1,""viewing_time"":6999.9000000059605},{""page_index"":2,""viewing_time"":9166.40000000596},{""page_index"":3,""viewing_time"":8083.299999982119},{""page_index"":4,""viewing_time"":6765.9000000059605},{""page_index"":5,""viewing_time"":7250.200000017881},{""page_index"":6,""viewing_time"":5732.699999988079},{""page_index"":7,""viewing_time"":8717.300000011921},{""page_index"":8,""viewing_time"":6716.399999976158},{""page_index"":9,""viewing_time"":11332.100000023842},{""page_index"":10,""viewing_time"":9350.399999976158},{""page_index"":11,""viewing_time"":6349.800000011921},{""page_index"":12,""viewing_time"":10649.90000000596},{""page_index"":13,""viewing_time"":8550},{""page_index"":14,""viewing_time"":7300},{""page_index"":15,""viewing_time"":12516.40000000596},{""page_index"":16,""viewing_time"":7716.399999976158},{""page_index"":17,""viewing_time"":9532.5}]","154134.59999999404","","","","","","","","","","","","","","","","","","","","","","","","",""
"pit-trial","20","370055","0.0-2.0-8.0-0.0","battery-v0.2","","""event"",""trial"",""time""
""fullscreenenter"",""1"",""2424""
","
","
","""event"",""trial"",""time""
""fullscreenenter"",""1"",""2424""
","
","","","1062.5","","","12","1641","64","&#9776;","elianto","#3366ff99"," "," ","1","+10","[1913.199999988079]","1","0","1","","","","","","","","",""
"pit-trial","21","373385","0.0-2.0-8.0-1.0","battery-v0.2","","""event"",""trial"",""time""
""fullscreenenter"",""1"",""2424""
","
","
","""event"",""trial"",""time""
""fullscreenenter"",""1"",""2424""
","
","","","473.89999997615814","","","12","1641","64","&#9776;","elianto","#3366ff99"," "," ","1","+10","[1324.3999999761581]","1","0","1","","","","","","","","",""
"pit-trial","22","376887","0.0-2.0-8.0-2.0","battery-v0.2","","""event"",""trial"",""time""
""fullscreenenter"",""1"",""2424""
","
","
","""event"",""trial"",""time""
""fullscreenenter"",""1"",""2424""
","
","","","644","","","12","1641","64","&#9776;","elianto","#3366ff99"," "," ","1","+10","[1494.699999988079]","1","0","1","","","","","","","","",""
"pit-trial","23","380152","0.0-2.0-8.0-3.0","battery-v0.2","","""event"",""trial"",""time""
""fullscreenenter"",""1"",""2424""
","
","
","""event"",""trial"",""time""
""fullscreenenter"",""1"",""2424""
","
","","","408.80000001192093","","","12","1641","64","&#9776;","elianto","#3366ff99"," "," ","1","0","[1259]","1","0","1","","","","","","","","",""
"pit-trial","24","383488","0.0-2.0-8.0-4.0","battery-v0.2","","""event"",""trial"",""time""
""fullscreenenter"",""1"",""2424""
","
","
","""event"",""trial"",""time""
""fullscreenenter"",""1"",""2424""
","
","","","478.90000000596046","","","12","1641","64","&#9776;","elianto","#3366ff99"," "," ","1","+10","[1329.5]","1","0","1","","","","","","","","",""
"call-function","25","383490","0.0-2.0-9.0","battery-v0.2","","""event"",""trial"",""time""
""fullscreenenter"",""1"",""2424""
","
","
","""event"",""trial"",""time""
""fullscreenenter"",""1"",""2424""
","
","","","","","","","","","","","","","","","","","","","","","","","","","","","",""
"pit-instructions","26","435103","0.0-2.0-10.0","battery-v0.2","","""event"",""trial"",""time""
""fullscreenenter"",""1"",""2424""
","
","
","""event"",""trial"",""time""
""fullscreenenter"",""1"",""2424""
","
","","[{""page_index"":0,""viewing_time"":6679.5},{""page_index"":1,""viewing_time"":12166.299999982119},{""page_index"":2,""viewing_time"":12449},{""page_index"":3,""viewing_time"":11866.300000011921},{""page_index"":4,""viewing_time"":8450.800000011921}]","51612.29999998212","","","","","","","","","","","","","","","","","","","","","","","","",""
"pit-trial","27","439961","0.0-2.0-11.0-0.0","battery-v0.2","","""event"",""trial"",""time""
""fullscreenenter"",""1"",""2424""
","
","
","""event"",""trial"",""time""
""fullscreenenter"",""1"",""2424""
","
","","","-1","","","12","1641","64","&#9761;","elianto","#3366ff99","-1","-1","1","+10","[]","0","0","2","","","","","","","","",""
"pit-trial","28","444819","0.0-2.0-11.0-1.0","battery-v0.2","","""event"",""trial"",""time""
""fullscreenenter"",""1"",""2424""
","
","
","""event"",""trial"",""time""
""fullscreenenter"",""1"",""2424""
","
","","","-1","","","12","1641","64","&#9761;","elianto","#3366ff99","-1","-1","1","+10","[]","0","0","2","","","","","","","","",""
"pit-trial","29","449679","0.0-2.0-11.0-2.0","battery-v0.2","","""event"",""trial"",""time""
""fullscreenenter"",""1"",""2424""
","
","
","""event"",""trial"",""time""
""fullscreenenter"",""1"",""2424""
","
","","","-1","","","12","1641","64","&#9761;","elianto","#3366ff99","-1","-1","1","+10","[]","0","0","2","","","","","","","","",""
"pit-trial","30","454537","0.0-2.0-11.0-3.0","battery-v0.2","","""event"",""trial"",""time""
""fullscreenenter"",""1"",""2424""
","
","
","""event"",""trial"",""time""
""fullscreenenter"",""1"",""2424""
","
","","","-1","","","12","1641","64","&#9761;","elianto","#3366ff99","-1","-1","1","0","[]","0","0","2","","","","","","","","",""
"pit-trial","31","459395","0.0-2.0-11.0-4.0","battery-v0.2","","""event"",""trial"",""time""
""fullscreenenter"",""1"",""2424""
","
","
","""event"",""trial"",""time""
""fullscreenenter"",""1"",""2424""
","
","","","-1","","","12","1641","64","&#9761;","elianto","#3366ff99","-1","-1","1","+10","[]","0","0","2","","","","","","","","",""
"call-function","32","459397","0.0-2.0-12.0","battery-v0.2","","""event"",""trial"",""time""
""fullscreenenter"",""1"",""2424""
","
","
","""event"",""trial"",""time""
""fullscreenenter"",""1"",""2424""
","
","","","","","","","","","","","","","","","","","","","","","","","","","","","",""
"pit-instructions","33","504302","0.0-2.0-13.0","battery-v0.2","","""event"",""trial"",""time""
""fullscreenenter"",""1"",""2424""
","
","
","""event"",""trial"",""time""
""fullscreenenter"",""1"",""2424""
","
","","[{""page_index"":0,""viewing_time"":5338.200000017881},{""page_index"":1,""viewing_time"":12566.40000000596},{""page_index"":2,""viewing_time"":6566.5},{""page_index"":3,""viewing_time"":13016.5},{""page_index"":4,""viewing_time"":7416.399999976158}]","44904.40000000596","","","","","","","","","","","","","","","","","","","","","","","","",""
"pit-trial","34","508042","0.0-2.0-14.0-0.0","battery-v0.2","","""event"",""trial"",""time""
""fullscreenenter"",""1"",""2424""
","
","
","""event"",""trial"",""time""
""fullscreenenter"",""1"",""2424""
","
","","","882.4000000059605","","","12","1641","64","&#9826;","elianto","#f73b6a7A","-1"," ","0","-10","[1733.300000011921]","1","0","3","","","","","","","","",""
"pit-trial","35","512895","0.0-2.0-14.0-1.0","battery-v0.2","","""event"",""trial"",""time""
""fullscreenenter"",""1"",""2424""
","
","
","""event"",""trial"",""time""
""fullscreenenter"",""1"",""2424""
","
","","","-1","","","12","1641","64","&#9826;","elianto","#f73b6a7A","-1","-1","1","0","[]","0","0","3","","","","","","","","",""
"pit-trial","36","517752","0.0-2.0-14.0-2.0","battery-v0.2","","""event"",""trial"",""time""
""fullscreenenter"",""1"",""2424""
","
","
","""event"",""trial"",""time""
""fullscreenenter"",""1"",""2424""
","
","","","-1","","","12","1641","64","&#9826;","elianto","#f73b6a7A","-1","-1","1","0","[]","0","0","3","","","","","","","","",""
"pit-trial","37","522611","0.0-2.0-14.0-3.0","battery-v0.2","","""event"",""trial"",""time""
""fullscreenenter"",""1"",""2424""
","
","
","""event"",""trial"",""time""
""fullscreenenter"",""1"",""2424""
","
","","","-1","","","12","1641","64","&#9826;","elianto","#f73b6a7A","-1","-1","1","-10","[]","0","0","3","","","","","","","","",""
"pit-trial","38","527467","0.0-2.0-14.0-4.0","battery-v0.2","","""event"",""trial"",""time""
""fullscreenenter"",""1"",""2424""
","
","
","""event"",""trial"",""time""
""fullscreenenter"",""1"",""2424""
","
","","","-1","","","12","1641","64","&#9826;","elianto","#f73b6a7A","-1","-1","1","0","[]","0","0","3","","","","","","","","",""
"call-function","39","527469","0.0-2.0-15.0","battery-v0.2","","""event"",""trial"",""time""
""fullscreenenter"",""1"",""2424""
","
","
","""event"",""trial"",""time""
""fullscreenenter"",""1"",""2424""
","
","","","","","","","","","","","","","","","","","","","","","","","","","","","",""
"pit-instructions","40","563784","0.0-2.0-16.0","battery-v0.2","","""event"",""trial"",""time""
""fullscreenenter"",""1"",""2424""
","
","
","""event"",""trial"",""time""
""fullscreenenter"",""1"",""2424""
","
","","[{""page_index"":0,""viewing_time"":7448.4000000059605},{""page_index"":1,""viewing_time"":11915.90000000596},{""page_index"":2,""viewing_time"":8950.699999988079},{""page_index"":3,""viewing_time"":7999}]","36314.30000001192","","","","","","","","","","","","","","","","","","","","","","","","",""
"pit-trial","41","567252","0.0-2.0-17.0-0.0","battery-v0.2","","""event"",""trial"",""time""
""fullscreenenter"",""1"",""2424""
","
","
","""event"",""trial"",""time""
""fullscreenenter"",""1"",""2424""
","
","","","612.9000000059605","","","12","1641","64","&#9789;","elianto","#f73b6a7A"," "," ","1","0","[1463.0999999940395]","1","0","4","","","","","","","","",""
"pit-trial","42","570867","0.0-2.0-17.0-1.0","battery-v0.2","","""event"",""trial"",""time""
""fullscreenenter"",""1"",""2424""
","
","
","""event"",""trial"",""time""
""fullscreenenter"",""1"",""2424""
","
","","","759.2999999821186","","","12","1641","64","&#9789;","elianto","#f73b6a7A"," "," ","1","0","[1610.0999999940395]","1","0","4","","","","","","","","",""
"pit-trial","43","574434","0.0-2.0-17.0-2.0","battery-v0.2","","""event"",""trial"",""time""
""fullscreenenter"",""1"",""2424""
","
","
","""event"",""trial"",""time""
""fullscreenenter"",""1"",""2424""
","
","","","711","","","12","1641","64","&#9789;","elianto","#f73b6a7A"," "," ","1","0","[1561.5999999940395]","1","0","4","","","","","","","","",""
"pit-trial","44","577985","0.0-2.0-17.0-3.0","battery-v0.2","","""event"",""trial"",""time""
""fullscreenenter"",""1"",""2424""
","
","
","""event"",""trial"",""time""
""fullscreenenter"",""1"",""2424""
","
","","","698.6999999880791","","","12","1641","64","&#9789;","elianto","#f73b6a7A"," "," ","1","-10","[1548.8999999761581]","1","0","4","","","","","","","","",""
"pit-trial","45","581530","0.0-2.0-17.0-4.0","battery-v0.2","","""event"",""trial"",""time""
""fullscreenenter"",""1"",""2424""
","
","
","""event"",""trial"",""time""
""fullscreenenter"",""1"",""2424""
","
","","","686.8000000119209","","","12","1641","64","&#9789;","elianto","#f73b6a7A"," "," ","1","0","[1537.800000011921]","1","0","4","","","","","","","","",""
"call-function","46","581531","0.0-2.0-18.0","battery-v0.2","","""event"",""trial"",""time""
""fullscreenenter"",""1"",""2424""
","
","
","""event"",""trial"",""time""
""fullscreenenter"",""1"",""2424""
","
","","","","","","","","","","","","","","","","","","","","","","","","","","","",""
"pit-instructions","47","639833","0.0-2.0-19.0","battery-v0.2","","""event"",""trial"",""time""
""fullscreenenter"",""1"",""2424""
","
","
","""event"",""trial"",""time""
""fullscreenenter"",""1"",""2424""
","
","","[{""page_index"":0,""viewing_time"":7552.899999976158},{""page_index"":1,""viewing_time"":5183.100000023842},{""page_index"":2,""viewing_time"":8232.699999988079},{""page_index"":3,""viewing_time"":6233},{""page_index"":4,""viewing_time"":6933.800000011921},{""page_index"":5,""viewing_time"":8216.5},{""page_index"":6,""viewing_time"":4799.799999982119},{""page_index"":5,""viewing_time"":581.8000000119209},{""page_index"":6,""viewing_time"":5234.4000000059605},{""page_index"":7,""viewing_time"":2383.399999976158},{""page_index"":8,""viewing_time"":2949.2000000178814}]","58301","","","","","","","","","","","","","","","","","","","","","","","","",""
"pit-comprehension","48","644319","0.0-2.0-20.0-0.0","battery-v0.2","","""event"",""trial"",""time""
""fullscreenenter"",""1"",""2424""
","
","
","""event"",""trial"",""time""
""fullscreenenter"",""1"",""2424""
","
","","","4483.5","[""SPACE""]","0","12","1641","64","","","","","","","","","","","","","","","","","","","",""
"pit-instructions","49","647300","0.0-2.0-20.0-1.0","battery-v0.2","","""event"",""trial"",""time""
""fullscreenenter"",""1"",""2424""
","
","
","""event"",""trial"",""time""
""fullscreenenter"",""1"",""2424""
","
","","[{""page_index"":0,""viewing_time"":2966.5}]","2966.7000000178814","","","","","","","","","","","","","","","","","","","","","","","","",""
"pit-comprehension","50","652268","0.0-2.0-21.0-0.0","battery-v0.2","","""event"",""trial"",""time""
""fullscreenenter"",""1"",""2424""
","
","
","""event"",""trial"",""time""
""fullscreenenter"",""1"",""2424""
","
","","","4965","[""10""]","0","12","1641","64","","","","","","","","","","","","","","","","","","","",""
"pit-instructions","51","654117","0.0-2.0-21.0-1.0","battery-v0.2","","""event"",""trial"",""time""
""fullscreenenter"",""1"",""2424""
","
","
","""event"",""trial"",""time""
""fullscreenenter"",""1"",""2424""
","
","","[{""page_index"":0,""viewing_time"":1833.0999999940395}]","1833.4000000059605","","","","","","","","","","","","","","","","","","","","","","","","",""
"pit-comprehension","52","662501","0.0-2.0-22.0-0.0","battery-v0.2","","""event"",""trial"",""time""
""fullscreenenter"",""1"",""2424""
","
","
","""event"",""trial"",""time""
""fullscreenenter"",""1"",""2424""
","
","","","8381","[""0""]","0","12","1641","64","","","","","","","","","","","","","","","","","","","",""
"pit-instructions","53","666650","0.0-2.0-22.0-1.0","battery-v0.2","","""event"",""trial"",""time""
""fullscreenenter"",""1"",""2424""
","
","
","""event"",""trial"",""time""
""fullscreenenter"",""1"",""2424""
","
","","[{""page_index"":0,""viewing_time"":4133.300000011921}]","4133.5999999940395","","","","","","","","","","","","","","","","","","","","","","","","",""
"pit-comprehension","54","675051","0.0-2.0-23.0-0.0","battery-v0.2","","""event"",""trial"",""time""
""fullscreenenter"",""1"",""2424""
","
","
","""event"",""trial"",""time""
""fullscreenenter"",""1"",""2424""
","
","","","8398.800000011921","[""True""]","0","12","1641","64","","","","","","","","","","","","","","","","","","","",""
"pit-instructions","55","678800","0.0-2.0-23.0-1.0","battery-v0.2","","""event"",""trial"",""time""
""fullscreenenter"",""1"",""2424""
","
","
","""event"",""trial"",""time""
""fullscreenenter"",""1"",""2424""
","
","","[{""page_index"":0,""viewing_time"":3732.100000023842}]","3732.4000000059605","","","","","","","","","","","","","","","","","","","","","","","","",""
"pit-comprehension","56","686435","0.0-2.0-24.0-0.0","battery-v0.2","","""event"",""trial"",""time""
""fullscreenenter"",""1"",""2424""
","
","
","""event"",""trial"",""time""
""fullscreenenter"",""1"",""2424""
","
","","","7632","[""True""]","0","12","1641","64","","","","","","","","","","","","","","","","","","","",""
"pit-instructions","57","691216","0.0-2.0-24.0-1.0","battery-v0.2","","""event"",""trial"",""time""
""fullscreenenter"",""1"",""2424""
","
","
","""event"",""trial"",""time""
""fullscreenenter"",""1"",""2424""
","
","","[{""page_index"":0,""viewing_time"":4764.9000000059605}]","4765.200000017881","","","","","","","","","","","","","","","","","","","","","","","","",""
"pit-comprehension","58","697868","0.0-2.0-25.0-0.0","battery-v0.2","","""event"",""trial"",""time""
""fullscreenenter"",""1"",""2424""
","
","
","""event"",""trial"",""time""
""fullscreenenter"",""1"",""2424""
","
","","","6648.299999982119","[""True""]","0","12","1641","64","","","","","","","","","","","","","","","","","","","",""
"pit-instructions","59","705516","0.0-2.0-25.0-1.0","battery-v0.2","","""event"",""trial"",""time""
""fullscreenenter"",""1"",""2424""
","
","
","""event"",""trial"",""time""
""fullscreenenter"",""1"",""2424""
","
","","[{""page_index"":0,""viewing_time"":7630.800000011921}]","7631","","","","","","","","","","","","","","","","","","","","","","","","",""
"pit-comprehension","60","710200","0.0-2.0-26.0-0.0","battery-v0.2","","""event"",""trial"",""time""
""fullscreenenter"",""1"",""2424""
","
","
","""event"",""trial"",""time""
""fullscreenenter"",""1"",""2424""
","
","","","4681","[""False""]","0","12","1641","64","","","","","","","","","","","","","","","","","","","",""
"pit-instructions","61","713683","0.0-2.0-26.0-1.0","battery-v0.2","","""event"",""trial"",""time""
""fullscreenenter"",""1"",""2424""
","
","
","""event"",""trial"",""time""
""fullscreenenter"",""1"",""2424""
","
","","[{""page_index"":0,""viewing_time"":3466.699999988079}]","3467","","","","","","","","","","","","","","","","","","","","","","","","",""
"pit-instructions","62","729249","0.0-3.0","battery-v0.2","","""event"",""trial"",""time""
""fullscreenenter"",""1"",""2424""
","
","
","""event"",""trial"",""time""
""fullscreenenter"",""1"",""2424""
","
","","[{""page_index"":0,""viewing_time"":4031.899999976158},{""page_index"":1,""viewing_time"":5049.700000017881},{""page_index"":2,""viewing_time"":6482.799999982119}]","15564.59999999404","","","","","","","","","","","","","","","","","","","","","","","","",""
"pit-trial","63","734105","0.0-4.0","battery-v0.2","","""event"",""trial"",""time""
""fullscreenenter"",""1"",""2424""
","
","
","""event"",""trial"",""time""
""fullscreenenter"",""1"",""2424""
","
","","","-1","","","12","1641","64","&#9733;","elianto","#3366ff99","-1","-1","1","+10","[3041.4000000059605]","1","1","","","1641","1","2","2","win","no-go","0","[]"
"pit-trial","64","738959","0.0-5.0","battery-v0.2","","""event"",""trial"",""time""
""fullscreenenter"",""1"",""2424""
","
","
","""event"",""trial"",""time""
""fullscreenenter"",""1"",""2424""
","
","","","-1","","","12","1641","64","&#9752;","elianto","#f73b6a7A"," ","-1","0","-10","[]","0","1","","","1641","2","3","3","lose","go","0","0"
"pit-trial","65","742989","0.0-6.0","battery-v0.2","","""event"",""trial"",""time""
""fullscreenenter"",""1"",""2424""
","
","
","""event"",""trial"",""time""
""fullscreenenter"",""1"",""2424""
","
","","","1172.7000000178814","","","12","1641","64","&#9728;","elianto","#f73b6a7A","-1"," ","0","-10","[2024.800000011921]","1","1","","","1641","3","0","4","lose","no-go","0","0"
"pit-trial","66","747549","0.0-7.0","battery-v0.2","","""event"",""trial"",""time""
""fullscreenenter"",""1"",""2424""
","
","
","""event"",""trial"",""time""
""fullscreenenter"",""1"",""2424""
","
","","","1701","","","12","1641","64","&#9730;","elianto","#3366ff99"," "," ","1","+10","[2552.699999988079]","1","1","","","1641","4","1","1","win","go","0","0"
"pit-trial","67","752409","0.0-8.0","battery-v0.2","","""event"",""trial"",""time""
""fullscreenenter"",""1"",""2424""
","
","
","""event"",""trial"",""time""
""fullscreenenter"",""1"",""2424""
","
","","","-1","","","12","1641","64","&#9728;","elianto","#f73b6a7A","-1","-1","1","0","[]","0","1","","","1641","5","0","4","lose","no-go","0","0"
"pit-trial","68","756179","0.0-9.0","battery-v0.2","","""event"",""trial"",""time""
""fullscreenenter"",""1"",""2424""
","
","
","""event"",""trial"",""time""
""fullscreenenter"",""1"",""2424""
","
","","","913.2999999821186","","","12","1641","64","&#9733;","elianto","#3366ff99","-1"," ","0","0","[1767.7999999821186]","1","1","","","1641","6","2","2","win","no-go","0","0"
"pit-trial","69","759931","0.0-10.0","battery-v0.2","","""event"",""trial"",""time""
""fullscreenenter"",""1"",""2424""
","
","
","""event"",""trial"",""time""
""fullscreenenter"",""1"",""2424""
","
","","","896.3000000119209","","","12","1641","64","&#9730;","elianto","#3366ff99"," "," ","1","+10","[1746.5]","1","1","","","1641","7","1","1","win","go","0","0"
"pit-trial","70","764258","0.0-11.0","battery-v0.2","","""event"",""trial"",""time""
""fullscreenenter"",""1"",""2424""
","
","
","""event"",""trial"",""time""
""fullscreenenter"",""1"",""2424""
","
","","","1471","","","12","1641","64","&#9752;","elianto","#f73b6a7A"," "," ","1","-10","[2321.399999976158]","1","1","","","1641","8","3","3","lose","go","1","0"
"pit-trial","71","767917","0.0-12.0","battery-v0.2","","""event"",""trial"",""time""
""fullscreenenter"",""1"",""2424""
","
","
","""event"",""trial"",""time""
""fullscreenenter"",""1"",""2424""
","
","","","804.4000000059605","","","12","1641","64","&#9733;","elianto","#3366ff99","-1"," ","0","+10","[1656.5999999940395]","1","1","","","1641","9","2","2","win","no-go","1","0"
"pit-trial","72","772775","0.0-13.0","battery-v0.2","","""event"",""trial"",""time""
""fullscreenenter"",""1"",""2424""
","
","
","""event"",""trial"",""time""
""fullscreenenter"",""1"",""2424""
","
","","","-1","","","12","1641","64","&#9728;","elianto","#f73b6a7A","-1","-1","1","0","[]","0","1","","","1641","10","0","4","lose","no-go","0","0"
"pit-trial","73","777634","0.0-14.0","battery-v0.2","","""event"",""trial"",""time""
""fullscreenenter"",""1"",""2424""
","
","
","""event"",""trial"",""time""
""fullscreenenter"",""1"",""2424""
","
","","","-1","","","12","1641","64","&#9752;","elianto","#f73b6a7A"," ","-1","0","-10","[]","0","1","","","1641","11","3","3","lose","go","0","0"
"pit-trial","74","781224","0.0-15.0","battery-v0.2","","""event"",""trial"",""time""
""fullscreenenter"",""1"",""2424""
","
","
","""event"",""trial"",""time""
""fullscreenenter"",""1"",""2424""
","
","","","735","","","12","1641","64","&#9730;","elianto","#3366ff99"," "," ","1","+10","[1585.5]","1","1","","","1641","12","1","1","win","go","0","0"
"pit-trial","75","784797","0.0-16.0","battery-v0.2","","""event"",""trial"",""time""
""fullscreenenter"",""1"",""2424""
","
","
","""event"",""trial"",""time""
""fullscreenenter"",""1"",""2424""
","
","","","715.4000000059605","","","12","1641","64","&#9730;","elianto","#3366ff99"," "," ","1","0","[1566.5]","1","1","","","1641","13","1","1","win","go","1","0"
"pit-trial","76","788291","0.0-17.0","battery-v0.2","","""event"",""trial"",""time""
""fullscreenenter"",""1"",""2424""
","
","
","""event"",""trial"",""time""
""fullscreenenter"",""1"",""2424""
","
","","","638","","","12","1641","64","&#9733;","elianto","#3366ff99","-1"," ","0","0","[1488]","1","1","","","1641","14","2","2","win","no-go","0","0"
"pit-trial","77","792253","0.0-18.0","battery-v0.2","","""event"",""trial"",""time""
""fullscreenenter"",""1"",""2424""
","
","
","""event"",""trial"",""time""
""fullscreenenter"",""1"",""2424""
","
","","","1108.800000011921","","","12","1641","64","&#9728;","elianto","#f73b6a7A","-1"," ","0","0","[1959.9000000059605]","1","1","","","1641","15","0","4","lose","no-go","1","0"
"pit-trial","78","797112","0.0-19.0","battery-v0.2","","""event"",""trial"",""time""
""fullscreenenter"",""1"",""2424""
","
","
","""event"",""trial"",""time""
""fullscreenenter"",""1"",""2424""
","
","","","-1","","","12","1641","64","&#9752;","elianto","#f73b6a7A"," ","-1","0","-10","[]","0","1","","","1641","16","3","3","lose","go","0","0"
"pit-trial","79","801971","0.0-20.0","battery-v0.2","","""event"",""trial"",""time""
""fullscreenenter"",""1"",""2424""
","
","
","""event"",""trial"",""time""
""fullscreenenter"",""1"",""2424""
","
","","","-1","","","12","1641","64","&#9728;","elianto","#f73b6a7A","-1","-1","1","0","[2920]","1","1","","","1641","17","0","4","lose","no-go","0","0"
"pit-trial","80","805445","0.0-21.0","battery-v0.2","","""event"",""trial"",""time""
""fullscreenenter"",""1"",""2424""
","
","
","""event"",""trial"",""time""
""fullscreenenter"",""1"",""2424""
","
","","","617.0999999940395","","","12","1641","64","&#9733;","elianto","#3366ff99","-1"," ","0","0","[1468.5999999940395]","1","1","","","1641","18","2","2","win","no-go","0","0"
"pit-trial","81","810307","0.0-22.0","battery-v0.2","","""event"",""trial"",""time""
""fullscreenenter"",""1"",""2424""
","
","
","""event"",""trial"",""time""
""fullscreenenter"",""1"",""2424""
","
","","","-1","","","12","1641","64","&#9752;","elianto","#f73b6a7A"," ","-1","0","-10","[3976.2999999821186]","1","1","","","1641","19","3","3","lose","go","0","0"
"pit-trial","82","813779","0.0-23.0","battery-v0.2","","""event"",""trial"",""time""
""fullscreenenter"",""1"",""2424""
","
","
","""event"",""trial"",""time""
""fullscreenenter"",""1"",""2424""
","
","","","616.5","","","12","1641","64","&#9730;","elianto","#3366ff99"," "," ","1","+10","[1467.7000000178814]","1","1","","","1641","20","1","1","win","go","0","0"
"pit-instructions","83","826330","0.0-24.0","battery-v0.2","","""event"",""trial"",""time""
""fullscreenenter"",""1"",""2424""
","
","
","""event"",""trial"",""time""
""fullscreenenter"",""1"",""2424""
","
","","[{""page_index"":0,""viewing_time"":6517.5999999940395},{""page_index"":1,""viewing_time"":6031.799999982119}]","12549.699999988079","","","","","","","","","","","","","","","","","","","","","","","","",""
"pit-trial","84","829984","0.0-25.0","battery-v0.2","","""event"",""trial"",""time""
""fullscreenenter"",""1"",""2424""
","
","
","""event"",""trial"",""time""
""fullscreenenter"",""1"",""2424""
","
","","","798.5999999940395","","","12","1641","64","x","elianto","#f73b6a7A"," "," ","1","0","[1648.8999999761581]","1","2","","","1641","21","3","3","lose","go","0","0"
"pit-trial","85","833696","0.0-26.0","battery-v0.2","","""event"",""trial"",""time""
""fullscreenenter"",""1"",""2424""
","
","
","""event"",""trial"",""time""
""fullscreenenter"",""1"",""2424""
","
","","","858.7000000178814","","","12","1641","64","f","elianto","#3366ff99"," "," ","1","+10","[1709.5]","1","2","","","1641","22","2","1","win","go","0","0"
"pit-trial","86","838554","0.0-27.0","battery-v0.2","","""event"",""trial"",""time""
""fullscreenenter"",""1"",""2424""
","
","
","""event"",""trial"",""time""
""fullscreenenter"",""1"",""2424""
","
","","","-1","","","12","1641","64","n","elianto","#3366ff99","-1","-1","1","0","[]","0","2","","","1641","23","1","2","win","no-go","1","0"
"pit-trial","87","843408","0.0-28.0","battery-v0.2","","""event"",""trial"",""time""
""fullscreenenter"",""1"",""2424""
","
","
","""event"",""trial"",""time""
""fullscreenenter"",""1"",""2424""
","
","","","-1","","","12","1641","64","q","elianto","#3366ff99","-1","-1","1","+10","[]","0","2","","","1641","24","0","2","win","no-go","0","0"
"pit-trial","88","847617","0.0-29.0","battery-v0.2","","""event"",""trial"",""time""
""fullscreenenter"",""1"",""2424""
","
","
","""event"",""trial"",""time""
""fullscreenenter"",""1"",""2424""
","
","","","1355.5999999940395","","","12","1641","64","x","elianto","#f73b6a7A"," "," ","1","0","[2206.199999988079]","1","2","","","1641","25","3","3","lose","go","0","0"
"pit-trial","89","851759","0.0-30.0","battery-v0.2","","""event"",""trial"",""time""
""fullscreenenter"",""1"",""2424""
","
","
","""event"",""trial"",""time""
""fullscreenenter"",""1"",""2424""
","
","","","1290.2000000178814","","","12","1641","64","f","elianto","#3366ff99"," "," ","1","0","[2140.399999976158]","1","2","","","1641","26","2","1","win","go","1","0"
"pit-trial","90","855802","0.0-31.0","battery-v0.2","","""event"",""trial"",""time""
""fullscreenenter"",""1"",""2424""
","
","
","""event"",""trial"",""time""
""fullscreenenter"",""1"",""2424""
","
","","","1185.2999999821186","","","12","1641","64","q","elianto","#3366ff99","-1"," ","0","+10","[2036.699999988079]","1","2","","","1641","27","0","2","win","no-go","1","0"
"pit-trial","91","860662","0.0-32.0","battery-v0.2","","""event"",""trial"",""time""
""fullscreenenter"",""1"",""2424""
","
","
","""event"",""trial"",""time""
""fullscreenenter"",""1"",""2424""
","
","","","-1","","","12","1641","64","n","elianto","#3366ff99","-1","-1","1","+10","[]","0","2","","","1641","28","1","2","win","no-go","0","0"
"pit-trial","92","865521","0.0-33.0","battery-v0.2","","""event"",""trial"",""time""
""fullscreenenter"",""1"",""2424""
","
","
","""event"",""trial"",""time""
""fullscreenenter"",""1"",""2424""
","
","","","-1","","","12","1641","64","n","elianto","#3366ff99","-1","-1","1","+10","[]","0","2","","","1641","29","1","2","win","no-go","0","0"
"pit-trial","93","869115","0.0-34.0","battery-v0.2","","""event"",""trial"",""time""
""fullscreenenter"",""1"",""2424""
","
","
","""event"",""trial"",""time""
""fullscreenenter"",""1"",""2424""
","
","","","741.9000000059605","","","12","1641","64","x","elianto","#f73b6a7A"," "," ","1","0","[1592]","1","2","","","1641","30","3","3","lose","go","0","0"
"pit-trial","94","872982","0.0-35.0","battery-v0.2","","""event"",""trial"",""time""
""fullscreenenter"",""1"",""2424""
","
","
","""event"",""trial"",""time""
""fullscreenenter"",""1"",""2424""
","
","","","1012.8999999761581","","","12","1641","64","q","elianto","#3366ff99","-1"," ","0","0","[1863.5999999940395]","1","2","","","1641","31","0","2","win","no-go","0","0"
"pit-trial","95","876573","0.0-36.0","battery-v0.2","","""event"",""trial"",""time""
""fullscreenenter"",""1"",""2424""
","
","
","""event"",""trial"",""time""
""fullscreenenter"",""1"",""2424""
","
","","","735.0999999940395","","","12","1641","64","f","elianto","#3366ff99"," "," ","1","+10","[1585.7999999821186]","1","2","","","1641","32","2","1","win","go","0","0"
"pit-trial","96","880262","0.0-37.0","battery-v0.2","","""event"",""trial"",""time""
""fullscreenenter"",""1"",""2424""
","
","
","""event"",""trial"",""time""
""fullscreenenter"",""1"",""2424""
","
","","","834.4000000059605","","","12","1641","64","f","elianto","#3366ff99"," "," ","1","+10","[1685.7000000178814]","1","2","","","1641","33","2","1","win","go","0","0"
"pit-trial","97","885121","0.0-38.0","battery-v0.2","","""event"",""trial"",""time""
""fullscreenenter"",""1"",""2424""
","
","
","""event"",""trial"",""time""
""fullscreenenter"",""1"",""2424""
","
","","","-1","","","12","1641","64","n","elianto","#3366ff99","-1","-1","1","+10","[]","0","2","","","1641","34","1","2","win","no-go","0","0"
"pit-trial","98","888993","0.0-39.0","battery-v0.2","","""event"",""trial"",""time""
""fullscreenenter"",""1"",""2424""
","
","
","""event"",""trial"",""time""
""fullscreenenter"",""1"",""2424""
","
","","","1017.0999999940395","","","12","1641","64","q","elianto","#3366ff99","-1"," ","0","0","[1868.699999988079]","1","2","","","1641","35","0","2","win","no-go","0","0"
"pit-trial","99","893030","0.0-40.0","battery-v0.2","","""event"",""trial"",""time""
""fullscreenenter"",""1"",""2424""
","
","
","""event"",""trial"",""time""
""fullscreenenter"",""1"",""2424""
","
","","","1182.5999999940395","","","12","1641","64","x","elianto","#f73b6a7A"," "," ","1","-10","[2033.5999999940395]","1","2","","","1641","36","3","3","lose","go","1","0"
"pit-trial","100","896694","0.0-41.0","battery-v0.2","","""event"",""trial"",""time""
""fullscreenenter"",""1"",""2424""
","
","
","""event"",""trial"",""time""
""fullscreenenter"",""1"",""2424""
","
","","","811.4000000059605","","","12","1641","64","x","elianto","#f73b6a7A"," "," ","1","0","[1662]","1","2","","","1641","37","3","3","lose","go","0","0"
"pit-trial","101","900502","0.0-42.0","battery-v0.2","","""event"",""trial"",""time""
""fullscreenenter"",""1"",""2424""
","
","
","""event"",""trial"",""time""
""fullscreenenter"",""1"",""2424""
","
","","","953.3000000119209","","","12","1641","64","q","elianto","#3366ff99","-1"," ","0","0","[1804.300000011921]","1","2","","","1641","38","0","2","win","no-go","0","0"
"pit-trial","102","904059","0.0-43.0","battery-v0.2","","""event"",""trial"",""time""
""fullscreenenter"",""1"",""2424""
","
","
","""event"",""trial"",""time""
""fullscreenenter"",""1"",""2424""
","
","","","699.5999999940395","","","12","1641","64","f","elianto","#3366ff99"," "," ","1","0","[1550.9000000059605]","1","2","","","1641","39","2","1","win","go","1","0"
"pit-trial","103","908918","0.0-44.0","battery-v0.2","","""event"",""trial"",""time""
""fullscreenenter"",""1"",""2424""
","
","
","""event"",""trial"",""time""
""fullscreenenter"",""1"",""2424""
","
","","","-1","","","12","1641","64","n","elianto","#3366ff99","-1","-1","1","+10","[]","0","2","","","1641","40","1","2","win","no-go","0","0"
"pit-trial","104","912540","0.0-45.0","battery-v0.2","","""event"",""trial"",""time""
""fullscreenenter"",""1"",""2424""
","
","
","""event"",""trial"",""time""
""fullscreenenter"",""1"",""2424""
","
","","","765.1999999880791","","","12","1641","64","f","elianto","#3366ff99"," "," ","1","+10","[1616.5999999940395]","1","2","","","1641","41","2","1","win","go","0","0"
"pit-trial","105","916230","0.0-46.0","battery-v0.2","","""event"",""trial"",""time""
""fullscreenenter"",""1"",""2424""
","
","
","""event"",""trial"",""time""
""fullscreenenter"",""1"",""2424""
","
","","","832.8000000119209","","","12","1641","64","q","elianto","#3366ff99","-1"," ","0","+10","[1683.699999988079]","1","2","","","1641","42","0","2","win","no-go","1","0"
"pit-trial","106","920038","0.0-47.0","battery-v0.2","","""event"",""trial"",""time""
""fullscreenenter"",""1"",""2424""
","
","
","""event"",""trial"",""time""
""fullscreenenter"",""1"",""2424""
","
","","","952.2999999821186","","","12","1641","64","x","elianto","#f73b6a7A"," "," ","1","0","[1802.4000000059605]","1","2","","","1641","43","3","3","lose","go","0","0"
"pit-trial","107","924897","0.0-48.0","battery-v0.2","","""event"",""trial"",""time""
""fullscreenenter"",""1"",""2424""
","
","
","""event"",""trial"",""time""
""fullscreenenter"",""1"",""2424""
","
","","","-1","","","12","1641","64","n","elianto","#3366ff99","-1","-1","1","+10","[]","0","2","","","1641","44","1","2","win","no-go","0","0"
"pit-trial","108","929756","0.0-49.0","battery-v0.2","","""event"",""trial"",""time""
""fullscreenenter"",""1"",""2424""
","
","
","""event"",""trial"",""time""
""fullscreenenter"",""1"",""2424""
","
","","","-1","","","12","1641","64","n","elianto","#3366ff99","-1","-1","1","+10","[]","0","2","","","1641","45","1","2","win","no-go","0","0"
"pit-trial","109","933468","0.0-50.0","battery-v0.2","","""event"",""trial"",""time""
""fullscreenenter"",""1"",""2424""
","
","
","""event"",""trial"",""time""
""fullscreenenter"",""1"",""2424""
","
","","","855","","","12","1641","64","f","elianto","#3366ff99"," "," ","1","0","[1706.5999999940395]","1","2","","","1641","46","2","1","win","go","1","0"
"pit-trial","110","937788","0.0-51.0","battery-v0.2","","""event"",""trial"",""time""
""fullscreenenter"",""1"",""2424""
","
","
","""event"",""trial"",""time""
""fullscreenenter"",""1"",""2424""
","
","","","1464.5","","","12","1641","64","q","elianto","#3366ff99","-1"," ","0","0","[2314.9000000059605]","1","2","","","1641","47","0","2","win","no-go","0","0"
"pit-trial","111","941345","0.0-52.0","battery-v0.2","","""event"",""trial"",""time""
""fullscreenenter"",""1"",""2424""
","
","
","""event"",""trial"",""time""
""fullscreenenter"",""1"",""2424""
","
","","","700.8000000119209","","","12","1641","64","x","elianto","#f73b6a7A"," "," ","1","-10","[1552.300000011921]","1","2","","","1641","48","3","3","lose","go","1","0"
"pit-trial","112","944919","0.0-53.0","battery-v0.2","","""event"",""trial"",""time""
""fullscreenenter"",""1"",""2424""
","
","
","""event"",""trial"",""time""
""fullscreenenter"",""1"",""2424""
","
","","","718.5999999940395","","","12","1641","64","x","elianto","#f73b6a7A"," "," ","1","0","[1568.699999988079]","1","2","","","1641","49","3","3","lose","go","0","0"
"pit-trial","113","948465","0.0-54.0","battery-v0.2","","""event"",""trial"",""time""
""fullscreenenter"",""1"",""2424""
","
","
","""event"",""trial"",""time""
""fullscreenenter"",""1"",""2424""
","
","","","689.7000000178814","","","12","1641","64","f","elianto","#3366ff99"," "," ","1","+10","[1541.0999999940395]","1","2","","","1641","50","2","1","win","go","0","0"
"pit-trial","114","953322","0.0-55.0","battery-v0.2","","""event"",""trial"",""time""
""fullscreenenter"",""1"",""2424""
","
","
","""event"",""trial"",""time""
""fullscreenenter"",""1"",""2424""
","
","","","-1","","","12","1641","64","n","elianto","#3366ff99","-1","-1","1","+10","[]","0","2","","","1641","51","1","2","win","no-go","0","0"
"pit-trial","115","957111","0.0-56.0","battery-v0.2","","""event"",""trial"",""time""
""fullscreenenter"",""1"",""2424""
","
","
","""event"",""trial"",""time""
""fullscreenenter"",""1"",""2424""
","
","","","933.6000000238419","","","12","1641","64","q","elianto","#3366ff99","-1"," ","0","0","[1783.800000011921]","1","2","","","1641","52","0","2","win","no-go","0","0"
"pit-trial","116","961420","0.0-57.0","battery-v0.2","","""event"",""trial"",""time""
""fullscreenenter"",""1"",""2424""
","
","
","""event"",""trial"",""time""
""fullscreenenter"",""1"",""2424""
","
","","","1452.5","","","12","1641","64","f","elianto","#3366ff99"," "," ","1","0","[2302.5999999940395]","1","2","","","1641","53","2","1","win","go","1","0"
"pit-trial","117","966274","0.0-58.0","battery-v0.2","","""event"",""trial"",""time""
""fullscreenenter"",""1"",""2424""
","
","
","""event"",""trial"",""time""
""fullscreenenter"",""1"",""2424""
","
","","","-1","","","12","1641","64","t","elianto","#f73b6a7A","-1","-1","1","0","[]","0","2","","","1641","54","4","4","lose","no-go","0","0"
"pit-trial","118","970433","0.0-59.0","battery-v0.2","","""event"",""trial"",""time""
""fullscreenenter"",""1"",""2424""
","
","
","""event"",""trial"",""time""
""fullscreenenter"",""1"",""2424""
","
","","","1303.4000000059605","","","12","1641","64","b","elianto","#f73b6a7A"," "," ","1","0","[2154.7000000178814]","1","2","","","1641","55","5","3","lose","go","0","0"
"pit-trial","119","974817","0.0-60.0","battery-v0.2","","""event"",""trial"",""time""
""fullscreenenter"",""1"",""2424""
","
","
","""event"",""trial"",""time""
""fullscreenenter"",""1"",""2424""
","
","","","1530.2999999821186","","","12","1641","64","q","elianto","#3366ff99","-1"," ","0","0","[2380.5999999940395]","1","2","","","1641","56","0","2","win","no-go","0","0"
"pit-trial","120","979671","0.0-61.0","battery-v0.2","","""event"",""trial"",""time""
""fullscreenenter"",""1"",""2424""
","
","
","""event"",""trial"",""time""
""fullscreenenter"",""1"",""2424""
","
","","","-1","","","12","1641","64","t","elianto","#f73b6a7A","-1","-1","1","-10","[]","0","2","","","1641","57","4","4","lose","no-go","1","0"
"pit-trial","121","983324","0.0-62.0","battery-v0.2","","""event"",""trial"",""time""
""fullscreenenter"",""1"",""2424""
","
","
","""event"",""trial"",""time""
""fullscreenenter"",""1"",""2424""
","
","","","797","","","12","1641","64","q","elianto","#3366ff99","-1"," ","0","0","[1648.0999999940395]","1","2","","","1641","58","0","2","win","no-go","0","0"
"pit-trial","122","987564","0.0-63.0","battery-v0.2","","""event"",""trial"",""time""
""fullscreenenter"",""1"",""2424""
","
","
","""event"",""trial"",""time""
""fullscreenenter"",""1"",""2424""
","
","","","1385.2000000178814","","","12","1641","64","b","elianto","#f73b6a7A"," "," ","1","0","[2236.5]","1","2","","","1641","59","5","3","lose","go","0","0"
"pit-trial","123","991110","0.0-64.0","battery-v0.2","","""event"",""trial"",""time""
""fullscreenenter"",""1"",""2424""
","
","
","""event"",""trial"",""time""
""fullscreenenter"",""1"",""2424""
","
","","","693.3000000119209","","","12","1641","64","f","elianto","#3366ff99"," "," ","1","+10","[1543.9000000059605]","1","2","","","1641","60","2","1","win","go","0","0"
"pit-trial","124","994722","0.0-65.0","battery-v0.2","","""event"",""trial"",""time""
""fullscreenenter"",""1"",""2424""
","
","
","""event"",""trial"",""time""
""fullscreenenter"",""1"",""2424""
","
","","","758.3000000119209","","","12","1641","64","f","elianto","#3366ff99"," "," ","1","+10","[1608.800000011921]","1","2","","","1641","61","2","1","win","go","0","0"
"pit-trial","125","999164","0.0-66.0","battery-v0.2","","""event"",""trial"",""time""
""fullscreenenter"",""1"",""2424""
","
","
","""event"",""trial"",""time""
""fullscreenenter"",""1"",""2424""
","
","","","1586.4000000059605","","","12","1641","64","c","elianto","#3366ff99","-1"," ","0","0","[2438.0999999940395]","1","2","","","1641","62","6","2","win","no-go","0","0"
"pit-trial","126","1004023","0.0-67.0","battery-v0.2","","""event"",""trial"",""time""
""fullscreenenter"",""1"",""2424""
","
","
","""event"",""trial"",""time""
""fullscreenenter"",""1"",""2424""
","
","","","-1","","","12","1641","64","t","elianto","#f73b6a7A","-1","-1","1","0","[]","0","2","","","1641","63","4","4","lose","no-go","0","0"
"pit-trial","127","1007692","0.0-68.0","battery-v0.2","","""event"",""trial"",""time""
""fullscreenenter"",""1"",""2424""
","
","
","""event"",""trial"",""time""
""fullscreenenter"",""1"",""2424""
","
","","","812","","","12","1641","64","b","elianto","#f73b6a7A"," "," ","1","0","[1663.6000000238419]","1","2","","","1641","64","5","3","lose","go","0","0"
"pit-trial","128","1012551","0.0-69.0","battery-v0.2","","""event"",""trial"",""time""
""fullscreenenter"",""1"",""2424""
","
","
","""event"",""trial"",""time""
""fullscreenenter"",""1"",""2424""
","
","","","-1","","","12","1641","64","t","elianto","#f73b6a7A","-1","-1","1","-10","[]","0","2","","","1641","65","4","4","lose","no-go","1","0"
"pit-trial","129","1016263","0.0-70.0","battery-v0.2","","""event"",""trial"",""time""
""fullscreenenter"",""1"",""2424""
","
","
","""event"",""trial"",""time""
""fullscreenenter"",""1"",""2424""
","
","","","857","","","12","1641","64","b","elianto","#f73b6a7A"," "," ","1","0","[1708.5]","1","2","","","1641","66","5","3","lose","go","0","0"
"pit-trial","130","1020466","0.0-71.0","battery-v0.2","","""event"",""trial"",""time""
""fullscreenenter"",""1"",""2424""
","
","
","""event"",""trial"",""time""
""fullscreenenter"",""1"",""2424""
","
","","","1346.4000000059605","","","12","1641","64","c","elianto","#3366ff99","-1"," ","0","+10","[2196.699999988079]","1","2","","","1641","67","6","2","win","no-go","1","0"
"pit-trial","131","1024092","0.0-72.0","battery-v0.2","","""event"",""trial"",""time""
""fullscreenenter"",""1"",""2424""
","
","
","""event"",""trial"",""time""
""fullscreenenter"",""1"",""2424""
","
","","","773.5","","","12","1641","64","f","elianto","#3366ff99"," "," ","1","+10","[1623.7999999821186]","1","2","","","1641","68","2","1","win","go","0","0"
"pit-trial","132","1027586","0.0-73.0","battery-v0.2","","""event"",""trial"",""time""
""fullscreenenter"",""1"",""2424""
","
","
","""event"",""trial"",""time""
""fullscreenenter"",""1"",""2424""
","
","","","638.8000000119209","","","12","1641","64","c","elianto","#3366ff99","-1"," ","0","0","[1489.800000011921]","1","2","","","1641","69","6","2","win","no-go","0","0"
"pit-trial","133","1031517","0.0-74.0","battery-v0.2","","""event"",""trial"",""time""
""fullscreenenter"",""1"",""2424""
","
","
","""event"",""trial"",""time""
""fullscreenenter"",""1"",""2424""
","
","","","1072.5999999940395","","","12","1641","64","b","elianto","#f73b6a7A"," "," ","1","0","[1923.7999999821186]","1","2","","","1641","70","5","3","lose","go","0","0"
"pit-trial","134","1035965","0.0-75.0","battery-v0.2","","""event"",""trial"",""time""
""fullscreenenter"",""1"",""2424""
","
","
","""event"",""trial"",""time""
""fullscreenenter"",""1"",""2424""
","
","","","1591","","","12","1641","64","z","elianto","#f73b6a7A","-1"," ","0","-10","[2441.5]","1","2","","","1641","71","7","4","lose","no-go","0","0"
"pit-trial","135","1040823","0.0-76.0","battery-v0.2","","""event"",""trial"",""time""
""fullscreenenter"",""1"",""2424""
","
","
","""event"",""trial"",""time""
""fullscreenenter"",""1"",""2424""
","
","","","-1","","","12","1641","64","t","elianto","#f73b6a7A","-1","-1","1","0","[]","0","2","","","1641","72","4","4","lose","no-go","0","0"
"pit-trial","136","1045682","0.0-77.0","battery-v0.2","","""event"",""trial"",""time""
""fullscreenenter"",""1"",""2424""
","
","
","""event"",""trial"",""time""
""fullscreenenter"",""1"",""2424""
","
","","","-1","","","12","1641","64","t","elianto","#f73b6a7A","-1","-1","1","-10","[]","0","2","","","1641","73","4","4","lose","no-go","1","0"
"pit-trial","137","1049746","0.0-78.0","battery-v0.2","","""event"",""trial"",""time""
""fullscreenenter"",""1"",""2424""
","
","
","""event"",""trial"",""time""
""fullscreenenter"",""1"",""2424""
","
","","","1209.199999988079","","","12","1641","64","c","elianto","#3366ff99","-1"," ","0","0","[2059.5]","1","2","","","1641","74","6","2","win","no-go","0","0"
"pit-trial","138","1054604","0.0-79.0","battery-v0.2","","""event"",""trial"",""time""
""fullscreenenter"",""1"",""2424""
","
","
","""event"",""trial"",""time""
""fullscreenenter"",""1"",""2424""
","
","","","-1","","","12","1641","64","z","elianto","#f73b6a7A","-1","-1","1","0","[]","0","2","","","1641","75","7","4","lose","no-go","0","0"
"pit-trial","139","1058338","0.0-80.0","battery-v0.2","","""event"",""trial"",""time""
""fullscreenenter"",""1"",""2424""
","
","
","""event"",""trial"",""time""
""fullscreenenter"",""1"",""2424""
","
","","","877.2000000178814","","","12","1641","64","b","elianto","#f73b6a7A"," "," ","1","-10","[1729]","1","2","","","1641","76","5","3","lose","go","1","0"
"pit-trial","140","1063197","0.0-81.0","battery-v0.2","","""event"",""trial"",""time""
""fullscreenenter"",""1"",""2424""
","
","
","""event"",""trial"",""time""
""fullscreenenter"",""1"",""2424""
","
","","","-1","","","12","1641","64","z","elianto","#f73b6a7A","-1","-1","1","0","[]","0","2","","","1641","77","7","4","lose","no-go","0","0"
"pit-trial","141","1068056","0.0-82.0","battery-v0.2","","""event"",""trial"",""time""
""fullscreenenter"",""1"",""2424""
","
","
","""event"",""trial"",""time""
""fullscreenenter"",""1"",""2424""
","
","","","-1","","","12","1641","64","c","elianto","#3366ff99","-1","-1","1","+10","[]","0","2","","","1641","78","6","2","win","no-go","0","0"
"pit-trial","142","1072914","0.0-83.0","battery-v0.2","","""event"",""trial"",""time""
""fullscreenenter"",""1"",""2424""
","
","
","""event"",""trial"",""time""
""fullscreenenter"",""1"",""2424""
","
","","","-1","","","12","1641","64","t","elianto","#f73b6a7A","-1","-1","1","0","[]","0","2","","","1641","79","4","4","lose","no-go","0","0"
"pit-trial","143","1076589","0.0-84.0","battery-v0.2","","""event"",""trial"",""time""
""fullscreenenter"",""1"",""2424""
","
","
","""event"",""trial"",""time""
""fullscreenenter"",""1"",""2424""
","
","","","820.0999999940395","","","12","1641","64","b","elianto","#f73b6a7A"," "," ","1","0","[1670.7000000178814]","1","2","","","1641","80","5","3","lose","go","0","0"
"pit-trial","144","1081448","0.0-85.0","battery-v0.2","","""event"",""trial"",""time""
""fullscreenenter"",""1"",""2424""
","
","
","""event"",""trial"",""time""
""fullscreenenter"",""1"",""2424""
","
","","","-1","","","12","1641","64","t","elianto","#f73b6a7A","-1","-1","1","0","[]","0","2","","","1641","81","4","4","lose","no-go","0","0"
"pit-trial","145","1085085","0.0-86.0","battery-v0.2","","""event"",""trial"",""time""
""fullscreenenter"",""1"",""2424""
","
","
","""event"",""trial"",""time""
""fullscreenenter"",""1"",""2424""
","
","","","782.8000000119209","","","12","1641","64","b","elianto","#f73b6a7A"," "," ","1","0","[1633.7000000178814]","1","2","","","1641","82","5","3","lose","go","0","0"
"pit-trial","146","1089944","0.0-87.0","battery-v0.2","","""event"",""trial"",""time""
""fullscreenenter"",""1"",""2424""
","
","
","""event"",""trial"",""time""
""fullscreenenter"",""1"",""2424""
","
","","","-1","","","12","1641","64","z","elianto","#f73b6a7A","-1","-1","1","0","[]","0","2","","","1641","83","7","4","lose","no-go","0","0"
"pit-trial","147","1093555","0.0-88.0","battery-v0.2","","""event"",""trial"",""time""
""fullscreenenter"",""1"",""2424""
","
","
","""event"",""trial"",""time""
""fullscreenenter"",""1"",""2424""
","
","","","757.6999999880791","","","12","1641","64","c","elianto","#3366ff99","-1"," ","0","0","[1607.800000011921]","1","2","","","1641","84","6","2","win","no-go","0","0"
"pit-trial","148","1098413","0.0-89.0","battery-v0.2","","""event"",""trial"",""time""
""fullscreenenter"",""1"",""2424""
","
","
","""event"",""trial"",""time""
""fullscreenenter"",""1"",""2424""
","
","","","-1","","","12","1641","64","c","elianto","#3366ff99","-1","-1","1","+10","[]","0","2","","","1641","85","6","2","win","no-go","0","0"
"pit-trial","149","1103270","0.0-90.0","battery-v0.2","","""event"",""trial"",""time""
""fullscreenenter"",""1"",""2424""
","
","
","""event"",""trial"",""time""
""fullscreenenter"",""1"",""2424""
","
","","","-1","","","12","1641","64","z","elianto","#f73b6a7A","-1","-1","1","0","[]","0","2","","","1641","86","7","4","lose","no-go","0","0"
"pit-trial","150","1107133","0.0-91.0","battery-v0.2","","""event"",""trial"",""time""
""fullscreenenter"",""1"",""2424""
","
","
","""event"",""trial"",""time""
""fullscreenenter"",""1"",""2424""
","
","","","1009.5","","","12","1641","64","b","elianto","#f73b6a7A"," "," ","1","0","[1860.4000000059605]","1","2","","","1641","87","5","3","lose","go","0","0"
"pit-trial","151","1111986","0.0-92.0","battery-v0.2","","""event"",""trial"",""time""
""fullscreenenter"",""1"",""2424""
","
","
","""event"",""trial"",""time""
""fullscreenenter"",""1"",""2424""
","
","","","-1","","","12","1641","64","t","elianto","#f73b6a7A","-1","-1","1","0","[]","0","2","","","1641","88","4","4","lose","no-go","0","0"
"pit-trial","152","1116840","0.0-93.0","battery-v0.2","","""event"",""trial"",""time""
""fullscreenenter"",""1"",""2424""
","
","
","""event"",""trial"",""time""
""fullscreenenter"",""1"",""2424""
","
","","","-1","","","12","1641","64","z","elianto","#f73b6a7A","-1","-1","1","0","[]","0","2","","","1641","89","7","4","lose","no-go","0","0"
"pit-trial","153","1121698","0.0-94.0","battery-v0.2","","""event"",""trial"",""time""
""fullscreenenter"",""1"",""2424""
","
","
","""event"",""trial"",""time""
""fullscreenenter"",""1"",""2424""
","
","","","-1","","","12","1641","64","t","elianto","#f73b6a7A","-1","-1","1","0","[]","0","2","","","1641","90","4","4","lose","no-go","0","0"
"pit-trial","154","1125389","0.0-95.0","battery-v0.2","","""event"",""trial"",""time""
""fullscreenenter"",""1"",""2424""
","
","
","""event"",""trial"",""time""
""fullscreenenter"",""1"",""2424""
","
","","","838.0999999940395","","","12","1641","64","b","elianto","#f73b6a7A"," "," ","1","0","[1689]","1","2","","","1641","91","5","3","lose","go","0","0"
"pit-trial","155","1128941","0.0-96.0","battery-v0.2","","""event"",""trial"",""time""
""fullscreenenter"",""1"",""2424""
","
","
","""event"",""trial"",""time""
""fullscreenenter"",""1"",""2424""
","
","","","694.2999999821186","","","12","1641","64","c","elianto","#3366ff99","-1"," ","0","0","[1546]","1","2","","","1641","92","6","2","win","no-go","0","0"
"pit-trial","156","1133800","0.0-97.0","battery-v0.2","","""event"",""trial"",""time""
""fullscreenenter"",""1"",""2424""
","
","
","""event"",""trial"",""time""
""fullscreenenter"",""1"",""2424""
","
","","","-1","","","12","1641","64","z","elianto","#f73b6a7A","-1","-1","1","0","[]","0","2","","","1641","93","7","4","lose","no-go","0","0"
"pit-trial","157","1138659","0.0-98.0","battery-v0.2","","""event"",""trial"",""time""
""fullscreenenter"",""1"",""2424""
","
","
","""event"",""trial"",""time""
""fullscreenenter"",""1"",""2424""
","
","","","-1","","","12","1641","64","b","elianto","#f73b6a7A"," ","-1","0","-10","[]","0","2","","","1641","94","5","3","lose","go","0","0"
"pit-trial","158","1143517","0.0-99.0","battery-v0.2","","""event"",""trial"",""time""
""fullscreenenter"",""1"",""2424""
","
","
","""event"",""trial"",""time""
""fullscreenenter"",""1"",""2424""
","
","","","-1","","","12","1641","64","h","elianto","#f73b6a7A","-1","-1","1","0","[]","0","2","","","1641","95","8","4","lose","no-go","0","0"
"pit-trial","159","1148376","0.0-100.0","battery-v0.2","","""event"",""trial"",""time""
""fullscreenenter"",""1"",""2424""
","
","
","""event"",""trial"",""time""
""fullscreenenter"",""1"",""2424""
","
","","","-1","","","12","1641","64","c","elianto","#3366ff99","-1","-1","1","+10","[]","0","2","","","1641","96","6","2","win","no-go","0","0"
"pit-trial","160","1153235","0.0-101.0","battery-v0.2","","""event"",""trial"",""time""
""fullscreenenter"",""1"",""2424""
","
","
","""event"",""trial"",""time""
""fullscreenenter"",""1"",""2424""
","
","","","-1","","","12","1641","64","h","elianto","#f73b6a7A","-1","-1","1","-10","[]","0","2","","","1641","97","8","4","lose","no-go","1","0"
"pit-trial","161","1158093","0.0-102.0","battery-v0.2","","""event"",""trial"",""time""
""fullscreenenter"",""1"",""2424""
","
","
","""event"",""trial"",""time""
""fullscreenenter"",""1"",""2424""
","
","","","-1","","","12","1641","64","z","elianto","#f73b6a7A","-1","-1","1","-10","[]","0","2","","","1641","98","7","4","lose","no-go","1","0"
"pit-trial","162","1161923","0.0-103.0","battery-v0.2","","""event"",""trial"",""time""
""fullscreenenter"",""1"",""2424""
","
","
","""event"",""trial"",""time""
""fullscreenenter"",""1"",""2424""
","
","","","976.4000000059605","","","12","1641","64","b","elianto","#f73b6a7A"," "," ","1","0","[1827]","1","2","","","1641","99","5","3","lose","go","0","0"
"pit-trial","163","1166781","0.0-104.0","battery-v0.2","","""event"",""trial"",""time""
""fullscreenenter"",""1"",""2424""
","
","
","""event"",""trial"",""time""
""fullscreenenter"",""1"",""2424""
","
","","","-1","","","12","1641","64","c","elianto","#3366ff99","-1","-1","1","+10","[]","0","2","","","1641","100","6","2","win","no-go","0","0"
"pit-trial","164","1171640","0.0-105.0","battery-v0.2","","""event"",""trial"",""time""
""fullscreenenter"",""1"",""2424""
","
","
","""event"",""trial"",""time""
""fullscreenenter"",""1"",""2424""
","
","","","-1","","","12","1641","64","y","elianto","#3366ff99"," ","-1","0","0","[]","0","2","","","1641","101","9","1","win","go","0","0"
"pit-trial","165","1176499","0.0-106.0","battery-v0.2","","""event"",""trial"",""time""
""fullscreenenter"",""1"",""2424""
","
","
","""event"",""trial"",""time""
""fullscreenenter"",""1"",""2424""
","
","","","-1","","","12","1641","64","c","elianto","#3366ff99","-1","-1","1","+10","[]","0","2","","","1641","102","6","2","win","no-go","0","0"
"pit-trial","166","1180611","0.0-107.0","battery-v0.2","","""event"",""trial"",""time""
""fullscreenenter"",""1"",""2424""
","
","
","""event"",""trial"",""time""
""fullscreenenter"",""1"",""2424""
","
","","","1256.7000000178814","","","12","1641","64","h","elianto","#f73b6a7A","-1"," ","0","-10","[2107]","1","2","","","1641","103","8","4","lose","no-go","0","0"
"pit-trial","167","1185469","0.0-108.0","battery-v0.2","","""event"",""trial"",""time""
""fullscreenenter"",""1"",""2424""
","
","
","""event"",""trial"",""time""
""fullscreenenter"",""1"",""2424""
","
","","","-1","","","12","1641","64","r","elianto","#f73b6a7A"," ","-1","0","-10","[]","0","2","","","1641","104","10","3","lose","go","0","0"
"pit-trial","168","1189571","0.0-109.0","battery-v0.2","","""event"",""trial"",""time""
""fullscreenenter"",""1"",""2424""
","
","
","""event"",""trial"",""time""
""fullscreenenter"",""1"",""2424""
","
","","","1247.2000000178814","","","12","1641","64","h","elianto","#f73b6a7A","-1"," ","0","-10","[2099.2000000178814]","1","2","","","1641","105","8","4","lose","no-go","0","0"
"pit-trial","169","1194430","0.0-110.0","battery-v0.2","","""event"",""trial"",""time""
""fullscreenenter"",""1"",""2424""
","
","
","""event"",""trial"",""time""
""fullscreenenter"",""1"",""2424""
","
","","","-1","","","12","1641","64","y","elianto","#3366ff99"," ","-1","0","0","[3160.2999999821186]","1","2","","","1641","106","9","1","win","go","0","0"
"pit-trial","170","1199081","0.0-111.0","battery-v0.2","","""event"",""trial"",""time""
""fullscreenenter"",""1"",""2424""
","
","
","""event"",""trial"",""time""
""fullscreenenter"",""1"",""2424""
","
","","","1794.7999999821186","","","12","1641","64","r","elianto","#f73b6a7A"," "," ","1","-10","[2645.5999999940395]","1","2","","","1641","107","10","3","lose","go","1","0"
"pit-trial","171","1203939","0.0-112.0","battery-v0.2","","""event"",""trial"",""time""
""fullscreenenter"",""1"",""2424""
","
","
","""event"",""trial"",""time""
""fullscreenenter"",""1"",""2424""
","
","","","-1","","","12","1641","64","c","elianto","#3366ff99","-1","-1","1","+10","[]","0","2","","","1641","108","6","2","win","no-go","0","0"
"pit-trial","172","1208798","0.0-113.0","battery-v0.2","","""event"",""trial"",""time""
""fullscreenenter"",""1"",""2424""
","
","
","""event"",""trial"",""time""
""fullscreenenter"",""1"",""2424""
","
","","","-1","","","12","1641","64","m","elianto","#3366ff99"," ","-1","0","0","[]","0","2","","","1641","109","11","1","win","go","0","0"
"pit-trial","173","1213657","0.0-114.0","battery-v0.2","","""event"",""trial"",""time""
""fullscreenenter"",""1"",""2424""
","
","
","""event"",""trial"",""time""
""fullscreenenter"",""1"",""2424""
","
","","","-1","","","12","1641","64","h","elianto","#f73b6a7A","-1","-1","1","-10","[]","0","2","","","1641","110","8","4","lose","no-go","1","0"
"pit-trial","174","1217699","0.0-115.0","battery-v0.2","","""event"",""trial"",""time""
""fullscreenenter"",""1"",""2424""
","
","
","""event"",""trial"",""time""
""fullscreenenter"",""1"",""2424""
","
","","","1184.9000000059605","","","12","1641","64","y","elianto","#3366ff99"," "," ","1","+10","[2036.6000000238419]","1","2","","","1641","111","9","1","win","go","0","0"
"pit-trial","175","1222126","0.0-116.0","battery-v0.2","","""event"",""trial"",""time""
""fullscreenenter"",""1"",""2424""
","
","
","""event"",""trial"",""time""
""fullscreenenter"",""1"",""2424""
","
","","","1568.6000000238419","","","12","1641","64","r","elianto","#f73b6a7A"," "," ","1","-10","[2420.300000011921]","1","2","","","1641","112","10","3","lose","go","1","0"
"pit-trial","176","1226985","0.0-117.0","battery-v0.2","","""event"",""trial"",""time""
""fullscreenenter"",""1"",""2424""
","
","
","""event"",""trial"",""time""
""fullscreenenter"",""1"",""2424""
","
","","","-1","","","12","1641","64","r","elianto","#f73b6a7A"," ","-1","0","-10","[]","0","2","","","1641","113","10","3","lose","go","0","0"
"pit-trial","177","1231844","0.0-118.0","battery-v0.2","","""event"",""trial"",""time""
""fullscreenenter"",""1"",""2424""
","
","
","""event"",""trial"",""time""
""fullscreenenter"",""1"",""2424""
","
","","","-1","","","12","1641","64","m","elianto","#3366ff99"," ","-1","0","0","[]","0","2","","","1641","114","11","1","win","go","0","0"
"pit-trial","178","1235588","0.0-119.0","battery-v0.2","","""event"",""trial"",""time""
""fullscreenenter"",""1"",""2424""
","
","
","""event"",""trial"",""time""
""fullscreenenter"",""1"",""2424""
","
","","","886.6000000238419","","","12","1641","64","y","elianto","#3366ff99"," "," ","1","+10","[1736.7000000178814]","1","2","","","1641","115","9","1","win","go","0","0"
"pit-trial","179","1240446","0.0-120.0","battery-v0.2","","""event"",""trial"",""time""
""fullscreenenter"",""1"",""2424""
","
","
","""event"",""trial"",""time""
""fullscreenenter"",""1"",""2424""
","
","","","-1","","","12","1641","64","h","elianto","#f73b6a7A","-1","-1","1","0","[]","0","2","","","1641","116","8","4","lose","no-go","0","0"
"pit-trial","180","1244035","0.0-121.0","battery-v0.2","","""event"",""trial"",""time""
""fullscreenenter"",""1"",""2424""
","
","
","""event"",""trial"",""time""
""fullscreenenter"",""1"",""2424""
","
","","","736.0999999940395","","","12","1641","64","h","elianto","#f73b6a7A","-1"," ","0","0","[1586.800000011921]","1","2","","","1641","117","8","4","lose","no-go","1","0"
"pit-trial","181","1247870","0.0-122.0","battery-v0.2","","""event"",""trial"",""time""
""fullscreenenter"",""1"",""2424""
","
","
","""event"",""trial"",""time""
""fullscreenenter"",""1"",""2424""
","
","","","979.2999999821186","","","12","1641","64","y","elianto","#3366ff99"," "," ","1","0","[1831.199999988079]","1","2","","","1641","118","9","1","win","go","1","0"
"pit-trial","182","1252729","0.0-123.0","battery-v0.2","","""event"",""trial"",""time""
""fullscreenenter"",""1"",""2424""
","
","
","""event"",""trial"",""time""
""fullscreenenter"",""1"",""2424""
","
","","","-1","","","12","1641","64","r","elianto","#f73b6a7A"," ","-1","0","-10","[]","0","2","","","1641","119","10","3","lose","go","0","0"
"pit-trial","183","1256985","0.0-124.0","battery-v0.2","","""event"",""trial"",""time""
""fullscreenenter"",""1"",""2424""
","
","
","""event"",""trial"",""time""
""fullscreenenter"",""1"",""2424""
","
","","","1400.800000011921","","","12","1641","64","m","elianto","#3366ff99"," "," ","1","+10","[2251.2000000178814]","1","2","","","1641","120","11","1","win","go","0","0"
"pit-trial","184","1261844","0.0-125.0","battery-v0.2","","""event"",""trial"",""time""
""fullscreenenter"",""1"",""2424""
","
","
","""event"",""trial"",""time""
""fullscreenenter"",""1"",""2424""
","
","","","-1","","","12","1641","64","r","elianto","#f73b6a7A"," ","-1","0","-10","[]","0","2","","","1641","121","10","3","lose","go","0","0"
"pit-trial","185","1266702","0.0-126.0","battery-v0.2","","""event"",""trial"",""time""
""fullscreenenter"",""1"",""2424""
","
","
","""event"",""trial"",""time""
""fullscreenenter"",""1"",""2424""
","
","","","-1","","","12","1641","64","h","elianto","#f73b6a7A","-1","-1","1","0","[2898.7999999821186]","1","2","","","1641","122","8","4","lose","no-go","0","0"
"pit-trial","186","1270345","0.0-127.0","battery-v0.2","","""event"",""trial"",""time""
""fullscreenenter"",""1"",""2424""
","
","
","""event"",""trial"",""time""
""fullscreenenter"",""1"",""2424""
","
","","","788.5999999940395","","","12","1641","64","y","elianto","#3366ff99"," "," ","1","+10","[1640.199999988079]","1","2","","","1641","123","9","1","win","go","0","0"
"pit-trial","187","1274676","0.0-128.0","battery-v0.2","","""event"",""trial"",""time""
""fullscreenenter"",""1"",""2424""
","
","
","""event"",""trial"",""time""
""fullscreenenter"",""1"",""2424""
","
","","","1474.800000011921","","","12","1641","64","m","elianto","#3366ff99"," "," ","1","0","[2325.300000011921]","1","2","","","1641","124","11","1","win","go","1","0"
"pit-trial","188","1278309","0.0-129.0","battery-v0.2","","""event"",""trial"",""time""
""fullscreenenter"",""1"",""2424""
","
","
","""event"",""trial"",""time""
""fullscreenenter"",""1"",""2424""
","
","","","777.1999999880791","","","12","1641","64","y","elianto","#3366ff99"," "," ","1","0","[1628.199999988079]","1","2","","","1641","125","9","1","win","go","1","0"
"pit-trial","189","1281865","0.0-130.0","battery-v0.2","","""event"",""trial"",""time""
""fullscreenenter"",""1"",""2424""
","
","
","""event"",""trial"",""time""
""fullscreenenter"",""1"",""2424""
","
","","","701.7000000178814","","","12","1641","64","m","elianto","#3366ff99"," "," ","1","+10","[1552.7000000178814]","1","2","","","1641","126","11","1","win","go","0","0"
"pit-trial","190","1285977","0.0-131.0","battery-v0.2","","""event"",""trial"",""time""
""fullscreenenter"",""1"",""2424""
","
","
","""event"",""trial"",""time""
""fullscreenenter"",""1"",""2424""
","
","","","1258.2999999821186","","","12","1641","64","h","elianto","#f73b6a7A","-1"," ","0","-10","[2108.5]","1","2","","","1641","127","8","4","lose","no-go","0","0"
"pit-trial","191","1290836","0.0-132.0","battery-v0.2","","""event"",""trial"",""time""
""fullscreenenter"",""1"",""2424""
","
","
","""event"",""trial"",""time""
""fullscreenenter"",""1"",""2424""
","
","","","-1","","","12","1641","64","r","elianto","#f73b6a7A"," ","-1","0","-10","[]","0","2","","","1641","128","10","3","lose","go","0","0"
"pit-trial","192","1294565","0.0-133.0","battery-v0.2","","""event"",""trial"",""time""
""fullscreenenter"",""1"",""2424""
","
","
","""event"",""trial"",""time""
""fullscreenenter"",""1"",""2424""
","
","","","870.6999999880791","","","12","1641","64","y","elianto","#3366ff99"," "," ","1","+10","[1722.2999999821186]","1","2","","","1641","129","9","1","win","go","0","0"
"pit-trial","193","1299289","0.0-134.0","battery-v0.2","","""event"",""trial"",""time""
""fullscreenenter"",""1"",""2424""
","
","
","""event"",""trial"",""time""
""fullscreenenter"",""1"",""2424""
","
","","","1867.300000011921","","","12","1641","64","h","elianto","#f73b6a7A","-1"," ","0","-10","[2717.9000000059605]","1","2","","","1641","130","8","4","lose","no-go","0","0"
"pit-trial","194","1302969","0.0-135.0","battery-v0.2","","""event"",""trial"",""time""
""fullscreenenter"",""1"",""2424""
","
","
","""event"",""trial"",""time""
""fullscreenenter"",""1"",""2424""
","
","","","822","","","12","1641","64","r","elianto","#f73b6a7A"," "," ","1","0","[1673.4000000059605]","1","2","","","1641","131","10","3","lose","go","0","0"
"pit-trial","195","1306735","0.0-136.0","battery-v0.2","","""event"",""trial"",""time""
""fullscreenenter"",""1"",""2424""
","
","
","""event"",""trial"",""time""
""fullscreenenter"",""1"",""2424""
","
","","","911.1999999880791","","","12","1641","64","m","elianto","#3366ff99"," "," ","1","+10","[1762.800000011921]","1","2","","","1641","132","11","1","win","go","0","0"
"pit-trial","196","1311593","0.0-137.0","battery-v0.2","","""event"",""trial"",""time""
""fullscreenenter"",""1"",""2424""
","
","
","""event"",""trial"",""time""
""fullscreenenter"",""1"",""2424""
","
","","","-1","","","12","1641","64","r","elianto","#f73b6a7A"," ","-1","0","-10","[]","0","2","","","1641","133","10","3","lose","go","0","0"
"pit-trial","197","1315130","0.0-138.0","battery-v0.2","","""event"",""trial"",""time""
""fullscreenenter"",""1"",""2424""
","
","
","""event"",""trial"",""time""
""fullscreenenter"",""1"",""2424""
","
","","","683.5","","","12","1641","64","m","elianto","#3366ff99"," "," ","1","0","[1533.5]","1","2","","","1641","134","11","1","win","go","1","0"
"pit-trial","198","1319096","0.0-139.0","battery-v0.2","","""event"",""trial"",""time""
""fullscreenenter"",""1"",""2424""
","
","
","""event"",""trial"",""time""
""fullscreenenter"",""1"",""2424""
","
","","","1112.699999988079","","","12","1641","64","h","elianto","#f73b6a7A","-1"," ","0","-10","[1963.0999999940395]","1","2","","","1641","135","8","4","lose","no-go","0","0"
"pit-trial","199","1322591","0.0-140.0","battery-v0.2","","""event"",""trial"",""time""
""fullscreenenter"",""1"",""2424""
","
","
","""event"",""trial"",""time""
""fullscreenenter"",""1"",""2424""
","
","","","638.0999999940395","","","12","1641","64","y","elianto","#3366ff99"," "," ","1","+10","[1488.5999999940395]","1","2","","","1641","136","9","1","win","go","0","0"
"pit-trial","200","1326425","0.0-141.0","battery-v0.2","","""event"",""trial"",""time""
""fullscreenenter"",""1"",""2424""
","
","
","""event"",""trial"",""time""
""fullscreenenter"",""1"",""2424""
","
","","","975.6000000238419","","","12","1641","64","r","elianto","#f73b6a7A"," "," ","1","0","[1828.0999999940395]","1","2","","","1641","137","10","3","lose","go","0","0"
"pit-trial","201","1329956","0.0-142.0","battery-v0.2","","""event"",""trial"",""time""
""fullscreenenter"",""1"",""2424""
","
","
","""event"",""trial"",""time""
""fullscreenenter"",""1"",""2424""
","
","","","678.5","","","12","1641","64","h","elianto","#f73b6a7A","-1"," ","0","-10","[1528.5999999940395]","1","2","","","1641","138","8","4","lose","no-go","0","0"
"pit-trial","202","1333652","0.0-143.0","battery-v0.2","","""event"",""trial"",""time""
""fullscreenenter"",""1"",""2424""
","
","
","""event"",""trial"",""time""
""fullscreenenter"",""1"",""2424""
","
","","","839.5","","","12","1641","64","y","elianto","#3366ff99"," "," ","1","0","[1692]","1","2","","","1641","139","9","1","win","go","1","0"
"pit-trial","203","1337263","0.0-144.0","battery-v0.2","","""event"",""trial"",""time""
""fullscreenenter"",""1"",""2424""
","
","
","""event"",""trial"",""time""
""fullscreenenter"",""1"",""2424""
","
","","","752.3000000119209","","","12","1641","64","m","elianto","#3366ff99"," "," ","1","+10","[1604.1000000238419]","1","2","","","1641","140","11","1","win","go","0","0"
"pit-instructions","204","1367957","0.0-145.0","battery-v0.2","","""event"",""trial"",""time""
""fullscreenenter"",""1"",""2424""
","
","
","""event"",""trial"",""time""
""fullscreenenter"",""1"",""2424""
","
","","[{""page_index"":0,""viewing_time"":11693.800000011921},{""page_index"":1,""viewing_time"":3482.5},{""page_index"":0,""viewing_time"":5650},{""page_index"":1,""viewing_time"":1250.199999988079},{""page_index"":0,""viewing_time"":5582.4000000059605},{""page_index"":1,""viewing_time"":3033.199999988079}]","30692.40000000596","","","","","","","","","","","","","","","","","","","","","","","","",""
"pit-trial","205","1372016","0.0-146.0","battery-v0.2","","""event"",""trial"",""time""
""fullscreenenter"",""1"",""2424""
","
","
","""event"",""trial"",""time""
""fullscreenenter"",""1"",""2424""
","
","","","1202.5999999940395","","","12","1641","64","v","elianto","#3366ff99","-1"," ","0","0","[2052.699999988079]","1","3","","","1641","141","0","2","win","no-go","0","0"
"pit-trial","206","1376878","0.0-147.0","battery-v0.2","","""event"",""trial"",""time""
""fullscreenenter"",""1"",""2424""
","
","
","""event"",""trial"",""time""
""fullscreenenter"",""1"",""2424""
","
","","","-1","","","12","1641","64","j","elianto","#f73b6a7A"," ","-1","0","-10","[]","0","3","","","1641","142","1","3","lose","go","0","0"
"pit-trial","207","1381736","0.0-148.0","battery-v0.2","","""event"",""trial"",""time""
""fullscreenenter"",""1"",""2424""
","
","
","""event"",""trial"",""time""
""fullscreenenter"",""1"",""2424""
","
","","","-1","","","12","1641","64","k","elianto","#3366ff99"," ","-1","0","0","[2870.2999999821186]","1","3","","","1641","143","3","1","win","go","0","0"
"pit-trial","208","1386597","0.0-149.0","battery-v0.2","","""event"",""trial"",""time""
""fullscreenenter"",""1"",""2424""
","
","
","""event"",""trial"",""time""
""fullscreenenter"",""1"",""2424""
","
","","","-1","","","12","1641","64","d","elianto","#f73b6a7A","-1","-1","1","0","[]","0","3","","","1641","144","2","4","lose","no-go","0","0"
"pit-trial","209","1390533","0.0-150.0","battery-v0.2","","""event"",""trial"",""time""
""fullscreenenter"",""1"",""2424""
","
","
","""event"",""trial"",""time""
""fullscreenenter"",""1"",""2424""
","
","","","1077.699999988079","","","12","1641","64","j","elianto","#f73b6a7A"," "," ","1","0","[1928.5999999940395]","1","3","","","1641","145","1","3","lose","go","0","0"
"pit-trial","210","1394382","0.0-151.0","battery-v0.2","","""event"",""trial"",""time""
""fullscreenenter"",""1"",""2424""
","
","
","""event"",""trial"",""time""
""fullscreenenter"",""1"",""2424""
","
","","","995","","","12","1641","64","k","elianto","#3366ff99"," "," ","1","+10","[1845.4000000059605]","1","3","","","1641","146","3","1","win","go","0","0"
"pit-trial","211","1398573","0.0-152.0","battery-v0.2","","""event"",""trial"",""time""
""fullscreenenter"",""1"",""2424""
","
","
","""event"",""trial"",""time""
""fullscreenenter"",""1"",""2424""
","
","","","1334.199999988079","","","12","1641","64","v","elianto","#3366ff99","-1"," ","0","0","[2184.7999999821186]","1","3","","","1641","147","0","2","win","no-go","0","0"
"pit-trial","212","1403281","0.0-153.0","battery-v0.2","","""event"",""trial"",""time""
""fullscreenenter"",""1"",""2424""
","
","
","""event"",""trial"",""time""
""fullscreenenter"",""1"",""2424""
","
","","","1854.5","","","12","1641","64","d","elianto","#f73b6a7A","-1"," ","0","-10","[2704.7999999821186]","1","3","","","1641","148","2","4","lose","no-go","0","0"
"pit-trial","213","1408140","0.0-154.0","battery-v0.2","","""event"",""trial"",""time""
""fullscreenenter"",""1"",""2424""
","
","
","""event"",""trial"",""time""
""fullscreenenter"",""1"",""2424""
","
","","","-1","","","12","1641","64","d","elianto","#f73b6a7A","-1","-1","1","0","[]","0","3","","","1641","149","2","4","lose","no-go","0","0"
"pit-trial","214","1412998","0.0-155.0","battery-v0.2","","""event"",""trial"",""time""
""fullscreenenter"",""1"",""2424""
","
","
","""event"",""trial"",""time""
""fullscreenenter"",""1"",""2424""
","
","","","-1","","","12","1641","64","v","elianto","#3366ff99","-1","-1","1","+10","[]","0","3","","","1641","150","0","2","win","no-go","0","0"
"pit-trial","215","1416976","0.0-156.0","battery-v0.2","","""event"",""trial"",""time""
""fullscreenenter"",""1"",""2424""
","
","
","""event"",""trial"",""time""
""fullscreenenter"",""1"",""2424""
","
","","","1122.5999999940395","","","12","1641","64","k","elianto","#3366ff99"," "," ","1","0","[1973.9000000059605]","1","3","","","1641","151","3","1","win","go","1","0"
"pit-trial","216","1420495","0.0-157.0","battery-v0.2","","""event"",""trial"",""time""
""fullscreenenter"",""1"",""2424""
","
","
","""event"",""trial"",""time""
""fullscreenenter"",""1"",""2424""
","
","","","666.9000000059605","","","12","1641","64","j","elianto","#f73b6a7A"," "," ","1","-10","[1517.7000000178814]","1","3","","","1641","152","1","3","lose","go","1","0"
"pit-trial","217","1425354","0.0-158.0","battery-v0.2","","""event"",""trial"",""time""
""fullscreenenter"",""1"",""2424""
","
","
","""event"",""trial"",""time""
""fullscreenenter"",""1"",""2424""
","
","","","-1","","","12","1641","64","v","elianto","#3366ff99","-1","-1","1","0","[]","0","3","","","1641","153","0","2","win","no-go","1","0"
"pit-trial","218","1430211","0.0-159.0","battery-v0.2","","""event"",""trial"",""time""
""fullscreenenter"",""1"",""2424""
","
","
","""event"",""trial"",""time""
""fullscreenenter"",""1"",""2424""
","
","","","-1","","","12","1641","64","d","elianto","#f73b6a7A","-1","-1","1","0","[]","0","3","","","1641","154","2","4","lose","no-go","0","0"
"pit-trial","219","1434118","0.0-160.0","battery-v0.2","","""event"",""trial"",""time""
""fullscreenenter"",""1"",""2424""
","
","
","""event"",""trial"",""time""
""fullscreenenter"",""1"",""2424""
","
","","","1052.9000000059605","","","12","1641","64","k","elianto","#3366ff99"," "," ","1","+10","[1903.5]","1","3","","","1641","155","3","1","win","go","0","0"
"pit-trial","220","1438036","0.0-161.0","battery-v0.2","","""event"",""trial"",""time""
""fullscreenenter"",""1"",""2424""
","
","
","""event"",""trial"",""time""
""fullscreenenter"",""1"",""2424""
","
","","","1064.5","","","12","1641","64","j","elianto","#f73b6a7A"," "," ","1","0","[1914.800000011921]","1","3","","","1641","156","1","3","lose","go","0","0"
"pit-trial","221","1441540","0.0-162.0","battery-v0.2","","""event"",""trial"",""time""
""fullscreenenter"",""1"",""2424""
","
","
","""event"",""trial"",""time""
""fullscreenenter"",""1"",""2424""
","
","","","647.4000000059605","","","12","1641","64","j","elianto","#f73b6a7A"," "," ","1","-10","[1498.5999999940395]","1","3","","","1641","157","1","3","lose","go","1","0"
"pit-trial","222","1446399","0.0-163.0","battery-v0.2","","""event"",""trial"",""time""
""fullscreenenter"",""1"",""2424""
","
","
","""event"",""trial"",""time""
""fullscreenenter"",""1"",""2424""
","
","","","-1","","","12","1641","64","v","elianto","#3366ff99","-1","-1","1","+10","[]","0","3","","","1641","158","0","2","win","no-go","0","0"
"pit-trial","223","1450665","0.0-164.0","battery-v0.2","","""event"",""trial"",""time""
""fullscreenenter"",""1"",""2424""
","
","
","""event"",""trial"",""time""
""fullscreenenter"",""1"",""2424""
","
","","","1412.1000000238419","","","12","1641","64","k","elianto","#3366ff99"," "," ","1","+10","[2263.800000011921]","1","3","","","1641","159","3","1","win","go","0","0"
"pit-trial","224","1455524","0.0-165.0","battery-v0.2","","""event"",""trial"",""time""
""fullscreenenter"",""1"",""2424""
","
","
","""event"",""trial"",""time""
""fullscreenenter"",""1"",""2424""
","
","","","-1","","","12","1641","64","d","elianto","#f73b6a7A","-1","-1","1","0","[]","0","3","","","1641","160","2","4","lose","no-go","0","0"
"pit-trial","225","1459391","0.0-166.0","battery-v0.2","","""event"",""trial"",""time""
""fullscreenenter"",""1"",""2424""
","
","
","""event"",""trial"",""time""
""fullscreenenter"",""1"",""2424""
","
","","","1011.3000000119209","","","12","1641","64","j","elianto","#f73b6a7A"," "," ","1","0","[1862.2000000178814]","1","3","","","1641","161","1","3","lose","go","0","0"
"pit-trial","226","1464249","0.0-167.0","battery-v0.2","","""event"",""trial"",""time""
""fullscreenenter"",""1"",""2424""
","
","
","""event"",""trial"",""time""
""fullscreenenter"",""1"",""2424""
","
","","","-1","","","12","1641","64","v","elianto","#3366ff99","-1","-1","1","+10","[]","0","3","","","1641","162","0","2","win","no-go","0","0"
"pit-trial","227","1468244","0.0-168.0","battery-v0.2","","""event"",""trial"",""time""
""fullscreenenter"",""1"",""2424""
","
","
","""event"",""trial"",""time""
""fullscreenenter"",""1"",""2424""
","
","","","1139.0999999940395","","","12","1641","64","k","elianto","#3366ff99"," "," ","1","+10","[1990.5999999940395]","1","3","","","1641","163","3","1","win","go","0","0"
"pit-trial","228","1473103","0.0-169.0","battery-v0.2","","""event"",""trial"",""time""
""fullscreenenter"",""1"",""2424""
","
","
","""event"",""trial"",""time""
""fullscreenenter"",""1"",""2424""
","
","","","-1","","","12","1641","64","d","elianto","#f73b6a7A","-1","-1","1","0","[]","0","3","","","1641","164","2","4","lose","no-go","0","0"
"pit-trial","229","1477961","0.0-170.0","battery-v0.2","","""event"",""trial"",""time""
""fullscreenenter"",""1"",""2424""
","
","
","""event"",""trial"",""time""
""fullscreenenter"",""1"",""2424""
","
","","","-1","","","12","1641","64","j","elianto","#f73b6a7A"," ","-1","0","-10","[]","0","3","","","1641","165","1","3","lose","go","0","0"
"pit-trial","230","1481737","0.0-171.0","battery-v0.2","","""event"",""trial"",""time""
""fullscreenenter"",""1"",""2424""
","
","
","""event"",""trial"",""time""
""fullscreenenter"",""1"",""2424""
","
","","","918.2000000178814","","","12","1641","64","k","elianto","#3366ff99"," "," ","1","+10","[1769.5]","1","3","","","1641","166","3","1","win","go","0","0"
"pit-trial","231","1486596","0.0-172.0","battery-v0.2","","""event"",""trial"",""time""
""fullscreenenter"",""1"",""2424""
","
","
","""event"",""trial"",""time""
""fullscreenenter"",""1"",""2424""
","
","","","-1","","","12","1641","64","v","elianto","#3366ff99","-1","-1","1","+10","[]","0","3","","","1641","167","0","2","win","no-go","0","0"
"pit-trial","232","1491455","0.0-173.0","battery-v0.2","","""event"",""trial"",""time""
""fullscreenenter"",""1"",""2424""
","
","
","""event"",""trial"",""time""
""fullscreenenter"",""1"",""2424""
","
","","","-1","","","12","1641","64","d","elianto","#f73b6a7A","-1","-1","1","0","[]","0","3","","","1641","168","2","4","lose","no-go","0","0"
"pit-trial","233","1496316","0.0-174.0","battery-v0.2","","""event"",""trial"",""time""
""fullscreenenter"",""1"",""2424""
","
","
","""event"",""trial"",""time""
""fullscreenenter"",""1"",""2424""
","
","","","-1","","","12","1641","64","d","elianto","#f73b6a7A","-1","-1","1","0","[]","0","3","","","1641","169","2","4","lose","no-go","0","0"
"pit-trial","234","1500239","0.0-175.0","battery-v0.2","","""event"",""trial"",""time""
""fullscreenenter"",""1"",""2424""
","
","
","""event"",""trial"",""time""
""fullscreenenter"",""1"",""2424""
","
","","","1067.7999999821186","","","12","1641","64","j","elianto","#f73b6a7A"," "," ","1","-10","[1919.5]","1","3","","","1641","170","1","3","lose","go","1","0"
"pit-trial","235","1505097","0.0-176.0","battery-v0.2","","""event"",""trial"",""time""
""fullscreenenter"",""1"",""2424""
","
","
","""event"",""trial"",""time""
""fullscreenenter"",""1"",""2424""
","
","","","-1","","","12","1641","64","v","elianto","#3366ff99","-1","-1","1","+10","[]","0","3","","","1641","171","0","2","win","no-go","0","0"
"pit-trial","236","1508751","0.0-177.0","battery-v0.2","","""event"",""trial"",""time""
""fullscreenenter"",""1"",""2424""
","
","
","""event"",""trial"",""time""
""fullscreenenter"",""1"",""2424""
","
","","","795.9000000059605","","","12","1641","64","k","elianto","#3366ff99"," "," ","1","0","[1647.5999999940395]","1","3","","","1641","172","3","1","win","go","1","0"
"pit-trial","237","1513609","0.0-178.0","battery-v0.2","","""event"",""trial"",""time""
""fullscreenenter"",""1"",""2424""
","
","
","""event"",""trial"",""time""
""fullscreenenter"",""1"",""2424""
","
","","","-1","","","12","1641","64","d","elianto","#f73b6a7A","-1","-1","1","0","[]","0","3","","","1641","173","2","4","lose","no-go","0","0"
"pit-trial","238","1517562","0.0-179.0","battery-v0.2","","""event"",""trial"",""time""
""fullscreenenter"",""1"",""2424""
","
","
","""event"",""trial"",""time""
""fullscreenenter"",""1"",""2424""
","
","","","1095.5999999940395","","","12","1641","64","j","elianto","#f73b6a7A"," "," ","1","0","[1947.300000011921]","1","3","","","1641","174","1","3","lose","go","0","0"
"pit-trial","239","1522420","0.0-180.0","battery-v0.2","","""event"",""trial"",""time""
""fullscreenenter"",""1"",""2424""
","
","
","""event"",""trial"",""time""
""fullscreenenter"",""1"",""2424""
","
","","","-1","","","12","1641","64","w","elianto","#f73b6a7A","-1","-1","1","0","[]","0","3","","","1641","175","5","4","lose","no-go","0","0"
"pit-trial","240","1527279","0.0-181.0","battery-v0.2","","""event"",""trial"",""time""
""fullscreenenter"",""1"",""2424""
","
","
","""event"",""trial"",""time""
""fullscreenenter"",""1"",""2424""
","
","","","-1","","","12","1641","64","e","elianto","#f73b6a7A"," ","-1","0","-10","[]","0","3","","","1641","176","4","3","lose","go","0","0"
"pit-trial","241","1532138","0.0-182.0","battery-v0.2","","""event"",""trial"",""time""
""fullscreenenter"",""1"",""2424""
","
","
","""event"",""trial"",""time""
""fullscreenenter"",""1"",""2424""
","
","","","-1","","","12","1641","64","w","elianto","#f73b6a7A","-1","-1","1","0","[]","0","3","","","1641","177","5","4","lose","no-go","0","0"
"pit-trial","242","1536996","0.0-183.0","battery-v0.2","","""event"",""trial"",""time""
""fullscreenenter"",""1"",""2424""
","
","
","""event"",""trial"",""time""
""fullscreenenter"",""1"",""2424""
","
","","","-1","","","12","1641","64","d","elianto","#f73b6a7A","-1","-1","1","0","[]","0","3","","","1641","178","2","4","lose","no-go","0","0"
"pit-trial","243","1540879","0.0-184.0","battery-v0.2","","""event"",""trial"",""time""
""fullscreenenter"",""1"",""2424""
","
","
","""event"",""trial"",""time""
""fullscreenenter"",""1"",""2424""
","
","","","1024.5999999940395","","","12","1641","64","j","elianto","#f73b6a7A"," "," ","1","0","[1876.0999999940395]","1","3","","","1641","179","1","3","lose","go","0","0"
"pit-trial","244","1544575","0.0-185.0","battery-v0.2","","""event"",""trial"",""time""
""fullscreenenter"",""1"",""2424""
","
","
","""event"",""trial"",""time""
""fullscreenenter"",""1"",""2424""
","
","","","842.5","","","12","1641","64","e","elianto","#f73b6a7A"," "," ","1","0","[1693.5]","1","3","","","1641","180","4","3","lose","go","0","0"
"pit-trial","245","1549434","0.0-186.0","battery-v0.2","","""event"",""trial"",""time""
""fullscreenenter"",""1"",""2424""
","
","
","""event"",""trial"",""time""
""fullscreenenter"",""1"",""2424""
","
","","","-1","","","12","1641","64","s","elianto","#3366ff99","-1","-1","1","+10","[2899.100000023842]","1","3","","","1641","181","6","2","win","no-go","0","0"
"pit-trial","246","1554293","0.0-187.0","battery-v0.2","","""event"",""trial"",""time""
""fullscreenenter"",""1"",""2424""
","
","
","""event"",""trial"",""time""
""fullscreenenter"",""1"",""2424""
","
","","","-1","","","12","1641","64","w","elianto","#f73b6a7A","-1","-1","1","-10","[]","0","3","","","1641","182","5","4","lose","no-go","1","0"
"pit-trial","247","1559151","0.0-188.0","battery-v0.2","","""event"",""trial"",""time""
""fullscreenenter"",""1"",""2424""
","
","
","""event"",""trial"",""time""
""fullscreenenter"",""1"",""2424""
","
","","","-1","","","12","1641","64","d","elianto","#f73b6a7A","-1","-1","1","0","[]","0","3","","","1641","183","2","4","lose","no-go","0","0"
"pit-trial","248","1563219","0.0-189.0","battery-v0.2","","""event"",""trial"",""time""
""fullscreenenter"",""1"",""2424""
","
","
","""event"",""trial"",""time""
""fullscreenenter"",""1"",""2424""
","
","","","1212.6000000238419","","","12","1641","64","e","elianto","#f73b6a7A"," "," ","1","0","[2063.600000023842]","1","3","","","1641","184","4","3","lose","go","0","0"
"pit-trial","249","1568074","0.0-190.0","battery-v0.2","","""event"",""trial"",""time""
""fullscreenenter"",""1"",""2424""
","
","
","""event"",""trial"",""time""
""fullscreenenter"",""1"",""2424""
","
","","","-1","","","12","1641","64","w","elianto","#f73b6a7A","-1","-1","1","0","[]","0","3","","","1641","185","5","4","lose","no-go","0","0"
"pit-trial","250","1571684","0.0-191.0","battery-v0.2","","""event"",""trial"",""time""
""fullscreenenter"",""1"",""2424""
","
","
","""event"",""trial"",""time""
""fullscreenenter"",""1"",""2424""
","
","","","752.7999999821186","","","12","1641","64","e","elianto","#f73b6a7A"," "," ","1","0","[1603.199999988079]","1","3","","","1641","186","4","3","lose","go","0","0"
"pit-trial","251","1575413","0.0-192.0","battery-v0.2","","""event"",""trial"",""time""
""fullscreenenter"",""1"",""2424""
","
","
","""event"",""trial"",""time""
""fullscreenenter"",""1"",""2424""
","
","","","872","","","12","1641","64","s","elianto","#3366ff99","-1"," ","0","0","[1723.2999999821186]","1","3","","","1641","187","6","2","win","no-go","0","0"
"pit-trial","252","1580271","0.0-193.0","battery-v0.2","","""event"",""trial"",""time""
""fullscreenenter"",""1"",""2424""
","
","
","""event"",""trial"",""time""
""fullscreenenter"",""1"",""2424""
","
","","","-1","","","12","1641","64","d","elianto","#f73b6a7A","-1","-1","1","0","[]","0","3","","","1641","188","2","4","lose","no-go","0","0"
"pit-trial","253","1583904","0.0-194.0","battery-v0.2","","""event"",""trial"",""time""
""fullscreenenter"",""1"",""2424""
","
","
","""event"",""trial"",""time""
""fullscreenenter"",""1"",""2424""
","
","","","777.7999999821186","","","12","1641","64","e","elianto","#f73b6a7A"," "," ","1","-10","[1628.3999999761581]","1","3","","","1641","189","4","3","lose","go","1","0"
"pit-trial","254","1587690","0.0-195.0","battery-v0.2","","""event"",""trial"",""time""
""fullscreenenter"",""1"",""2424""
","
","
","""event"",""trial"",""time""
""fullscreenenter"",""1"",""2424""
","
","","","932.7999999821186","","","12","1641","64","s","elianto","#3366ff99","-1"," ","0","0","[1782.7999999821186]","1","3","","","1641","190","6","2","win","no-go","0","0"
"pit-trial","255","1592010","0.0-196.0","battery-v0.2","","""event"",""trial"",""time""
""fullscreenenter"",""1"",""2424""
","
","
","""event"",""trial"",""time""
""fullscreenenter"",""1"",""2424""
","
","","","1467","","","12","1641","64","p","elianto","#3366ff99"," "," ","1","+10","[2317.5]","1","3","","","1641","191","7","1","win","go","0","0"
"pit-trial","256","1596864","0.0-197.0","battery-v0.2","","""event"",""trial"",""time""
""fullscreenenter"",""1"",""2424""
","
","
","""event"",""trial"",""time""
""fullscreenenter"",""1"",""2424""
","
","","","-1","","","12","1641","64","w","elianto","#f73b6a7A","-1","-1","1","0","[]","0","3","","","1641","192","5","4","lose","no-go","0","0"
"pit-trial","257","1601722","0.0-198.0","battery-v0.2","","""event"",""trial"",""time""
""fullscreenenter"",""1"",""2424""
","
","
","""event"",""trial"",""time""
""fullscreenenter"",""1"",""2424""
","
","","","-1","","","12","1641","64","w","elianto","#f73b6a7A","-1","-1","1","-10","[]","0","3","","","1641","193","5","4","lose","no-go","1","0"
"pit-trial","258","1605781","0.0-199.0","battery-v0.2","","""event"",""trial"",""time""
""fullscreenenter"",""1"",""2424""
","
","
","""event"",""trial"",""time""
""fullscreenenter"",""1"",""2424""
","
","","","1206.199999988079","","","12","1641","64","e","elianto","#f73b6a7A"," "," ","1","0","[2056.800000011921]","1","3","","","1641","194","4","3","lose","go","0","0"
"pit-trial","259","1609584","0.0-200.0","battery-v0.2","","""event"",""trial"",""time""
""fullscreenenter"",""1"",""2424""
","
","
","""event"",""trial"",""time""
""fullscreenenter"",""1"",""2424""
","
","","","948","","","12","1641","64","p","elianto","#3366ff99"," "," ","1","+10","[1799.5999999940395]","1","3","","","1641","195","7","1","win","go","0","0"
"pit-trial","260","1613741","0.0-201.0","battery-v0.2","","""event"",""trial"",""time""
""fullscreenenter"",""1"",""2424""
","
","
","""event"",""trial"",""time""
""fullscreenenter"",""1"",""2424""
","
","","","1301.199999988079","","","12","1641","64","s","elianto","#3366ff99","-1"," ","0","0","[2153]","1","3","","","1641","196","6","2","win","no-go","0","0"
"pit-trial","261","1618602","0.0-202.0","battery-v0.2","","""event"",""trial"",""time""
""fullscreenenter"",""1"",""2424""
","
","
","""event"",""trial"",""time""
""fullscreenenter"",""1"",""2424""
","
","","","-1","","","12","1641","64","w","elianto","#f73b6a7A","-1","-1","1","-10","[]","0","3","","","1641","197","5","4","lose","no-go","1","0"
"pit-trial","262","1623461","0.0-203.0","battery-v0.2","","""event"",""trial"",""time""
""fullscreenenter"",""1"",""2424""
","
","
","""event"",""trial"",""time""
""fullscreenenter"",""1"",""2424""
","
","","","-1","","","12","1641","64","s","elianto","#3366ff99","-1","-1","1","+10","[]","0","3","","","1641","198","6","2","win","no-go","0","0"
"pit-trial","263","1627669","0.0-204.0","battery-v0.2","","""event"",""trial"",""time""
""fullscreenenter"",""1"",""2424""
","
","
","""event"",""trial"",""time""
""fullscreenenter"",""1"",""2424""
","
","","","1349.800000011921","","","12","1641","64","p","elianto","#3366ff99"," "," ","1","+10","[2201.4000000059605]","1","3","","","1641","199","7","1","win","go","0","0"
"pit-trial","264","1631397","0.0-205.0","battery-v0.2","","""event"",""trial"",""time""
""fullscreenenter"",""1"",""2424""
","
","
","""event"",""trial"",""time""
""fullscreenenter"",""1"",""2424""
","
