"trial_type","trial_index","time_elapsed","internal_node_id","task_version","subject_id","interactions","blur_events","focus_events","fullscreenenter_events","fullscreenexit_events","success","view_history","rt","responses","num_errors","age","subject","participantId","rune","rune_set","hex","correct","choice","accuracy","outcome","keys","total_keys","block","practice","value","sub","trial","stimulus","robot","valence","action","sham","browser_interactions"
"pavlovia","0","9","0.0-0.0","battery-v0.2","","""event"",""trial"",""time""
""fullscreenenter"",""1"",""2295""
","
","
","""event"",""trial"",""time""
""fullscreenenter"",""1"",""2295""
","
","","","","","","","","","","","","","","","","","","","","","","","","","","","",""
"fullscreen","1","3135","0.0-1.0","battery-v0.2","","""event"",""trial"",""time""
""fullscreenenter"",""1"",""2295""
","
","
","""event"",""trial"",""time""
""fullscreenenter"",""1"",""2295""
","
","true","","","","","","","","","","","","","","","","","","","","","","","","","","",""
"pit-instructions","2","8769","0.0-2.0-0.0","battery-v0.2","","""event"",""trial"",""time""
""fullscreenenter"",""1"",""2295""
","
","
","""event"",""trial"",""time""
""fullscreenenter"",""1"",""2295""
","
","","[{""page_index"":0,""viewing_time"":5632}]","5632","","","","","","","","","","","","","","","","","","","","","","","","",""
"pit-comprehension","3","13957","0.0-2.0-1.0-0.0","battery-v0.2","","""event"",""trial"",""time""
""fullscreenenter"",""1"",""2295""
","
","
","""event"",""trial"",""time""
""fullscreenenter"",""1"",""2295""
","
","","","5001","[""shark""]","0","12","1209","774","","","","","","","","","","","","","","","","","","","",""
"pit-instructions","4","16921","0.0-2.0-1.0-1.0","battery-v0.2","","""event"",""trial"",""time""
""fullscreenenter"",""1"",""2295""
","
","
","""event"",""trial"",""time""
""fullscreenenter"",""1"",""2295""
","
","","[{""page_index"":0,""viewing_time"":2955}]","2955","","","","","","","","","","","","","","","","","","","","","","","","",""
"pit-comprehension","5","19823","0.0-2.0-2.0-0.0","battery-v0.2","","""event"",""trial"",""time""
""fullscreenenter"",""1"",""2295""
","
","
","""event"",""trial"",""time""
""fullscreenenter"",""1"",""2295""
","
","","","2900","[""tiger""]","0","12","1209","774","","","","","","","","","","","","","","","","","","","",""
"pit-instructions","6","20873","0.0-2.0-2.0-1.0","battery-v0.2","","""event"",""trial"",""time""
""fullscreenenter"",""1"",""2295""
","
","
","""event"",""trial"",""time""
""fullscreenenter"",""1"",""2295""
","
","","[{""page_index"":0,""viewing_time"":1046.0000000000036}]","1046.0000000000036","","","","","","","","","","","","","","","","","","","","","","","","",""
"pit-instructions","7","119020","0.0-2.0-3.0","battery-v0.2","","""event"",""trial"",""time""
""fullscreenenter"",""1"",""2295""
","
","
","""event"",""trial"",""time""
""fullscreenenter"",""1"",""2295""
","
","","[{""page_index"":0,""viewing_time"":9849},{""page_index"":1,""viewing_time"":6084.999999999996},{""page_index"":2,""viewing_time"":6903},{""page_index"":3,""viewing_time"":5035},{""page_index"":4,""viewing_time"":5335},{""page_index"":5,""viewing_time"":5285},{""page_index"":6,""viewing_time"":6252},{""page_index"":7,""viewing_time"":6685},{""page_index"":8,""viewing_time"":6170},{""page_index"":9,""viewing_time"":16255.000000000015},{""page_index"":10,""viewing_time"":7867.999999999985},{""page_index"":11,""viewing_time"":5686},{""page_index"":12,""viewing_time"":6052},{""page_index"":13,""viewing_time"":4685}]","98145","","","","","","","","","","","","","","","","","","","","","","","","",""
"pit-trial","8","122465","0.0-2.0-4.0-0.0","battery-v0.2","","""event"",""trial"",""time""
""fullscreenenter"",""1"",""2295""
","
","
","""event"",""trial"",""time""
""fullscreenenter"",""1"",""2295""
","
","","","591.0000000000146","","","12","1209","774","&#9784;","elianto","#FFFFF080"," "," ","1","&#10004","[1441]","1","0","0","","","","","","","","",""
"pit-trial","9","125569","0.0-2.0-4.1-0.1","battery-v0.2","","""event"",""trial"",""time""
""fullscreenenter"",""1"",""2295""
","
","
","""event"",""trial"",""time""
""fullscreenenter"",""1"",""2295""
","
","","","250","","","12","1209","774","&#9784;","elianto","#FFFFF080"," "," ","1","&#10004","[1100.9999999999854]","1","0","0","","","","","","","","",""
"pit-trial","10","128865","0.0-2.0-4.2-0.2","battery-v0.2","","""event"",""trial"",""time""
""fullscreenenter"",""1"",""2295""
","
","
","""event"",""trial"",""time""
""fullscreenenter"",""1"",""2295""
","
","","","444","","","12","1209","774","&#9784;","elianto","#FFFFF080"," "," ","1","&#10004","[1294]","1","0","0","","","","","","","","",""
"pit-trial","11","132521","0.0-2.0-4.3-0.3","battery-v0.2","","""event"",""trial"",""time""
""fullscreenenter"",""1"",""2295""
","
","
","""event"",""trial"",""time""
""fullscreenenter"",""1"",""2295""
","
","","","800.9999999999854","","","12","1209","774","&#9784;","elianto","#FFFFF080"," "," ","1","&#10004","[1654]","1","0","0","","","","","","","","",""
"pit-trial","12","136110","0.0-2.0-4.4-0.4","battery-v0.2","","""event"",""trial"",""time""
""fullscreenenter"",""1"",""2295""
","
","
","""event"",""trial"",""time""
""fullscreenenter"",""1"",""2295""
","
","","","737","","","12","1209","774","&#9784;","elianto","#FFFFF080"," "," ","1","&#10004","[1587]","1","0","0","","","","","","","","",""
"pit-instructions","13","155698","0.0-2.0-5.0","battery-v0.2","","""event"",""trial"",""time""
""fullscreenenter"",""1"",""2295""
","
","
","""event"",""trial"",""time""
""fullscreenenter"",""1"",""2295""
","
","","[{""page_index"":0,""viewing_time"":4314},{""page_index"":1,""viewing_time"":5235.000000000029},{""page_index"":2,""viewing_time"":4684.999999999971},{""page_index"":3,""viewing_time"":5351.000000000029}]","19585.00000000003","","","","","","","","","","","","","","","","","","","","","","","","",""
"pit-trial","14","160550","0.0-2.0-6.0-0.0","battery-v0.2","","""event"",""trial"",""time""
""fullscreenenter"",""1"",""2295""
","
","
","""event"",""trial"",""time""
""fullscreenenter"",""1"",""2295""
","
","","","-1","","","12","1209","774","&#9854;","elianto","#FFFFF080","-1","-1","1","&#10004","[]","0","0","1","","","","","","","","",""
"pit-trial","15","165404","0.0-2.0-6.1-0.1","battery-v0.2","","""event"",""trial"",""time""
""fullscreenenter"",""1"",""2295""
","
","
","""event"",""trial"",""time""
""fullscreenenter"",""1"",""2295""
","
","","","-1","","","12","1209","774","&#9854;","elianto","#FFFFF080","-1","-1","1","&#10004","[]","0","0","1","","","","","","","","",""
"pit-trial","16","170257","0.0-2.0-6.2-0.2","battery-v0.2","","""event"",""trial"",""time""
""fullscreenenter"",""1"",""2295""
","
","
","""event"",""trial"",""time""
""fullscreenenter"",""1"",""2295""
","
","","","-1","","","12","1209","774","&#9854;","elianto","#FFFFF080","-1","-1","1","&#10004","[]","0","0","1","","","","","","","","",""
"pit-trial","17","175111","0.0-2.0-6.3-0.3","battery-v0.2","","""event"",""trial"",""time""
""fullscreenenter"",""1"",""2295""
","
","
","""event"",""trial"",""time""
""fullscreenenter"",""1"",""2295""
","
","","","-1","","","12","1209","774","&#9854;","elianto","#FFFFF080","-1","-1","1","&#10004","[]","0","0","1","","","","","","","","",""
"pit-trial","18","179964","0.0-2.0-6.4-0.4","battery-v0.2","","""event"",""trial"",""time""
""fullscreenenter"",""1"",""2295""
","
","
","""event"",""trial"",""time""
""fullscreenenter"",""1"",""2295""
","
","","","-1","","","12","1209","774","&#9854;","elianto","#FFFFF080","-1","-1","1","&#10004","[]","0","0","1","","","","","","","","",""
"pit-instructions","19","291707","0.0-2.0-7.0","battery-v0.2","","""event"",""trial"",""time""
""fullscreenenter"",""1"",""2295""
","
","
","""event"",""trial"",""time""
""fullscreenenter"",""1"",""2295""
","
","","[{""page_index"":0,""viewing_time"":5474},{""page_index"":1,""viewing_time"":6569},{""page_index"":2,""viewing_time"":5401},{""page_index"":3,""viewing_time"":5570},{""page_index"":4,""viewing_time"":5085},{""page_index"":5,""viewing_time"":5484},{""page_index"":6,""viewing_time"":5169},{""page_index"":7,""viewing_time"":10353},{""page_index"":8,""viewing_time"":6285},{""page_index"":9,""viewing_time"":5118},{""page_index"":10,""viewing_time"":6152.000000000029},{""page_index"":11,""viewing_time"":4051.999999999971},{""page_index"":12,""viewing_time"":6652.000000000029},{""page_index"":13,""viewing_time"":6301.999999999971},{""page_index"":14,""viewing_time"":7669.000000000058},{""page_index"":15,""viewing_time"":6402.999999999942},{""page_index"":16,""viewing_time"":6768},{""page_index"":17,""viewing_time"":7235}]","111742","","","","","","","","","","","","","","","","","","","","","","","","",""
"pit-trial","20","295223","0.0-2.0-8.0-0.0","battery-v0.2","","""event"",""trial"",""time""
""fullscreenenter"",""1"",""2295""
","
","
","""event"",""trial"",""time""
""fullscreenenter"",""1"",""2295""
","
","","","663","","","12","1209","774","&#9776;","elianto","#3366ff99"," "," ","1","+10","[1513]","1","0","1","","","","","","","","",""
"pit-trial","21","298866","0.0-2.0-8.0-1.0","battery-v0.2","","""event"",""trial"",""time""
""fullscreenenter"",""1"",""2295""
","
","
","""event"",""trial"",""time""
""fullscreenenter"",""1"",""2295""
","
","","","790.9999999999418","","","12","1209","774","&#9776;","elianto","#3366ff99"," "," ","1","+10","[1641.9999999999418]","1","0","1","","","","","","","","",""
"pit-trial","22","303075","0.0-2.0-8.0-2.0","battery-v0.2","","""event"",""trial"",""time""
""fullscreenenter"",""1"",""2295""
","
","
","""event"",""trial"",""time""
""fullscreenenter"",""1"",""2295""
","
","","","1355","","","12","1209","774","&#9776;","elianto","#3366ff99"," "," ","1","+10","[2206]","1","0","1","","","","","","","","",""
"pit-trial","23","306912","0.0-2.0-8.0-3.0","battery-v0.2","","""event"",""trial"",""time""
""fullscreenenter"",""1"",""2295""
","
","
","""event"",""trial"",""time""
""fullscreenenter"",""1"",""2295""
","
","","","984","","","12","1209","774","&#9776;","elianto","#3366ff99"," "," ","1","0","[1834]","1","0","1","","","","","","","","",""
"pit-trial","24","310310","0.0-2.0-8.0-4.0","battery-v0.2","","""event"",""trial"",""time""
""fullscreenenter"",""1"",""2295""
","
","
","""event"",""trial"",""time""
""fullscreenenter"",""1"",""2295""
","
","","","544","","","12","1209","774","&#9776;","elianto","#3366ff99"," "," ","1","+10","[1396]","1","0","1","","","","","","","","",""
"call-function","25","310311","0.0-2.0-9.0","battery-v0.2","","""event"",""trial"",""time""
""fullscreenenter"",""1"",""2295""
","
","
","""event"",""trial"",""time""
""fullscreenenter"",""1"",""2295""
","
","","","","","","","","","","","","","","","","","","","","","","","","","","","",""
"pit-instructions","26","347441","0.0-2.0-10.0","battery-v0.2","","""event"",""trial"",""time""
""fullscreenenter"",""1"",""2295""
","
","
","""event"",""trial"",""time""
""fullscreenenter"",""1"",""2295""
","
","","[{""page_index"":0,""viewing_time"":5237},{""page_index"":1,""viewing_time"":6068},{""page_index"":2,""viewing_time"":9354},{""page_index"":3,""viewing_time"":9136},{""page_index"":4,""viewing_time"":7335}]","37130","","","","","","","","","","","","","","","","","","","","","","","","",""
"pit-trial","27","350855","0.0-2.0-11.0-0.0","battery-v0.2","","""event"",""trial"",""time""
""fullscreenenter"",""1"",""2295""
","
","
","""event"",""trial"",""time""
""fullscreenenter"",""1"",""2295""
","
","","","561","","","12","1209","774","&#9761;","elianto","#3366ff99","-1"," ","0","0","[1411]","1","0","2","","","","","","","","",""
"pit-trial","28","355708","0.0-2.0-11.0-1.0","battery-v0.2","","""event"",""trial"",""time""
""fullscreenenter"",""1"",""2295""
","
","
","""event"",""trial"",""time""
""fullscreenenter"",""1"",""2295""
","
","","","-1","","","12","1209","774","&#9761;","elianto","#3366ff99","-1","-1","1","+10","[]","0","0","2","","","","","","","","",""
"pit-trial","29","360563","0.0-2.0-11.0-2.0","battery-v0.2","","""event"",""trial"",""time""
""fullscreenenter"",""1"",""2295""
","
","
","""event"",""trial"",""time""
""fullscreenenter"",""1"",""2295""
","
","","","-1","","","12","1209","774","&#9761;","elianto","#3366ff99","-1","-1","1","+10","[]","0","0","2","","","","","","","","",""
"pit-trial","30","364411","0.0-2.0-11.0-3.0","battery-v0.2","","""event"",""trial"",""time""
""fullscreenenter"",""1"",""2295""
","
","
","""event"",""trial"",""time""
""fullscreenenter"",""1"",""2295""
","
","","","996","","","12","1209","774","&#9761;","elianto","#3366ff99","-1"," ","0","+10","[1846]","1","0","2","","","","","","","","",""
"pit-trial","31","369264","0.0-2.0-11.0-4.0","battery-v0.2","","""event"",""trial"",""time""
""fullscreenenter"",""1"",""2295""
","
","
","""event"",""trial"",""time""
""fullscreenenter"",""1"",""2295""
","
","","","-1","","","12","1209","774","&#9761;","elianto","#3366ff99","-1","-1","1","+10","[]","0","0","2","","","","","","","","",""
"pit-trial","32","374117","0.0-2.0-11.1-0.1","battery-v0.2","","""event"",""trial"",""time""
""fullscreenenter"",""1"",""2295""
","
","
","""event"",""trial"",""time""
""fullscreenenter"",""1"",""2295""
","
","","","-1","","","12","1209","774","&#9761;","elianto","#3366ff99","-1","-1","1","+10","[]","0","0","2","","","","","","","","",""
"pit-trial","33","378057","0.0-2.0-11.1-1.1","battery-v0.2","","""event"",""trial"",""time""
""fullscreenenter"",""1"",""2295""
","
","
","""event"",""trial"",""time""
""fullscreenenter"",""1"",""2295""
","
","","","1086","","","12","1209","774","&#9761;","elianto","#3366ff99","-1"," ","0","0","[1937]","1","0","2","","","","","","","","",""
"pit-trial","34","382243","0.0-2.0-11.1-2.1","battery-v0.2","","""event"",""trial"",""time""
""fullscreenenter"",""1"",""2295""
","
","
","""event"",""trial"",""time""
""fullscreenenter"",""1"",""2295""
","
","","","1331","","","12","1209","774","&#9761;","elianto","#3366ff99","-1"," ","0","0","[2182]","1","0","2","","","","","","","","",""
"pit-trial","35","387096","0.0-2.0-11.1-3.1","battery-v0.2","","""event"",""trial"",""time""
""fullscreenenter"",""1"",""2295""
","
","
","""event"",""trial"",""time""
""fullscreenenter"",""1"",""2295""
","
","","","-1","","","12","1209","774","&#9761;","elianto","#3366ff99","-1","-1","1","0","[]","0","0","2","","","","","","","","",""
"pit-trial","36","390477","0.0-2.0-11.1-4.1","battery-v0.2","","""event"",""trial"",""time""
""fullscreenenter"",""1"",""2295""
","
","
","""event"",""trial"",""time""
""fullscreenenter"",""1"",""2295""
","
","","","527.9999999999418","","","12","1209","774","&#9761;","elianto","#3366ff99","-1"," ","0","0","[1378]","1","0","2","","","","","","","","",""
"pit-trial","37","393797","0.0-2.0-11.2-0.2","battery-v0.2","","""event"",""trial"",""time""
""fullscreenenter"",""1"",""2295""
","
","
","""event"",""trial"",""time""
""fullscreenenter"",""1"",""2295""
","
","","","466","","","12","1209","774","&#9761;","elianto","#3366ff99","-1"," ","0","0","[1317]","1","0","2","","","","","","","","",""
"pit-trial","38","397239","0.0-2.0-11.2-1.2","battery-v0.2","","""event"",""trial"",""time""
""fullscreenenter"",""1"",""2295""
","
","
","""event"",""trial"",""time""
""fullscreenenter"",""1"",""2295""
","
","","","589","","","12","1209","774","&#9761;","elianto","#3366ff99","-1"," ","0","0","[1440]","1","0","2","","","","","","","","",""
"pit-trial","39","402092","0.0-2.0-11.2-2.2","battery-v0.2","","""event"",""trial"",""time""
""fullscreenenter"",""1"",""2295""
","
","
","""event"",""trial"",""time""
""fullscreenenter"",""1"",""2295""
","
","","","-1","","","12","1209","774","&#9761;","elianto","#3366ff99","-1","-1","1","+10","[]","0","0","2","","","","","","","","",""
"pit-trial","40","406944","0.0-2.0-11.2-3.2","battery-v0.2","","""event"",""trial"",""time""
""fullscreenenter"",""1"",""2295""
","
","
","""event"",""trial"",""time""
""fullscreenenter"",""1"",""2295""
","
","","","-1","","","12","1209","774","&#9761;","elianto","#3366ff99","-1","-1","1","0","[]","0","0","2","","","","","","","","",""
"pit-trial","41","411797","0.0-2.0-11.2-4.2","battery-v0.2","","""event"",""trial"",""time""
""fullscreenenter"",""1"",""2295""
","
","
","""event"",""trial"",""time""
""fullscreenenter"",""1"",""2295""
","
","","","-1","","","12","1209","774","&#9761;","elianto","#3366ff99","-1","-1","1","+10","[]","0","0","2","","","","","","","","",""
"pit-trial","42","415228","0.0-2.0-11.3-0.3","battery-v0.2","","""event"",""trial"",""time""
""fullscreenenter"",""1"",""2295""
","
","
","""event"",""trial"",""time""
""fullscreenenter"",""1"",""2295""
","
","","","578","","","12","1209","774","&#9761;","elianto","#3366ff99","-1"," ","0","0","[1428]","1","0","2","","","","","","","","",""
"pit-trial","43","420082","0.0-2.0-11.3-1.3","battery-v0.2","","""event"",""trial"",""time""
""fullscreenenter"",""1"",""2295""
","
","
","""event"",""trial"",""time""
""fullscreenenter"",""1"",""2295""
","
","","","-1","","","12","1209","774","&#9761;","elianto","#3366ff99","-1","-1","1","+10","[]","0","0","2","","","","","","","","",""
"pit-trial","44","424937","0.0-2.0-11.3-2.3","battery-v0.2","","""event"",""trial"",""time""
""fullscreenenter"",""1"",""2295""
","
","
","""event"",""trial"",""time""
""fullscreenenter"",""1"",""2295""
","
","","","-1","","","12","1209","774","&#9761;","elianto","#3366ff99","-1","-1","1","+10","[]","0","0","2","","","","","","","","",""
"pit-trial","45","428279","0.0-2.0-11.3-3.3","battery-v0.2","","""event"",""trial"",""time""
""fullscreenenter"",""1"",""2295""
","
","
","""event"",""trial"",""time""
""fullscreenenter"",""1"",""2295""
","
","","","489","","","12","1209","774","&#9761;","elianto","#3366ff99","-1"," ","0","+10","[1340]","1","0","2","","","","","","","","",""
"pit-trial","46","432307","0.0-2.0-11.3-4.3","battery-v0.2","","""event"",""trial"",""time""
""fullscreenenter"",""1"",""2295""
","
","
","""event"",""trial"",""time""
""fullscreenenter"",""1"",""2295""
","
","","","1173","","","12","1209","774","&#9761;","elianto","#3366ff99","-1"," ","0","0","[2025]","1","0","2","","","","","","","","",""
"pit-trial","47","437161","0.0-2.0-11.4-0.4","battery-v0.2","","""event"",""trial"",""time""
""fullscreenenter"",""1"",""2295""
","
","
","""event"",""trial"",""time""
""fullscreenenter"",""1"",""2295""
","
","","","-1","","","12","1209","774","&#9761;","elianto","#3366ff99","-1","-1","1","+10","[]","0","0","2","","","","","","","","",""
"pit-trial","48","442014","0.0-2.0-11.4-1.4","battery-v0.2","","""event"",""trial"",""time""
""fullscreenenter"",""1"",""2295""
","
","
","""event"",""trial"",""time""
""fullscreenenter"",""1"",""2295""
","
","","","-1","","","12","1209","774","&#9761;","elianto","#3366ff99","-1","-1","1","+10","[]","0","0","2","","","","","","","","",""
"pit-trial","49","445660","0.0-2.0-11.4-2.4","battery-v0.2","","""event"",""trial"",""time""
""fullscreenenter"",""1"",""2295""
","
","
","""event"",""trial"",""time""
""fullscreenenter"",""1"",""2295""
","
","","","794","","","12","1209","774","&#9761;","elianto","#3366ff99","-1"," ","0","0","[1645]","1","0","2","","","","","","","","",""
"pit-trial","50","448889","0.0-2.0-11.4-3.4","battery-v0.2","","""event"",""trial"",""time""
""fullscreenenter"",""1"",""2295""
","
","
","""event"",""trial"",""time""
""fullscreenenter"",""1"",""2295""
","
","","","375","","","12","1209","774","&#9761;","elianto","#3366ff99","-1"," ","0","+10","[1226]","1","0","2","","","","","","","","",""
"pit-trial","51","453742","0.0-2.0-11.4-4.4","battery-v0.2","","""event"",""trial"",""time""
""fullscreenenter"",""1"",""2295""
","
","
","""event"",""trial"",""time""
""fullscreenenter"",""1"",""2295""
","
","","","-1","","","12","1209","774","&#9761;","elianto","#3366ff99","-1","-1","1","+10","[]","0","0","2","","","","","","","","",""
"pit-instructions","52","476532","0.0-2.0-11.4-5.4-0.4","battery-v0.2","","""event"",""trial"",""time""
""fullscreenenter"",""1"",""2295""
","
","
","""event"",""trial"",""time""
""fullscreenenter"",""1"",""2295""
","
","","[{""page_index"":0,""viewing_time"":7167},{""page_index"":1,""viewing_time"":5369},{""page_index"":2,""viewing_time"":10253.000000000058}]","22789.00000000006","","","","","","","","","","","","","","","","","","","","","","","","",""
"pit-trial","53","480075","0.0-2.0-11.5-0.5","battery-v0.2","","""event"",""trial"",""time""
""fullscreenenter"",""1"",""2295""
","
","
","""event"",""trial"",""time""
""fullscreenenter"",""1"",""2295""
","
","","","689.0000000000582","","","12","1209","774","&#9761;","elianto","#3366ff99","-1"," ","0","0","[1540.0000000000582]","1","0","2","","","","","","","","",""
"pit-trial","54","484930","0.0-2.0-11.5-1.5","battery-v0.2","","""event"",""trial"",""time""
""fullscreenenter"",""1"",""2295""
","
","
","""event"",""trial"",""time""
""fullscreenenter"",""1"",""2295""
","
","","","-1","","","12","1209","774","&#9761;","elianto","#3366ff99","-1","-1","1","+10","[]","0","0","2","","","","","","","","",""
"pit-trial","55","489782","0.0-2.0-11.5-2.5","battery-v0.2","","""event"",""trial"",""time""
""fullscreenenter"",""1"",""2295""
","
","
","""event"",""trial"",""time""
""fullscreenenter"",""1"",""2295""
","
","","","-1","","","12","1209","774","&#9761;","elianto","#3366ff99","-1","-1","1","+10","[]","0","0","2","","","","","","","","",""
"pit-trial","56","494635","0.0-2.0-11.5-3.5","battery-v0.2","","""event"",""trial"",""time""
""fullscreenenter"",""1"",""2295""
","
","
","""event"",""trial"",""time""
""fullscreenenter"",""1"",""2295""
","
","","","-1","","","12","1209","774","&#9761;","elianto","#3366ff99","-1","-1","1","0","[]","0","0","2","","","","","","","","",""
"pit-trial","57","499488","0.0-2.0-11.5-4.5","battery-v0.2","","""event"",""trial"",""time""
""fullscreenenter"",""1"",""2295""
","
","
","""event"",""trial"",""time""
""fullscreenenter"",""1"",""2295""
","
","","","-1","","","12","1209","774","&#9761;","elianto","#3366ff99","-1","-1","1","+10","[]","0","0","2","","","","","","","","",""
"call-function","58","499489","0.0-2.0-12.0","battery-v0.2","","""event"",""trial"",""time""
""fullscreenenter"",""1"",""2295""
","
","
","""event"",""trial"",""time""
""fullscreenenter"",""1"",""2295""
","
","","","","","","","","","","","","","","","","","","","","","","","","","","","",""
"pit-instructions","59","528616","0.0-2.0-13.0","battery-v0.2","","""event"",""trial"",""time""
""fullscreenenter"",""1"",""2295""
","
","
","""event"",""trial"",""time""
""fullscreenenter"",""1"",""2295""
","
","","[{""page_index"":0,""viewing_time"":4871},{""page_index"":1,""viewing_time"":6266},{""page_index"":2,""viewing_time"":3418.000000000058},{""page_index"":3,""viewing_time"":10254.999999999942},{""page_index"":4,""viewing_time"":4317}]","29127","","","","","","","","","","","","","","","","","","","","","","","","",""
"pit-trial","60","531938","0.0-2.0-14.0-0.0","battery-v0.2","","""event"",""trial"",""time""
""fullscreenenter"",""1"",""2295""
","
","
","""event"",""trial"",""time""
""fullscreenenter"",""1"",""2295""
","
","","","468.0000000001164","","","12","1209","774","&#9826;","elianto","#f73b6a7A","-1"," ","0","-10","[1319.0000000001164]","1","0","3","","","","","","","","",""
"pit-trial","61","536791","0.0-2.0-14.0-1.0","battery-v0.2","","""event"",""trial"",""time""
""fullscreenenter"",""1"",""2295""
","
","
","""event"",""trial"",""time""
""fullscreenenter"",""1"",""2295""
","
","","","-1","","","12","1209","774","&#9826;","elianto","#f73b6a7A","-1","-1","1","0","[]","0","0","3","","","","","","","","",""
"pit-trial","62","541643","0.0-2.0-14.0-2.0","battery-v0.2","","""event"",""trial"",""time""
""fullscreenenter"",""1"",""2295""
","
","
","""event"",""trial"",""time""
""fullscreenenter"",""1"",""2295""
","
","","","-1","","","12","1209","774","&#9826;","elianto","#f73b6a7A","-1","-1","1","0","[]","0","0","3","","","","","","","","",""
"pit-trial","63","545382","0.0-2.0-14.0-3.0","battery-v0.2","","""event"",""trial"",""time""
""fullscreenenter"",""1"",""2295""
","
","
","""event"",""trial"",""time""
""fullscreenenter"",""1"",""2295""
","
","","","887","","","12","1209","774","&#9826;","elianto","#f73b6a7A","-1"," ","0","0","[1737]","1","0","3","","","","","","","","",""
"pit-trial","64","548308","0.0-2.0-14.0-4.0","battery-v0.2","","""event"",""trial"",""time""
""fullscreenenter"",""1"",""2295""
","
","
","""event"",""trial"",""time""
""fullscreenenter"",""1"",""2295""
","
","","","72","","","12","1209","774","&#9826;","elianto","#f73b6a7A","-1"," ","0","-10","[921.9999999998836]","1","0","3","","","","","","","","",""
"pit-trial","65","553160","0.0-2.0-14.1-0.1","battery-v0.2","","""event"",""trial"",""time""
""fullscreenenter"",""1"",""2295""
","
","
","""event"",""trial"",""time""
""fullscreenenter"",""1"",""2295""
","
","","","-1","","","12","1209","774","&#9826;","elianto","#f73b6a7A","-1","-1","1","0","[]","0","0","3","","","","","","","","",""
"pit-trial","66","558014","0.0-2.0-14.1-1.1","battery-v0.2","","""event"",""trial"",""time""
""fullscreenenter"",""1"",""2295""
","
","
","""event"",""trial"",""time""
""fullscreenenter"",""1"",""2295""
","
","","","-1","","","12","1209","774","&#9826;","elianto","#f73b6a7A","-1","-1","1","0","[]","0","0","3","","","","","","","","",""
"pit-trial","67","562867","0.0-2.0-14.1-2.1","battery-v0.2","","""event"",""trial"",""time""
""fullscreenenter"",""1"",""2295""
","
","
","""event"",""trial"",""time""
""fullscreenenter"",""1"",""2295""
","
","","","-1","","","12","1209","774","&#9826;","elianto","#f73b6a7A","-1","-1","1","0","[]","0","0","3","","","","","","","","",""
"pit-trial","68","567720","0.0-2.0-14.1-3.1","battery-v0.2","","""event"",""trial"",""time""
""fullscreenenter"",""1"",""2295""
","
","
","""event"",""trial"",""time""
""fullscreenenter"",""1"",""2295""
","
","","","-1","","","12","1209","774","&#9826;","elianto","#f73b6a7A","-1","-1","1","-10","[]","0","0","3","","","","","","","","",""
"pit-trial","69","572573","0.0-2.0-14.1-4.1","battery-v0.2","","""event"",""trial"",""time""
""fullscreenenter"",""1"",""2295""
","
","
","""event"",""trial"",""time""
""fullscreenenter"",""1"",""2295""
","
","","","-1","","","12","1209","774","&#9826;","elianto","#f73b6a7A","-1","-1","1","0","[]","0","0","3","","","","","","","","",""
"call-function","70","572574","0.0-2.0-15.0","battery-v0.2","","""event"",""trial"",""time""
""fullscreenenter"",""1"",""2295""
","
","
","""event"",""trial"",""time""
""fullscreenenter"",""1"",""2295""
","
","","","","","","","","","","","","","","","","","","","","","","","","","","","",""
"pit-instructions","71","596920","0.0-2.0-16.0","battery-v0.2","","""event"",""trial"",""time""
""fullscreenenter"",""1"",""2295""
","
","
","""event"",""trial"",""time""
""fullscreenenter"",""1"",""2295""
","
","","[{""page_index"":0,""viewing_time"":6624},{""page_index"":1,""viewing_time"":8135},{""page_index"":2,""viewing_time"":4535},{""page_index"":3,""viewing_time"":5052}]","24346","","","","","","","","","","","","","","","","","","","","","","","","",""
"pit-trial","72","600734","0.0-2.0-17.0-0.0","battery-v0.2","","""event"",""trial"",""time""
""fullscreenenter"",""1"",""2295""
","
","
","""event"",""trial"",""time""
""fullscreenenter"",""1"",""2295""
","
","","","961","","","12","1209","774","&#9789;","elianto","#f73b6a7A"," "," ","1","0","[1812]","1","0","4","","","","","","","","",""
"pit-trial","73","603838","0.0-2.0-17.0-1.0","battery-v0.2","","""event"",""trial"",""time""
""fullscreenenter"",""1"",""2295""
","
","
","""event"",""trial"",""time""
""fullscreenenter"",""1"",""2295""
","
","","","251.99999999988358","","","12","1209","774","&#9789;","elianto","#f73b6a7A"," "," ","1","0","[1102]","1","0","4","","","","","","","","",""
"pit-trial","74","607056","0.0-2.0-17.0-2.0","battery-v0.2","","""event"",""trial"",""time""
""fullscreenenter"",""1"",""2295""
","
","
","""event"",""trial"",""time""
""fullscreenenter"",""1"",""2295""
","
","","","366","","","12","1209","774","&#9789;","elianto","#f73b6a7A"," "," ","1","0","[1216]","1","0","4","","","","","","","","",""
"pit-trial","75","610049","0.0-2.0-17.0-3.0","battery-v0.2","","""event"",""trial"",""time""
""fullscreenenter"",""1"",""2295""
","
","
","""event"",""trial"",""time""
""fullscreenenter"",""1"",""2295""
","
","","","139","","","12","1209","774","&#9789;","elianto","#f73b6a7A"," "," ","1","-10","[990]","1","0","4","","","","","","","","",""
"pit-trial","76","613425","0.0-2.0-17.0-4.0","battery-v0.2","","""event"",""trial"",""time""
""fullscreenenter"",""1"",""2295""
","
","
","""event"",""trial"",""time""
""fullscreenenter"",""1"",""2295""
","
","","","522","","","12","1209","774","&#9789;","elianto","#f73b6a7A"," "," ","1","0","[1373]","1","0","4","","","","","","","","",""
"call-function","77","613426","0.0-2.0-18.0","battery-v0.2","","""event"",""trial"",""time""
""fullscreenenter"",""1"",""2295""
","
","
","""event"",""trial"",""time""
""fullscreenenter"",""1"",""2295""
","
","","","","","","","","","","","","","","","","","","","","","","","","","","","",""
"pit-instructions","78","678296","0.0-2.0-19.0","battery-v0.2","","""event"",""trial"",""time""
""fullscreenenter"",""1"",""2295""
","
","
","""event"",""trial"",""time""
""fullscreenenter"",""1"",""2295""
","
","","[{""page_index"":0,""viewing_time"":6201},{""page_index"":1,""viewing_time"":6786},{""page_index"":2,""viewing_time"":11737},{""page_index"":3,""viewing_time"":4301},{""page_index"":4,""viewing_time"":7053},{""page_index"":5,""viewing_time"":8202},{""page_index"":6,""viewing_time"":9220},{""page_index"":7,""viewing_time"":7386},{""page_index"":8,""viewing_time"":3984}]","64871","","","","","","","","","","","","","","","","","","","","","","","","",""
"pit-comprehension","79","683099","0.0-2.0-20.0-0.0","battery-v0.2","","""event"",""trial"",""time""
""fullscreenenter"",""1"",""2295""
","
","
","""event"",""trial"",""time""
""fullscreenenter"",""1"",""2295""
","
","","","4801","[""SPACE""]","0","12","1209","774","","","","","","","","","","","","","","","","","","","",""
"pit-instructions","80","686332","0.0-2.0-20.0-1.0","battery-v0.2","","""event"",""trial"",""time""
""fullscreenenter"",""1"",""2295""
","
","
","""event"",""trial"",""time""
""fullscreenenter"",""1"",""2295""
","
","","[{""page_index"":0,""viewing_time"":3184}]","3184","","","","","","","","","","","","","","","","","","","","","","","","",""
"pit-comprehension","81","693736","0.0-2.0-21.0-0.0","battery-v0.2","","""event"",""trial"",""time""
""fullscreenenter"",""1"",""2295""
","
","
","""event"",""trial"",""time""
""fullscreenenter"",""1"",""2295""
","
","","","7402","[""10""]","0","12","1209","774","","","","","","","","","","","","","","","","","","","",""
"pit-instructions","82","697920","0.0-2.0-21.0-1.0","battery-v0.2","","""event"",""trial"",""time""
""fullscreenenter"",""1"",""2295""
","
","
","""event"",""trial"",""time""
""fullscreenenter"",""1"",""2295""
","
","","[{""page_index"":0,""viewing_time"":4132.999999999884}]","4132.999999999884","","","","","","","","","","","","","","","","","","","","","","","","",""
"pit-comprehension","83","704126","0.0-2.0-22.0-0.0","battery-v0.2","","""event"",""trial"",""time""
""fullscreenenter"",""1"",""2295""
","
","
","""event"",""trial"",""time""
""fullscreenenter"",""1"",""2295""
","
","","","6204","[""-10""]","1","12","1209","774","","","","","","","","","","","","","","","","","","","",""
"pit-instructions","84","711123","0.0-2.0-22.0-1.0","battery-v0.2","","""event"",""trial"",""time""
""fullscreenenter"",""1"",""2295""
","
","
","""event"",""trial"",""time""
""fullscreenenter"",""1"",""2295""
","
","","[{""page_index"":0,""viewing_time"":6944}]","6944","","","","","","","","","","","","","","","","","","","","","","","","",""
"pit-instructions","85","712457","0.0-2.0-22.0-2.0-0.0","battery-v0.2","","""event"",""trial"",""time""
""fullscreenenter"",""1"",""2295""
","
","
","""event"",""trial"",""time""
""fullscreenenter"",""1"",""2295""
","
","","[{""page_index"":0,""viewing_time"":1331}]","1331","","","","","","","","","","","","","","","","","","","","","","","","",""
"pit-comprehension","86","727814","0.0-2.0-22.1-0.1","battery-v0.2","","""event"",""trial"",""time""
""fullscreenenter"",""1"",""2295""
","
","
","""event"",""trial"",""time""
""fullscreenenter"",""1"",""2295""
","
","","","15354.999999999884","[""0""]","0","12","1209","774","","","","","","","","","","","","","","","","","","","",""
"pit-instructions","87","731513","0.0-2.0-22.1-1.1","battery-v0.2","","""event"",""trial"",""time""
""fullscreenenter"",""1"",""2295""
","
","
","""event"",""trial"",""time""
""fullscreenenter"",""1"",""2295""
","
","","[{""page_index"":0,""viewing_time"":3642.0000000001164}]","3643","","","","","","","","","","","","","","","","","","","","","","","","",""
"pit-comprehension","88","742534","0.0-2.0-23.0-0.0","battery-v0.2","","""event"",""trial"",""time""
""fullscreenenter"",""1"",""2295""
","
","
","""event"",""trial"",""time""
""fullscreenenter"",""1"",""2295""
","
","","","11018","[""False""]","1","12","1209","774","","","","","","","","","","","","","","","","","","","",""
"pit-instructions","89","744017","0.0-2.0-23.0-1.0","battery-v0.2","","""event"",""trial"",""time""
""fullscreenenter"",""1"",""2295""
","
","
","""event"",""trial"",""time""
""fullscreenenter"",""1"",""2295""
","
","","[{""page_index"":0,""viewing_time"":1430}]","1430","","","","","","","","","","","","","","","","","","","","","","","","",""
"pit-instructions","90","745352","0.0-2.0-23.0-2.0-0.0","battery-v0.2","","""event"",""trial"",""time""
""fullscreenenter"",""1"",""2295""
","
","
","""event"",""trial"",""time""
""fullscreenenter"",""1"",""2295""
","
","","[{""page_index"":0,""viewing_time"":1333}]","1333","","","","","","","","","","","","","","","","","","","","","","","","",""
"pit-comprehension","91","753589","0.0-2.0-23.1-0.1","battery-v0.2","","""event"",""trial"",""time""
""fullscreenenter"",""1"",""2295""
","
","
","""event"",""trial"",""time""
""fullscreenenter"",""1"",""2295""
","
","","","8234.999999999884","[""True""]","0","12","1209","774","","","","","","","","","","","","","","","","","","","",""
"pit-instructions","92","755537","0.0-2.0-23.1-1.1","battery-v0.2","","""event"",""trial"",""time""
""fullscreenenter"",""1"",""2295""
","
","
","""event"",""trial"",""time""
""fullscreenenter"",""1"",""2295""
","
","","[{""page_index"":0,""viewing_time"":1892}]","1892","","","","","","","","","","","","","","","","","","","","","","","","",""
"pit-comprehension","93","769094","0.0-2.0-24.0-0.0","battery-v0.2","","""event"",""trial"",""time""
""fullscreenenter"",""1"",""2295""
","
","
","""event"",""trial"",""time""
""fullscreenenter"",""1"",""2295""
","
","","","13553","[""True""]","0","12","1209","774","","","","","","","","","","","","","","","","","","","",""
"pit-instructions","94","770292","0.0-2.0-24.0-1.0","battery-v0.2","","""event"",""trial"",""time""
""fullscreenenter"",""1"",""2295""
","
","
","""event"",""trial"",""time""
""fullscreenenter"",""1"",""2295""
","
","","[{""page_index"":0,""viewing_time"":1140.9999999998836}]","1140.9999999998836","","","","","","","","","","","","","","","","","","","","","","","","",""
"pit-comprehension","95","778397","0.0-2.0-25.0-0.0","battery-v0.2","","""event"",""trial"",""time""
""fullscreenenter"",""1"",""2295""
","
","
","""event"",""trial"",""time""
""fullscreenenter"",""1"",""2295""
","
","","","8103","[""True""]","0","12","1209","774","","","","","","","","","","","","","","","","","","","",""
"pit-instructions","96","779778","0.0-2.0-25.0-1.0","battery-v0.2","","""event"",""trial"",""time""
""fullscreenenter"",""1"",""2295""
","
","
","""event"",""trial"",""time""
""fullscreenenter"",""1"",""2295""
","
","","[{""page_index"":0,""viewing_time"":1323}]","1323","","","","","","","","","","","","","","","","","","","","","","","","",""
"pit-comprehension","97","785248","0.0-2.0-26.0-0.0","battery-v0.2","","""event"",""trial"",""time""
""fullscreenenter"",""1"",""2295""
","
","
","""event"",""trial"",""time""
""fullscreenenter"",""1"",""2295""
","
","","","5466.999999999884","[""False""]","0","12","1209","774","","","","","","","","","","","","","","","","","","","",""
"pit-instructions","98","786515","0.0-2.0-26.0-1.0","battery-v0.2","","""event"",""trial"",""time""
""fullscreenenter"",""1"",""2295""
","
","
","""event"",""trial"",""time""
""fullscreenenter"",""1"",""2295""
","
","","[{""page_index"":0,""viewing_time"":1205}]","1206","","","","","","","","","","","","","","","","","","","","","","","","",""
"pit-instructions","99","802718","0.0-3.0","battery-v0.2","","""event"",""trial"",""time""
""fullscreenenter"",""1"",""2295""
","
","
","""event"",""trial"",""time""
""fullscreenenter"",""1"",""2295""
","
","","[{""page_index"":0,""viewing_time"":4500},{""page_index"":1,""viewing_time"":5250},{""page_index"":2,""viewing_time"":6451}]","16202","","","","","","","","","","","","","","","","","","","","","","","","",""
"pit-trial","100","806680","0.0-4.0","battery-v0.2","","""event"",""trial"",""time""
""fullscreenenter"",""1"",""2295""
","
","
","""event"",""trial"",""time""
""fullscreenenter"",""1"",""2295""
","
","","","1106","","","12","1209","774","&#9733;","elianto","#3366ff99","-1"," ","0","+10","[1957]","1","1","","","1209","1","2","2","win","no-go","1","[]"
"pit-trial","101","810279","0.0-5.0","battery-v0.2","","""event"",""trial"",""time""
""fullscreenenter"",""1"",""2295""
","
","
","""event"",""trial"",""time""
""fullscreenenter"",""1"",""2295""
","
","","","747","","","12","1209","774","&#9730;","elianto","#3366ff99"," "," ","1","+10","[1597]","1","1","","","1209","2","1","1","win","go","0","0"
"pit-trial","102","815132","0.0-6.0","battery-v0.2","","""event"",""trial"",""time""
""fullscreenenter"",""1"",""2295""
","
","
","""event"",""trial"",""time""
""fullscreenenter"",""1"",""2295""
","
","","","-1","","","12","1209","774","&#9752;","elianto","#f73b6a7A"," ","-1","0","0","[]","0","1","","","1209","3","3","3","lose","go","1","0"
"pit-trial","103","819033","0.0-7.0","battery-v0.2","","""event"",""trial"",""time""
""fullscreenenter"",""1"",""2295""
","
","
","""event"",""trial"",""time""
""fullscreenenter"",""1"",""2295""
","
","","","1045.0000000001164","","","12","1209","774","&#9728;","elianto","#f73b6a7A","-1"," ","0","-10","[1896.0000000001164]","1","1","","","1209","4","0","4","lose","no-go","0","0"
"pit-trial","104","823886","0.0-8.0","battery-v0.2","","""event"",""trial"",""time""
""fullscreenenter"",""1"",""2295""
","
","
","""event"",""trial"",""time""
""fullscreenenter"",""1"",""2295""
","
","","","-1","","","12","1209","774","&#9752;","elianto","#f73b6a7A"," ","-1","0","-10","[]","0","1","","","1209","5","3","3","lose","go","0","0"
"pit-trial","105","828056","0.0-9.0","battery-v0.2","","""event"",""trial"",""time""
""fullscreenenter"",""1"",""2295""
","
","
","""event"",""trial"",""time""
""fullscreenenter"",""1"",""2295""
","
","","","989.0000000001164","","","12","1209","774","&#9728;","elianto","#f73b6a7A","-1"," ","0","-10","[1839.0000000001164]","1","1","","","1209","6","0","4","lose","no-go","0","0"
"pit-trial","106","831724","0.0-10.0","battery-v0.2","","""event"",""trial"",""time""
""fullscreenenter"",""1"",""2295""
","
","
","""event"",""trial"",""time""
""fullscreenenter"",""1"",""2295""
","
","","","814","","","12","1209","774","&#9730;","elianto","#3366ff99"," "," ","1","+10","[1664]","1","1","","","1209","7","1","1","win","go","0","0"
"pit-trial","107","835492","0.0-11.0","battery-v0.2","","""event"",""trial"",""time""
""fullscreenenter"",""1"",""2295""
","
","
","""event"",""trial"",""time""
""fullscreenenter"",""1"",""2295""
","
","","","915","","","12","1209","774","&#9733;","elianto","#3366ff99","-1"," ","0","+10","[1766]","1","1","","","1209","8","2","2","win","no-go","1","0"
"pit-trial","108","839250","0.0-12.0","battery-v0.2","","""event"",""trial"",""time""
""fullscreenenter"",""1"",""2295""
","
","
","""event"",""trial"",""time""
""fullscreenenter"",""1"",""2295""
","
","","","904","","","12","1209","774","&#9733;","elianto","#3366ff99","-1"," ","0","0","[1755]","1","1","","","1209","9","2","2","win","no-go","0","0"
"pit-trial","109","844104","0.0-13.0","battery-v0.2","","""event"",""trial"",""time""
""fullscreenenter"",""1"",""2295""
","
","
","""event"",""trial"",""time""
""fullscreenenter"",""1"",""2295""
","
","","","-1","","","12","1209","774","&#9728;","elianto","#f73b6a7A","-1","-1","1","0","[]","0","1","","","1209","10","0","4","lose","no-go","0","0"
"pit-trial","110","847789","0.0-14.0","battery-v0.2","","""event"",""trial"",""time""
""fullscreenenter"",""1"",""2295""
","
","
","""event"",""trial"",""time""
""fullscreenenter"",""1"",""2295""
","
","","","832","","","12","1209","774","&#9730;","elianto","#3366ff99"," "," ","1","+10","[1682]","1","1","","","1209","11","1","1","win","go","0","0"
"pit-trial","111","851986","0.0-15.0","battery-v0.2","","""event"",""trial"",""time""
""fullscreenenter"",""1"",""2295""
","
","
","""event"",""trial"",""time""
""fullscreenenter"",""1"",""2295""
","
","","","1342.9999999998836","","","12","1209","774","&#9752;","elianto","#f73b6a7A"," "," ","1","0","[2193]","1","1","","","1209","12","3","3","lose","go","0","0"
"pit-trial","112","855551","0.0-16.0","battery-v0.2","","""event"",""trial"",""time""
""fullscreenenter"",""1"",""2295""
","
","
","""event"",""trial"",""time""
""fullscreenenter"",""1"",""2295""
","
","","","711.9999999998836","","","12","1209","774","&#9733;","elianto","#3366ff99","-1"," ","0","0","[1562.9999999998836]","1","1","","","1209","13","2","2","win","no-go","0","0"
"pit-trial","113","859658","0.0-17.0","battery-v0.2","","""event"",""trial"",""time""
""fullscreenenter"",""1"",""2295""
","
","
","""event"",""trial"",""time""
""fullscreenenter"",""1"",""2295""
","
","","","1252","","","12","1209","774","&#9728;","elianto","#f73b6a7A","-1"," ","0","-10","[2103]","1","1","","","1209","14","0","4","lose","no-go","0","0"
"pit-trial","114","864512","0.0-18.0","battery-v0.2","","""event"",""trial"",""time""
""fullscreenenter"",""1"",""2295""
","
","
","""event"",""trial"",""time""
""fullscreenenter"",""1"",""2295""
","
","","","-1","","","12","1209","774","&#9752;","elianto","#f73b6a7A"," ","-1","0","-10","[]","0","1","","","1209","15","3","3","lose","go","0","0"
"pit-trial","115","868197","0.0-19.0","battery-v0.2","","""event"",""trial"",""time""
""fullscreenenter"",""1"",""2295""
","
","
","""event"",""trial"",""time""
""fullscreenenter"",""1"",""2295""
","
","","","832","","","12","1209","774","&#9730;","elianto","#3366ff99"," "," ","1","+10","[1682]","1","1","","","1209","16","1","1","win","go","0","0"
"pit-trial","116","873052","0.0-20.0","battery-v0.2","","""event"",""trial"",""time""
""fullscreenenter"",""1"",""2295""
","
","
","""event"",""trial"",""time""
""fullscreenenter"",""1"",""2295""
","
","","","-1","","","12","1209","774","&#9752;","elianto","#f73b6a7A"," ","-1","0","0","[]","0","1","","","1209","17","3","3","lose","go","1","0"
"pit-trial","117","876510","0.0-21.0","battery-v0.2","","""event"",""trial"",""time""
""fullscreenenter"",""1"",""2295""
","
","
","""event"",""trial"",""time""
""fullscreenenter"",""1"",""2295""
","
","","","605","","","12","1209","774","&#9730;","elianto","#3366ff99"," "," ","1","+10","[1456]","1","1","","","1209","18","1","1","win","go","0","0"
"pit-trial","118","880291","0.0-22.0","battery-v0.2","","""event"",""trial"",""time""
""fullscreenenter"",""1"",""2295""
","
","
","""event"",""trial"",""time""
""fullscreenenter"",""1"",""2295""
","
","","","926.9999999998836","","","12","1209","774","&#9733;","elianto","#3366ff99","-1"," ","0","0","[1777.9999999998836]","1","1","","","1209","19","2","2","win","no-go","0","0"
"pit-trial","119","883936","0.0-23.0","battery-v0.2","","""event"",""trial"",""time""
""fullscreenenter"",""1"",""2295""
","
","
","""event"",""trial"",""time""
""fullscreenenter"",""1"",""2295""
","
","","","790.0000000001164","","","12","1209","774","&#9728;","elianto","#f73b6a7A","-1"," ","0","0","[1642.0000000001164]","1","1","","","1209","20","0","4","lose","no-go","1","0"
"pit-instructions","120","896092","0.0-24.0","battery-v0.2","","""event"",""trial"",""time""
""fullscreenenter"",""1"",""2295""
","
","
","""event"",""trial"",""time""
""fullscreenenter"",""1"",""2295""
","
","","[{""page_index"":0,""viewing_time"":5602.000000000116},{""page_index"":1,""viewing_time"":6550.999999999884}]","12154","","","","","","","","","","","","","","","","","","","","","","","","",""
"pit-trial","121","899799","0.0-25.0","battery-v0.2","","""event"",""trial"",""time""
""fullscreenenter"",""1"",""2295""
","
","
","""event"",""trial"",""time""
""fullscreenenter"",""1"",""2295""
","
","","","848.9999999998836","","","12","1209","774","m","elianto","#3366ff99","-1"," ","0","0","[1701]","1","2","","","1209","21","0","2","win","no-go","0","0"
"pit-trial","122","903377","0.0-26.0","battery-v0.2","","""event"",""trial"",""time""
""fullscreenenter"",""1"",""2295""
","
","
","""event"",""trial"",""time""
""fullscreenenter"",""1"",""2295""
","
","","","724.0000000001164","","","12","1209","774","h","elianto","#3366ff99"," "," ","1","+10","[1575.0000000001164]","1","2","","","1209","22","3","1","win","go","0","0"
"pit-trial","123","907077","0.0-27.0","battery-v0.2","","""event"",""trial"",""time""
""fullscreenenter"",""1"",""2295""
","
","
","""event"",""trial"",""time""
""fullscreenenter"",""1"",""2295""
","
","","","847","","","12","1209","774","y","elianto","#f73b6a7A","-1"," ","0","-10","[1697]","1","2","","","1209","23","2","4","lose","no-go","0","0"
"pit-trial","124","910959","0.0-28.0","battery-v0.2","","""event"",""trial"",""time""
""fullscreenenter"",""1"",""2295""
","
","
","""event"",""trial"",""time""
""fullscreenenter"",""1"",""2295""
","
","","","1028.0000000001164","","","12","1209","774","r","elianto","#f73b6a7A"," "," ","1","0","[1879.0000000001164]","1","2","","","1209","24","1","3","lose","go","0","0"
"pit-trial","125","914617","0.0-29.0","battery-v0.2","","""event"",""trial"",""time""
""fullscreenenter"",""1"",""2295""
","
","
","""event"",""trial"",""time""
""fullscreenenter"",""1"",""2295""
","
","","","803","","","12","1209","774","y","elianto","#f73b6a7A","-1"," ","0","-10","[1654]","1","2","","","1209","25","2","4","lose","no-go","0","0"
"pit-trial","126","918047","0.0-30.0","battery-v0.2","","""event"",""trial"",""time""
""fullscreenenter"",""1"",""2295""
","
","
","""event"",""trial"",""time""
""fullscreenenter"",""1"",""2295""
","
","","","577","","","12","1209","774","h","elianto","#3366ff99"," "," ","1","+10","[1428]","1","2","","","1209","26","3","1","win","go","0","0"
"pit-trial","127","921962","0.0-31.0","battery-v0.2","","""event"",""trial"",""time""
""fullscreenenter"",""1"",""2295""
","
","
","""event"",""trial"",""time""
""fullscreenenter"",""1"",""2295""
","
","","","1059","","","12","1209","774","m","elianto","#3366ff99","-1"," ","0","0","[1910.9999999998836]","1","2","","","1209","27","0","2","win","no-go","0","0"
"pit-trial","128","925799","0.0-32.0","battery-v0.2","","""event"",""trial"",""time""
""fullscreenenter"",""1"",""2295""
","
","
","""event"",""trial"",""time""
""fullscreenenter"",""1"",""2295""
","
","","","982","","","12","1209","774","r","elianto","#f73b6a7A"," "," ","1","0","[1833]","1","2","","","1209","28","1","3","lose","go","0","0"
"pit-trial","129","929544","0.0-33.0","battery-v0.2","","""event"",""trial"",""time""
""fullscreenenter"",""1"",""2295""
","
","
","""event"",""trial"",""time""
""fullscreenenter"",""1"",""2295""
","
","","","891","","","12","1209","774","r","elianto","#f73b6a7A"," "," ","1","0","[1742]","1","2","","","1209","29","1","3","lose","go","0","0"
"pit-trial","130","933010","0.0-34.0","battery-v0.2","","""event"",""trial"",""time""
""fullscreenenter"",""1"",""2295""
","
","
","""event"",""trial"",""time""
""fullscreenenter"",""1"",""2295""
","
","","","611","","","12","1209","774","h","elianto","#3366ff99"," "," ","1","+10","[1462]","1","2","","","1209","30","3","1","win","go","0","0"
"pit-trial","131","936812","0.0-35.0","battery-v0.2","","""event"",""trial"",""time""
""fullscreenenter"",""1"",""2295""
","
","
","""event"",""trial"",""time""
""fullscreenenter"",""1"",""2295""
","
","","","948.9999999998836","","","12","1209","774","y","elianto","#f73b6a7A","-1"," ","0","0","[1799.9999999998836]","1","2","","","1209","31","2","4","lose","no-go","1","0"
"pit-trial","132","941666","0.0-36.0","battery-v0.2","","""event"",""trial"",""time""
""fullscreenenter"",""1"",""2295""
","
","
","""event"",""trial"",""time""
""fullscreenenter"",""1"",""2295""
","
","","","-1","","","12","1209","774","m","elianto","#3366ff99","-1","-1","1","+10","[]","0","2","","","1209","32","0","2","win","no-go","0","0"
"pit-trial","133","945947","0.0-37.0","battery-v0.2","","""event"",""trial"",""time""
""fullscreenenter"",""1"",""2295""
","
","
","""event"",""trial"",""time""
""fullscreenenter"",""1"",""2295""
","
","","","1428","","","12","1209","774","r","elianto","#f73b6a7A"," "," ","1","0","[2278]","1","2","","","1209","33","1","3","lose","go","0","0"
"pit-trial","134","949716","0.0-38.0","battery-v0.2","","""event"",""trial"",""time""
""fullscreenenter"",""1"",""2295""
","
","
","""event"",""trial"",""time""
""fullscreenenter"",""1"",""2295""
","
","","","915","","","12","1209","774","m","elianto","#3366ff99","-1"," ","0","0","[1766]","1","2","","","1209","34","0","2","win","no-go","0","0"
"pit-trial","135","953597","0.0-39.0","battery-v0.2","","""event"",""trial"",""time""
""fullscreenenter"",""1"",""2295""
","
","
","""event"",""trial"",""time""
""fullscreenenter"",""1"",""2295""
","
","","","1027","","","12","1209","774","y","elianto","#f73b6a7A","-1"," ","0","-10","[1878]","1","2","","","1209","35","2","4","lose","no-go","0","0"
"pit-trial","136","957277","0.0-40.0","battery-v0.2","","""event"",""trial"",""time""
""fullscreenenter"",""1"",""2295""
","
","
","""event"",""trial"",""time""
""fullscreenenter"",""1"",""2295""
","
","","","825.0000000001164","","","12","1209","774","h","elianto","#3366ff99"," "," ","1","+10","[1676.0000000001164,2520]","2","2","","","1209","36","3","1","win","go","0","0"
"pit-trial","137","961292","0.0-41.0","battery-v0.2","","""event"",""trial"",""time""
""fullscreenenter"",""1"",""2295""
","
","
","""event"",""trial"",""time""
""fullscreenenter"",""1"",""2295""
","
","","","1161","","","12","1209","774","m","elianto","#3366ff99","-1"," ","0","0","[2012]","1","2","","","1209","37","0","2","win","no-go","0","0"
"pit-trial","138","966146","0.0-42.0","battery-v0.2","","""event"",""trial"",""time""
""fullscreenenter"",""1"",""2295""
","
","
","""event"",""trial"",""time""
""fullscreenenter"",""1"",""2295""
","
","","","-1","","","12","1209","774","r","elianto","#f73b6a7A"," ","-1","0","-10","[]","0","2","","","1209","38","1","3","lose","go","0","0"
"pit-trial","139","969302","0.0-43.0","battery-v0.2","","""event"",""trial"",""time""
""fullscreenenter"",""1"",""2295""
","
","
","""event"",""trial"",""time""
""fullscreenenter"",""1"",""2295""
","
","","","303","","","12","1209","774","h","elianto","#3366ff99"," "," ","1","0","[1154]","1","2","","","1209","39","3","1","win","go","1","0"
"pit-trial","140","972363","0.0-44.0","battery-v0.2","","""event"",""trial"",""time""
""fullscreenenter"",""1"",""2295""
","
","
","""event"",""trial"",""time""
""fullscreenenter"",""1"",""2295""
","
","","","207","","","12","1209","774","y","elianto","#f73b6a7A","-1"," ","0","-10","[1057.0000000001164]","1","2","","","1209","40","2","4","lose","no-go","0","0"
"pit-trial","141","975786","0.0-45.0","battery-v0.2","","""event"",""trial"",""time""
""fullscreenenter"",""1"",""2295""
","
","
","""event"",""trial"",""time""
""fullscreenenter"",""1"",""2295""
","
","","","565","","","12","1209","774","m","elianto","#3366ff99","-1"," ","0","0","[1417]","1","2","","","1209","41","0","2","win","no-go","0","0"
"pit-trial","142","979530","0.0-46.0","battery-v0.2","","""event"",""trial"",""time""
""fullscreenenter"",""1"",""2295""
","
","
","""event"",""trial"",""time""
""fullscreenenter"",""1"",""2295""
","
","","","889","","","12","1209","774","r","elianto","#f73b6a7A"," "," ","1","0","[1740]","1","2","","","1209","42","1","3","lose","go","0","0"
"pit-trial","143","983411","0.0-47.0","battery-v0.2","","""event"",""trial"",""time""
""fullscreenenter"",""1"",""2295""
","
","
","""event"",""trial"",""time""
""fullscreenenter"",""1"",""2295""
","
","","","1026.0000000001164","","","12","1209","774","y","elianto","#f73b6a7A","-1"," ","0","-10","[1877.0000000001164]","1","2","","","1209","43","2","4","lose","no-go","0","0"
"pit-trial","144","987158","0.0-48.0","battery-v0.2","","""event"",""trial"",""time""
""fullscreenenter"",""1"",""2295""
","
","
","""event"",""trial"",""time""
""fullscreenenter"",""1"",""2295""
","
","","","893","","","12","1209","774","h","elianto","#3366ff99"," "," ","1","+10","[1744]","1","2","","","1209","44","3","1","win","go","0","0"
"pit-trial","145","990836","0.0-49.0","battery-v0.2","","""event"",""trial"",""time""
""fullscreenenter"",""1"",""2295""
","
","
","""event"",""trial"",""time""
""fullscreenenter"",""1"",""2295""
","
","","","823.9999999998836","","","12","1209","774","y","elianto","#f73b6a7A","-1"," ","0","0","[1674.9999999998836]","1","2","","","1209","45","2","4","lose","no-go","1","0"
"pit-trial","146","994323","0.0-50.0","battery-v0.2","","""event"",""trial"",""time""
""fullscreenenter"",""1"",""2295""
","
","
","""event"",""trial"",""time""
""fullscreenenter"",""1"",""2295""
","
","","","632.9999999998836","","","12","1209","774","m","elianto","#3366ff99","-1"," ","0","+10","[1483.9999999998836]","1","2","","","1209","46","0","2","win","no-go","1","0"
"pit-trial","147","997935","0.0-51.0","battery-v0.2","","""event"",""trial"",""time""
""fullscreenenter"",""1"",""2295""
","
","
","""event"",""trial"",""time""
""fullscreenenter"",""1"",""2295""
","
","","","758.0000000001164","","","12","1209","774","r","elianto","#f73b6a7A"," "," ","1","-10","[1609.0000000001164]","1","2","","","1209","47","1","3","lose","go","1","0"
"pit-trial","148","1001266","0.0-52.0","battery-v0.2","","""event"",""trial"",""time""
""fullscreenenter"",""1"",""2295""
","
","
","""event"",""trial"",""time""
""fullscreenenter"",""1"",""2295""
","
","","","477","","","12","1209","774","h","elianto","#3366ff99"," "," ","1","0","[1328]","1","2","","","1209","48","3","1","win","go","1","0"
"pit-trial","149","1004663","0.0-53.0","battery-v0.2","","""event"",""trial"",""time""
""fullscreenenter"",""1"",""2295""
","
","
","""event"",""trial"",""time""
""fullscreenenter"",""1"",""2295""
","
","","","541","","","12","1209","774","r","elianto","#f73b6a7A"," "," ","1","0","[1392]","1","2","","","1209","49","1","3","lose","go","0","0"
"pit-trial","150","1007745","0.0-54.0","battery-v0.2","","""event"",""trial"",""time""
""fullscreenenter"",""1"",""2295""
","
","
","""event"",""trial"",""time""
""fullscreenenter"",""1"",""2295""
","
","","","227.99999999988358","","","12","1209","774","h","elianto","#3366ff99"," "," ","1","+10","[1078.9999999998836]","1","2","","","1209","50","3","1","win","go","0","0"
"pit-trial","151","1012600","0.0-55.0","battery-v0.2","","""event"",""trial"",""time""
""fullscreenenter"",""1"",""2295""
","
","
","""event"",""trial"",""time""
""fullscreenenter"",""1"",""2295""
","
","","","-1","","","12","1209","774","y","elianto","#f73b6a7A","-1","-1","1","0","[]","0","2","","","1209","51","2","4","lose","no-go","0","0"
"pit-trial","152","1016418","0.0-56.0","battery-v0.2","","""event"",""trial"",""time""
""fullscreenenter"",""1"",""2295""
","
","
","""event"",""trial"",""time""
""fullscreenenter"",""1"",""2295""
","
","","","964.9999999998836","","","12","1209","774","m","elianto","#3366ff99","-1"," ","0","0","[1815.9999999998836]","1","2","","","1209","52","0","2","win","no-go","0","0"
"pit-trial","153","1020243","0.0-57.0","battery-v0.2","","""event"",""trial"",""time""
""fullscreenenter"",""1"",""2295""
","
","
","""event"",""trial"",""time""
""fullscreenenter"",""1"",""2295""
","
","","","972","","","12","1209","774","c","elianto","#f73b6a7A","-1"," ","0","-10","[1823]","1","2","","","1209","53","5","4","lose","no-go","0","0"
"pit-trial","154","1023596","0.0-58.0","battery-v0.2","","""event"",""trial"",""time""
""fullscreenenter"",""1"",""2295""
","
","
","""event"",""trial"",""time""
""fullscreenenter"",""1"",""2295""
","
","","","498.9999999998836","","","12","1209","774","z","elianto","#f73b6a7A"," "," ","1","0","[1348.9999999998836]","1","2","","","1209","54","4","3","lose","go","0","0"
"pit-trial","155","1027973","0.0-59.0","battery-v0.2","","""event"",""trial"",""time""
""fullscreenenter"",""1"",""2295""
","
","
","""event"",""trial"",""time""
""fullscreenenter"",""1"",""2295""
","
","","","1523.0000000002328","","","12","1209","774","y","elianto","#f73b6a7A","-1"," ","0","0","[2374.0000000001164]","1","2","","","1209","55","2","4","lose","no-go","1","0"
"pit-trial","156","1031630","0.0-60.0","battery-v0.2","","""event"",""trial"",""time""
""fullscreenenter"",""1"",""2295""
","
","
","""event"",""trial"",""time""
""fullscreenenter"",""1"",""2295""
","
","","","802.9999999998836","","","12","1209","774","r","elianto","#f73b6a7A"," "," ","1","0","[1654]","1","2","","","1209","56","1","3","lose","go","0","0"
"pit-trial","157","1036062","0.0-61.0","battery-v0.2","","""event"",""trial"",""time""
""fullscreenenter"",""1"",""2295""
","
","
","""event"",""trial"",""time""
""fullscreenenter"",""1"",""2295""
","
","","","1578","","","12","1209","774","c","elianto","#f73b6a7A","-1"," ","0","-10","[2429.0000000001164]","1","2","","","1209","57","5","4","lose","no-go","0","0"
"pit-trial","158","1039808","0.0-62.0","battery-v0.2","","""event"",""trial"",""time""
""fullscreenenter"",""1"",""2295""
","
","
","""event"",""trial"",""time""
""fullscreenenter"",""1"",""2295""
","
","","","892","","","12","1209","774","z","elianto","#f73b6a7A"," "," ","1","0","[1742.0000000002328]","1","2","","","1209","58","4","3","lose","go","0","0"
"pit-trial","159","1043690","0.0-63.0","battery-v0.2","","""event"",""trial"",""time""
""fullscreenenter"",""1"",""2295""
","
","
","""event"",""trial"",""time""
""fullscreenenter"",""1"",""2295""
","
","","","1026.9999999998836","","","12","1209","774","r","elianto","#f73b6a7A"," "," ","1","0","[1878]","1","2","","","1209","59","1","3","lose","go","0","0"
"pit-trial","160","1047300","0.0-64.0","battery-v0.2","","""event"",""trial"",""time""
""fullscreenenter"",""1"",""2295""
","
","
","""event"",""trial"",""time""
""fullscreenenter"",""1"",""2295""
","
","","","757","","","12","1209","774","y","elianto","#f73b6a7A","-1"," ","0","0","[1607.9999999998836]","1","2","","","1209","60","2","4","lose","no-go","1","0"
"pit-trial","161","1051036","0.0-65.0","battery-v0.2","","""event"",""trial"",""time""
""fullscreenenter"",""1"",""2295""
","
","
","""event"",""trial"",""time""
""fullscreenenter"",""1"",""2295""
","
","","","882","","","12","1209","774","b","elianto","#3366ff99","-1"," ","0","0","[1732]","1","2","","","1209","61","6","2","win","no-go","0","0"
"pit-trial","162","1054546","0.0-66.0","battery-v0.2","","""event"",""trial"",""time""
""fullscreenenter"",""1"",""2295""
","
","
","""event"",""trial"",""time""
""fullscreenenter"",""1"",""2295""
","
","","","656","","","12","1209","774","z","elianto","#f73b6a7A"," "," ","1","0","[1506]","1","2","","","1209","62","4","3","lose","go","0","0"
"pit-trial","163","1057999","0.0-67.0","battery-v0.2","","""event"",""trial"",""time""
""fullscreenenter"",""1"",""2295""
","
","
","""event"",""trial"",""time""
""fullscreenenter"",""1"",""2295""
","
","","","600.0000000002328","","","12","1209","774","y","elianto","#f73b6a7A","-1"," ","0","-10","[1450.0000000002328]","1","2","","","1209","63","2","4","lose","no-go","0","0"
"pit-trial","164","1061983","0.0-68.0","battery-v0.2","","""event"",""trial"",""time""
""fullscreenenter"",""1"",""2295""
","
","
","""event"",""trial"",""time""
""fullscreenenter"",""1"",""2295""
","
","","","1129","","","12","1209","774","c","elianto","#f73b6a7A","-1"," ","0","0","[1980]","1","2","","","1209","64","5","4","lose","no-go","1","0"
"pit-trial","165","1066336","0.0-69.0","battery-v0.2","","""event"",""trial"",""time""
""fullscreenenter"",""1"",""2295""
","
","
","""event"",""trial"",""time""
""fullscreenenter"",""1"",""2295""
","
","","","1500","","","12","1209","774","c","elianto","#f73b6a7A","-1"," ","0","-10","[2351]","1","2","","","1209","65","5","4","lose","no-go","0","0"
"pit-trial","166","1071191","0.0-70.0","battery-v0.2","","""event"",""trial"",""time""
""fullscreenenter"",""1"",""2295""
","
","
","""event"",""trial"",""time""
""fullscreenenter"",""1"",""2295""
","
","","","-1","","","12","1209","774","y","elianto","#f73b6a7A","-1","-1","1","0","[3724]","1","2","","","1209","66","2","4","lose","no-go","0","0"
"pit-trial","167","1074885","0.0-71.0","battery-v0.2","","""event"",""trial"",""time""
""fullscreenenter"",""1"",""2295""
","
","
","""event"",""trial"",""time""
""fullscreenenter"",""1"",""2295""
","
","","","842","","","12","1209","774","z","elianto","#f73b6a7A"," "," ","1","0","[1692]","1","2","","","1209","67","4","3","lose","go","0","0"
"pit-trial","168","1079740","0.0-72.0","battery-v0.2","","""event"",""trial"",""time""
""fullscreenenter"",""1"",""2295""
","
","
","""event"",""trial"",""time""
""fullscreenenter"",""1"",""2295""
","
","","","-1","","","12","1209","774","b","elianto","#3366ff99","-1","-1","1","+10","[]","0","2","","","1209","68","6","2","win","no-go","0","0"
"pit-trial","169","1083764","0.0-73.0","battery-v0.2","","""event"",""trial"",""time""
""fullscreenenter"",""1"",""2295""
","
","
","""event"",""trial"",""time""
""fullscreenenter"",""1"",""2295""
","
","","","1170","","","12","1209","774","z","elianto","#f73b6a7A"," "," ","1","0","[2020]","1","2","","","1209","69","4","3","lose","go","0","0"
"pit-trial","170","1087497","0.0-74.0","battery-v0.2","","""event"",""trial"",""time""
""fullscreenenter"",""1"",""2295""
","
","
","""event"",""trial"",""time""
""fullscreenenter"",""1"",""2295""
","
","","","879","","","12","1209","774","c","elianto","#f73b6a7A","-1"," ","0","-10","[1730]","1","2","","","1209","70","5","4","lose","no-go","0","0"
"pit-trial","171","1092335","0.0-75.0","battery-v0.2","","""event"",""trial"",""time""
""fullscreenenter"",""1"",""2295""
","
","
","""event"",""trial"",""time""
""fullscreenenter"",""1"",""2295""
","
","","","1984.0000000002328","","","12","1209","774","b","elianto","#3366ff99","-1"," ","0","+10","[2835.000000000233]","1","2","","","1209","71","6","2","win","no-go","1","0"
"pit-trial","172","1096070","0.0-76.0","battery-v0.2","","""event"",""trial"",""time""
""fullscreenenter"",""1"",""2295""
","
","
","""event"",""trial"",""time""
""fullscreenenter"",""1"",""2295""
","
","","","882","","","12","1209","774","t","elianto","#3366ff99"," "," ","1","+10","[1732]","1","2","","","1209","72","7","1","win","go","0","0"
"pit-trial","173","1100717","0.0-77.0","battery-v0.2","","""event"",""trial"",""time""
""fullscreenenter"",""1"",""2295""
","
","
","""event"",""trial"",""time""
""fullscreenenter"",""1"",""2295""
","
","","","1793","","","12","1209","774","t","elianto","#3366ff99"," "," ","1","+10","[2644]","1","2","","","1209","73","7","1","win","go","0","0"
"pit-trial","174","1105572","0.0-78.0","battery-v0.2","","""event"",""trial"",""time""
""fullscreenenter"",""1"",""2295""
","
","
","""event"",""trial"",""time""
""fullscreenenter"",""1"",""2295""
","
","","","-1","","","12","1209","774","c","elianto","#f73b6a7A","-1","-1","1","0","[]","0","2","","","1209","74","5","4","lose","no-go","0","0"
"pit-trial","175","1109379","0.0-79.0","battery-v0.2","","""event"",""trial"",""time""
""fullscreenenter"",""1"",""2295""
","
","
","""event"",""trial"",""time""
""fullscreenenter"",""1"",""2295""
","
","","","954","","","12","1209","774","z","elianto","#f73b6a7A"," "," ","1","0","[1804]","1","2","","","1209","75","4","3","lose","go","0","0"
"pit-trial","176","1113744","0.0-80.0","battery-v0.2","","""event"",""trial"",""time""
""fullscreenenter"",""1"",""2295""
","
","
","""event"",""trial"",""time""
""fullscreenenter"",""1"",""2295""
","
","","","1510","","","12","1209","774","b","elianto","#3366ff99","-1"," ","0","0","[2360.999999999767]","1","2","","","1209","76","6","2","win","no-go","0","0"
"pit-trial","177","1117299","0.0-81.0","battery-v0.2","","""event"",""trial"",""time""
""fullscreenenter"",""1"",""2295""
","
","
","""event"",""trial"",""time""
""fullscreenenter"",""1"",""2295""
","
","","","701","","","12","1209","774","t","elianto","#3366ff99"," "," ","1","0","[1552]","1","2","","","1209","77","7","1","win","go","1","0"
"pit-trial","178","1122154","0.0-82.0","battery-v0.2","","""event"",""trial"",""time""
""fullscreenenter"",""1"",""2295""
","
","
","""event"",""trial"",""time""
""fullscreenenter"",""1"",""2295""
","
","","","-1","","","12","1209","774","z","elianto","#f73b6a7A"," ","-1","0","-10","[]","0","2","","","1209","78","4","3","lose","go","0","0"
"pit-trial","179","1125265","0.0-83.0","battery-v0.2","","""event"",""trial"",""time""
""fullscreenenter"",""1"",""2295""
","
","
","""event"",""trial"",""time""
""fullscreenenter"",""1"",""2295""
","
","","","256.99999999976717","","","12","1209","774","b","elianto","#3366ff99","-1"," ","0","0","[1108]","1","2","","","1209","79","6","2","win","no-go","0","0"
"pit-trial","180","1128966","0.0-84.0","battery-v0.2","","""event"",""trial"",""time""
""fullscreenenter"",""1"",""2295""
","
","
","""event"",""trial"",""time""
""fullscreenenter"",""1"",""2295""
","
","","","847","","","12","1209","774","c","elianto","#f73b6a7A","-1"," ","0","0","[1697.9999999997672]","1","2","","","1209","80","5","4","lose","no-go","1","0"
"pit-trial","181","1131913","0.0-85.0","battery-v0.2","","""event"",""trial"",""time""
""fullscreenenter"",""1"",""2295""
","
","
","""event"",""trial"",""time""
""fullscreenenter"",""1"",""2295""
","
","","","94","","","12","1209","774","b","elianto","#3366ff99","-1"," ","0","0","[943.9999999997672]","1","2","","","1209","81","6","2","win","no-go","0","0"
"pit-trial","182","1135244","0.0-86.0","battery-v0.2","","""event"",""trial"",""time""
""fullscreenenter"",""1"",""2295""
","
","
","""event"",""trial"",""time""
""fullscreenenter"",""1"",""2295""
","
","","","475.99999999976717","","","12","1209","774","z","elianto","#f73b6a7A"," "," ","1","0","[595,1327]","2","2","","","1209","82","4","3","lose","go","0","0"
"pit-trial","183","1138743","0.0-87.0","battery-v0.2","","""event"",""trial"",""time""
""fullscreenenter"",""1"",""2295""
","
","
","""event"",""trial"",""time""
""fullscreenenter"",""1"",""2295""
","
","","","644","","","12","1209","774","t","elianto","#3366ff99"," "," ","1","+10","[1494]","1","2","","","1209","83","7","1","win","go","0","0"
"pit-trial","184","1142432","0.0-88.0","battery-v0.2","","""event"",""trial"",""time""
""fullscreenenter"",""1"",""2295""
","
","
","""event"",""trial"",""time""
""fullscreenenter"",""1"",""2295""
","
","","","836","","","12","1209","774","c","elianto","#f73b6a7A","-1"," ","0","0","[1687]","1","2","","","1209","84","5","4","lose","no-go","1","0"
"pit-trial","185","1145942","0.0-89.0","battery-v0.2","","""event"",""trial"",""time""
""fullscreenenter"",""1"",""2295""
","
","
","""event"",""trial"",""time""
""fullscreenenter"",""1"",""2295""
","
","","","657","","","12","1209","774","c","elianto","#f73b6a7A","-1"," ","0","-10","[1508]","1","2","","","1209","85","5","4","lose","no-go","0","0"
"pit-trial","186","1150797","0.0-90.0","battery-v0.2","","""event"",""trial"",""time""
""fullscreenenter"",""1"",""2295""
","
","
","""event"",""trial"",""time""
""fullscreenenter"",""1"",""2295""
","
","","","-1","","","12","1209","774","b","elianto","#3366ff99","-1","-1","1","+10","[]","0","2","","","1209","86","6","2","win","no-go","0","0"
"pit-trial","187","1154370","0.0-91.0","battery-v0.2","","""event"",""trial"",""time""
""fullscreenenter"",""1"",""2295""
","
","
","""event"",""trial"",""time""
""fullscreenenter"",""1"",""2295""
","
","","","718","","","12","1209","774","z","elianto","#f73b6a7A"," "," ","1","0","[1569]","1","2","","","1209","87","4","3","lose","go","0","0"
"pit-trial","188","1157745","0.0-92.0","battery-v0.2","","""event"",""trial"",""time""
""fullscreenenter"",""1"",""2295""
","
","
","""event"",""trial"",""time""
""fullscreenenter"",""1"",""2295""
","
","","","520","","","12","1209","774","t","elianto","#3366ff99"," "," ","1","+10","[1371]","1","2","","","1209","88","7","1","win","go","0","0"
"pit-trial","189","1161411","0.0-93.0","battery-v0.2","","""event"",""trial"",""time""
""fullscreenenter"",""1"",""2295""
","
","
","""event"",""trial"",""time""
""fullscreenenter"",""1"",""2295""
","
","","","813.0000000002328","","","12","1209","774","t","elianto","#3366ff99"," "," ","1","+10","[1664.0000000002328]","1","2","","","1209","89","7","1","win","go","0","0"
"pit-trial","190","1166265","0.0-94.0","battery-v0.2","","""event"",""trial"",""time""
""fullscreenenter"",""1"",""2295""
","
","
","""event"",""trial"",""time""
""fullscreenenter"",""1"",""2295""
","
","","","-1","","","12","1209","774","c","elianto","#f73b6a7A","-1","-1","1","0","[2868]","1","2","","","1209","90","5","4","lose","no-go","0","0"
"pit-trial","191","1169557","0.0-95.0","battery-v0.2","","""event"",""trial"",""time""
""fullscreenenter"",""1"",""2295""
","
","
","""event"",""trial"",""time""
""fullscreenenter"",""1"",""2295""
","
","","","437","","","12","1209","774","z","elianto","#f73b6a7A"," "," ","1","-10","[1288]","1","2","","","1209","91","4","3","lose","go","1","0"
"pit-trial","192","1174079","0.0-96.0","battery-v0.2","","""event"",""trial"",""time""
""fullscreenenter"",""1"",""2295""
","
","
","""event"",""trial"",""time""
""fullscreenenter"",""1"",""2295""
","
","","","1670","","","12","1209","774","b","elianto","#3366ff99","-1"," ","0","0","[2520]","1","2","","","1209","92","6","2","win","no-go","0","0"
"pit-trial","193","1177714","0.0-97.0","battery-v0.2","","""event"",""trial"",""time""
""fullscreenenter"",""1"",""2295""
","
","
","""event"",""trial"",""time""
""fullscreenenter"",""1"",""2295""
","
","","","780","","","12","1209","774","x","elianto","#3366ff99"," "," ","1","+10","[1631]","1","2","","","1209","93","8","1","win","go","0","0"
"pit-trial","194","1181358","0.0-98.0","battery-v0.2","","""event"",""trial"",""time""
""fullscreenenter"",""1"",""2295""
","
","
","""event"",""trial"",""time""
""fullscreenenter"",""1"",""2295""
","
","","","791","","","12","1209","774","b","elianto","#3366ff99","-1"," ","0","0","[1642]","1","2","","","1209","94","6","2","win","no-go","0","0"
"pit-trial","195","1185229","0.0-99.0","battery-v0.2","","""event"",""trial"",""time""
""fullscreenenter"",""1"",""2295""
","
","
","""event"",""trial"",""time""
""fullscreenenter"",""1"",""2295""
","
","","","1018","","","12","1209","774","t","elianto","#3366ff99"," "," ","1","+10","[1868]","1","2","","","1209","95","7","1","win","go","0","0"
"pit-trial","196","1190085","0.0-100.0","battery-v0.2","","""event"",""trial"",""time""
""fullscreenenter"",""1"",""2295""
","
","
","""event"",""trial"",""time""
""fullscreenenter"",""1"",""2295""
","
","","","-1","","","12","1209","774","z","elianto","#f73b6a7A"," ","-1","0","-10","[]","0","2","","","1209","96","4","3","lose","go","0","0"
"pit-trial","197","1194026","0.0-101.0","battery-v0.2","","""event"",""trial"",""time""
""fullscreenenter"",""1"",""2295""
","
","
","""event"",""trial"",""time""
""fullscreenenter"",""1"",""2295""
","
","","","1088","","","12","1209","774","b","elianto","#3366ff99","-1"," ","0","0","[1938]","1","2","","","1209","97","6","2","win","no-go","0","0"
"pit-trial","198","1197334","0.0-102.0","battery-v0.2","","""event"",""trial"",""time""
""fullscreenenter"",""1"",""2295""
","
","
","""event"",""trial"",""time""
""fullscreenenter"",""1"",""2295""
","
","","","453","","","12","1209","774","x","elianto","#3366ff99"," "," ","1","+10","[1304]","1","2","","","1209","98","8","1","win","go","0","0"
"pit-trial","199","1200731","0.0-103.0","battery-v0.2","","""event"",""trial"",""time""
""fullscreenenter"",""1"",""2295""
","
","
","""event"",""trial"",""time""
""fullscreenenter"",""1"",""2295""
","
","","","543","","","12","1209","774","t","elianto","#3366ff99"," "," ","1","+10","[1394]","1","2","","","1209","99","7","1","win","go","0","0"
"pit-trial","200","1205585","0.0-104.0","battery-v0.2","","""event"",""trial"",""time""
""fullscreenenter"",""1"",""2295""
","
","
","""event"",""trial"",""time""
""fullscreenenter"",""1"",""2295""
","
","","","-1","","","12","1209","774","z","elianto","#f73b6a7A"," ","-1","0","-10","[]","0","2","","","1209","100","4","3","lose","go","0","0"
"pit-trial","201","1209112","0.0-105.0","battery-v0.2","","""event"",""trial"",""time""
""fullscreenenter"",""1"",""2295""
","
","
","""event"",""trial"",""time""
""fullscreenenter"",""1"",""2295""
","
","","","673","","","12","1209","774","t","elianto","#3366ff99"," "," ","1","0","[1524]","1","2","","","1209","101","7","1","win","go","1","0"
"pit-trial","202","1212555","0.0-106.0","battery-v0.2","","""event"",""trial"",""time""
""fullscreenenter"",""1"",""2295""
","
","
","""event"",""trial"",""time""
""fullscreenenter"",""1"",""2295""
","
","","","589.0000000002328","","","12","1209","774","b","elianto","#3366ff99","-1"," ","0","0","[1440.0000000002328]","1","2","","","1209","102","6","2","win","no-go","0","0"
"pit-trial","203","1217410","0.0-107.0","battery-v0.2","","""event"",""trial"",""time""
""fullscreenenter"",""1"",""2295""
","
","
","""event"",""trial"",""time""
""fullscreenenter"",""1"",""2295""
","
","","","-1","","","12","1209","774","f","elianto","#3366ff99","-1","-1","1","+10","[]","0","2","","","1209","103","9","2","win","no-go","0","0"
"pit-trial","204","1221453","0.0-108.0","battery-v0.2","","""event"",""trial"",""time""
""fullscreenenter"",""1"",""2295""
","
","
","""event"",""trial"",""time""
""fullscreenenter"",""1"",""2295""
","
","","","1189","","","12","1209","774","x","elianto","#3366ff99"," "," ","1","+10","[2040]","1","2","","","1209","104","8","1","win","go","0","0"
"pit-trial","205","1225909","0.0-109.0","battery-v0.2","","""event"",""trial"",""time""
""fullscreenenter"",""1"",""2295""
","
","
","""event"",""trial"",""time""
""fullscreenenter"",""1"",""2295""
","
","","","1603","","","12","1209","774","f","elianto","#3366ff99","-1"," ","0","0","[2453]","1","2","","","1209","105","9","2","win","no-go","0","0"
"pit-trial","206","1229475","0.0-110.0","battery-v0.2","","""event"",""trial"",""time""
""fullscreenenter"",""1"",""2295""
","
","
","""event"",""trial"",""time""
""fullscreenenter"",""1"",""2295""
","
","","","712","","","12","1209","774","t","elianto","#3366ff99"," "," ","1","0","[1563]","1","2","","","1209","106","7","1","win","go","1","0"
"pit-trial","207","1234328","0.0-111.0","battery-v0.2","","""event"",""trial"",""time""
""fullscreenenter"",""1"",""2295""
","
","
","""event"",""trial"",""time""
""fullscreenenter"",""1"",""2295""
","
","","","-1","","","12","1209","774","x","elianto","#3366ff99"," ","-1","0","0","[4544.999999999767]","1","2","","","1209","107","8","1","win","go","0","0"
"pit-trial","208","1238025","0.0-112.0","battery-v0.2","","""event"",""trial"",""time""
""fullscreenenter"",""1"",""2295""
","
","
","""event"",""trial"",""time""
""fullscreenenter"",""1"",""2295""
","
","","","842","","","12","1209","774","b","elianto","#3366ff99","-1"," ","0","0","[1693]","1","2","","","1209","108","6","2","win","no-go","0","0"
"pit-trial","209","1242879","0.0-113.0","battery-v0.2","","""event"",""trial"",""time""
""fullscreenenter"",""1"",""2295""
","
","
","""event"",""trial"",""time""
""fullscreenenter"",""1"",""2295""
","
","","","-1","","","12","1209","774","x","elianto","#3366ff99"," ","-1","0","0","[]","0","2","","","1209","109","8","1","win","go","0","0"
"pit-trial","210","1246384","0.0-114.0","battery-v0.2","","""event"",""trial"",""time""
""fullscreenenter"",""1"",""2295""
","
","
","""event"",""trial"",""time""
""fullscreenenter"",""1"",""2295""
","
","","","651","","","12","1209","774","f","elianto","#3366ff99","-1"," ","0","0","[1501.9999999997672]","1","2","","","1209","110","9","2","win","no-go","0","0"
"pit-trial","211","1251238","0.0-115.0","battery-v0.2","","""event"",""trial"",""time""
""fullscreenenter"",""1"",""2295""
","
","
","""event"",""trial"",""time""
""fullscreenenter"",""1"",""2295""
","
","","","-1","","","12","1209","774","n","elianto","#f73b6a7A"," ","-1","0","0","[]","0","2","","","1209","111","10","3","lose","go","1","0"
"pit-trial","212","1255001","0.0-116.0","battery-v0.2","","""event"",""trial"",""time""
""fullscreenenter"",""1"",""2295""
","
","
","""event"",""trial"",""time""
""fullscreenenter"",""1"",""2295""
","
","","","910","","","12","1209","774","q","elianto","#f73b6a7A","-1"," ","0","0","[1760]","1","2","","","1209","112","11","4","lose","no-go","1","0"
"pit-trial","213","1258861","0.0-117.0","battery-v0.2","","""event"",""trial"",""time""
""fullscreenenter"",""1"",""2295""
","
","
","""event"",""trial"",""time""
""fullscreenenter"",""1"",""2295""
","
","","","1006","","","12","1209","774","f","elianto","#3366ff99","-1"," ","0","+10","[1856]","1","2","","","1209","113","9","2","win","no-go","1","0"
"pit-trial","214","1262820","0.0-118.0","battery-v0.2","","""event"",""trial"",""time""
""fullscreenenter"",""1"",""2295""
","
","
","""event"",""trial"",""time""
""fullscreenenter"",""1"",""2295""
","
","","","1105","","","12","1209","774","n","elianto","#f73b6a7A"," "," ","1","0","[1957]","1","2","","","1209","114","10","3","lose","go","0","0"
"pit-trial","215","1267675","0.0-119.0","battery-v0.2","","""event"",""trial"",""time""
""fullscreenenter"",""1"",""2295""
","
","
","""event"",""trial"",""time""
""fullscreenenter"",""1"",""2295""
","
","","","-1","","","12","1209","774","x","elianto","#3366ff99"," ","-1","0","0","[67,3003]","2","2","","","1209","115","8","1","win","go","0","0"
"pit-trial","216","1272529","0.0-120.0","battery-v0.2","","""event"",""trial"",""time""
""fullscreenenter"",""1"",""2295""
","
","
","""event"",""trial"",""time""
""fullscreenenter"",""1"",""2295""
","
","","","-1","","","12","1209","774","q","elianto","#f73b6a7A","-1","-1","1","0","[4765]","1","2","","","1209","116","11","4","lose","no-go","0","0"
"pit-trial","217","1277384","0.0-121.0","battery-v0.2","","""event"",""trial"",""time""
""fullscreenenter"",""1"",""2295""
","
","
","""event"",""trial"",""time""
""fullscreenenter"",""1"",""2295""
","
","","","-1","","","12","1209","774","n","elianto","#f73b6a7A"," ","-1","0","-10","[]","0","2","","","1209","117","10","3","lose","go","0","0"
"pit-trial","218","1280642","0.0-122.0","battery-v0.2","","""event"",""trial"",""time""
""fullscreenenter"",""1"",""2295""
","
","
","""event"",""trial"",""time""
""fullscreenenter"",""1"",""2295""
","
","","","404","","","12","1209","774","f","elianto","#3366ff99","-1"," ","0","+10","[1255.0000000002328]","1","2","","","1209","118","9","2","win","no-go","1","0"
"pit-trial","219","1284860","0.0-123.0","battery-v0.2","","""event"",""trial"",""time""
""fullscreenenter"",""1"",""2295""
","
","
","""event"",""trial"",""time""
""fullscreenenter"",""1"",""2295""
","
","","","1366","","","12","1209","774","x","elianto","#3366ff99"," "," ","1","+10","[2216]","1","2","","","1209","119","8","1","win","go","0","0"
"pit-trial","220","1288922","0.0-124.0","battery-v0.2","","""event"",""trial"",""time""
""fullscreenenter"",""1"",""2295""
","
","
","""event"",""trial"",""time""
""fullscreenenter"",""1"",""2295""
","
","","","1207","","","12","1209","774","q","elianto","#f73b6a7A","-1"," ","0","0","[2058]","1","2","","","1209","120","11","4","lose","no-go","1","0"
"pit-trial","221","1292858","0.0-125.0","battery-v0.2","","""event"",""trial"",""time""
""fullscreenenter"",""1"",""2295""
","
","
","""event"",""trial"",""time""
""fullscreenenter"",""1"",""2295""
","
","","","1082.9999999997672","","","12","1209","774","x","elianto","#3366ff99"," "," ","1","+10","[1933]","1","2","","","1209","121","8","1","win","go","0","0"
"pit-trial","222","1296234","0.0-126.0","battery-v0.2","","""event"",""trial"",""time""
""fullscreenenter"",""1"",""2295""
","
","
","""event"",""trial"",""time""
""fullscreenenter"",""1"",""2295""
","
","","","523","","","12","1209","774","q","elianto","#f73b6a7A","-1"," ","0","-10","[203.00000000023283,1373]","2","2","","","1209","122","11","4","lose","no-go","0","0"
"pit-trial","223","1300094","0.0-127.0","battery-v0.2","","""event"",""trial"",""time""
""fullscreenenter"",""1"",""2295""
","
","
","""event"",""trial"",""time""
""fullscreenenter"",""1"",""2295""
","
","","","1006.0000000002328","","","12","1209","774","n","elianto","#f73b6a7A"," "," ","1","0","[1857.0000000002328]","1","2","","","1209","123","10","3","lose","go","0","0"
"pit-trial","224","1304807","0.0-128.0","battery-v0.2","","""event"",""trial"",""time""
""fullscreenenter"",""1"",""2295""
","
","
","""event"",""trial"",""time""
""fullscreenenter"",""1"",""2295""
","
","","","1858","","","12","1209","774","f","elianto","#3366ff99","-1"," ","0","0","[2709]","1","2","","","1209","124","9","2","win","no-go","0","0"
"pit-trial","225","1308453","0.0-129.0","battery-v0.2","","""event"",""trial"",""time""
""fullscreenenter"",""1"",""2295""
","
","
","""event"",""trial"",""time""
""fullscreenenter"",""1"",""2295""
","
","","","790","","","12","1209","774","f","elianto","#3366ff99","-1"," ","0","0","[1640]","1","2","","","1209","125","9","2","win","no-go","0","0"
"pit-trial","226","1312311","0.0-130.0","battery-v0.2","","""event"",""trial"",""time""
""fullscreenenter"",""1"",""2295""
","
","
","""event"",""trial"",""time""
""fullscreenenter"",""1"",""2295""
","
","","","1004","","","12","1209","774","n","elianto","#f73b6a7A"," "," ","1","0","[1855]","1","2","","","1209","126","10","3","lose","go","0","0"
"pit-trial","227","1316035","0.0-131.0","battery-v0.2","","""event"",""trial"",""time""
""fullscreenenter"",""1"",""2295""
","
","
","""event"",""trial"",""time""
""fullscreenenter"",""1"",""2295""
","
","","","871","","","12","1209","774","x","elianto","#3366ff99"," "," ","1","+10","[1721]","1","2","","","1209","127","8","1","win","go","0","0"
"pit-trial","228","1319500","0.0-132.0","battery-v0.2","","""event"",""trial"",""time""
""fullscreenenter"",""1"",""2295""
","
","
","""event"",""trial"",""time""
""fullscreenenter"",""1"",""2295""
","
","","","611","","","12","1209","774","q","elianto","#f73b6a7A","-1"," ","0","-10","[1462]","1","2","","","1209","128","11","4","lose","no-go","0","0"
"pit-trial","229","1322942","0.0-133.0","battery-v0.2","","""event"",""trial"",""time""
""fullscreenenter"",""1"",""2295""
","
","
","""event"",""trial"",""time""
""fullscreenenter"",""1"",""2295""
","
","","","588","","","12","1209","774","f","elianto","#3366ff99","-1"," ","0","0","[1439]","1","2","","","1209","129","9","2","win","no-go","0","0"
"pit-trial","230","1327797","0.0-134.0","battery-v0.2","","""event"",""trial"",""time""
""fullscreenenter"",""1"",""2295""
","
","
","""event"",""trial"",""time""
""fullscreenenter"",""1"",""2295""
","
","","","-1","","","12","1209","774","q","elianto","#f73b6a7A","-1","-1","1","0","[]","0","2","","","1209","130","11","4","lose","no-go","0","0"
"pit-trial","231","1332651","0.0-135.0","battery-v0.2","","""event"",""trial"",""time""
""fullscreenenter"",""1"",""2295""
","
","
","""event"",""trial"",""time""
""fullscreenenter"",""1"",""2295""
","
","","","-1","","","12","1209","774","n","elianto","#f73b6a7A"," ","-1","0","-10","[3581.000000000233]","1","2","","","1209","131","10","3","lose","go","0","0"
"pit-trial","232","1336117","0.0-136.0","battery-v0.2","","""event"",""trial"",""time""
""fullscreenenter"",""1"",""2295""
","
","
","""event"",""trial"",""time""
""fullscreenenter"",""1"",""2295""
","
","","","611","","","12","1209","774","x","elianto","#3366ff99"," "," ","1","+10","[1462]","1","2","","","1209","132","8","1","win","go","0","0"
"pit-trial","233","1340971","0.0-137.0","battery-v0.2","","""event"",""trial"",""time""
""fullscreenenter"",""1"",""2295""
","
","
","""event"",""trial"",""time""
""fullscreenenter"",""1"",""2295""
","
","","","-1","","","12","1209","774","n","elianto","#f73b6a7A"," ","-1","0","0","[3059]","1","2","","","1209","133","10","3","lose","go","1","0"
"pit-trial","234","1344238","0.0-138.0","battery-v0.2","","""event"",""trial"",""time""
""fullscreenenter"",""1"",""2295""
","
","
","""event"",""trial"",""time""
""fullscreenenter"",""1"",""2295""
","
","","","413","","","12","1209","774","q","elianto","#f73b6a7A","-1"," ","0","-10","[1264]","1","2","","","1209","134","11","4","lose","no-go","0","0"
"pit-trial","235","1347985","0.0-139.0","battery-v0.2","","""event"",""trial"",""time""
""fullscreenenter"",""1"",""2295""
","
","
","""event"",""trial"",""time""
""fullscreenenter"",""1"",""2295""
","
","","","893","","","12","1209","774","x","elianto","#3366ff99"," "," ","1","+10","[1744,3555]","2","2","","","1209","135","8","1","win","go","0","0"
"pit-trial","236","1351585","0.0-140.0","battery-v0.2","","""event"",""trial"",""time""
""fullscreenenter"",""1"",""2295""
","
","
","""event"",""trial"",""time""
""fullscreenenter"",""1"",""2295""
","
","","","747","","","12","1209","774","f","elianto","#3366ff99","-1"," ","0","0","[1597]","1","2","","","1209","136","9","2","win","no-go","0","0"
"pit-trial","237","1356439","0.0-141.0","battery-v0.2","","""event"",""trial"",""time""
""fullscreenenter"",""1"",""2295""
","
","
","""event"",""trial"",""time""
""fullscreenenter"",""1"",""2295""
","
","","","-1","","","12","1209","774","f","elianto","#3366ff99","-1","-1","1","+10","[4578]","1","2","","","1209","137","9","2","win","no-go","0","0"
"pit-trial","238","1359573","0.0-142.0","battery-v0.2","","""event"",""trial"",""time""
""fullscreenenter"",""1"",""2295""
","
","
","""event"",""trial"",""time""
""fullscreenenter"",""1"",""2295""
","
","","","280.00000000023283","","","12","1209","774","n","elianto","#f73b6a7A"," "," ","1","0","[1131.0000000002328]","1","2","","","1209","138","10","3","lose","go","0","0"
"pit-trial","239","1364427","0.0-143.0","battery-v0.2","","""event"",""trial"",""time""
""fullscreenenter"",""1"",""2295""
","
","
","""event"",""trial"",""time""
""fullscreenenter"",""1"",""2295""
","
","","","-1","","","12","1209","774","x","elianto","#3366ff99"," ","-1","0","0","[]","0","2","","","1209","139","8","1","win","go","0","0"
"pit-trial","240","1367887","0.0-144.0","battery-v0.2","","""event"",""trial"",""time""
""fullscreenenter"",""1"",""2295""
","
","
","""event"",""trial"",""time""
""fullscreenenter"",""1"",""2295""
","
","","","606","","","12","1209","774","q","elianto","#f73b6a7A","-1"," ","0","0","[1457]","1","2","","","1209","140","11","4","lose","no-go","1","0"
"pit-instructions","241","1404786","0.0-145.0","battery-v0.2","","""event"",""trial"",""time""
""fullscreenenter"",""1"",""2295""
","
","
","""event"",""trial"",""time""
""fullscreenenter"",""1"",""2295""
","
","","[{""page_index"":0,""viewing_time"":28844},{""page_index"":1,""viewing_time"":8053}]","36897","","","","","","","","","","","","","","","","","","","","","","","","",""
"pit-trial","242","1408051","0.0-146.0","battery-v0.2","","""event"",""trial"",""time""
""fullscreenenter"",""1"",""2295""
","
","
","""event"",""trial"",""time""
""fullscreenenter"",""1"",""2295""
","
","","","409.99999999976717","","","12","1209","774","l","elianto","#3366ff99","-1"," ","0","0","[1260]","1","3","","","1209","141","1","2","win","no-go","0","0"
"pit-trial","243","1411459","0.0-147.0","battery-v0.2","","""event"",""trial"",""time""
""fullscreenenter"",""1"",""2295""
","
","
","""event"",""trial"",""time""
""fullscreenenter"",""1"",""2295""
","
","","","553","","","12","1209","774","u","elianto","#3366ff99","-1"," ","0","0","[1404]","1","3","","","1209","142","0","2","win","no-go","0","0"
"pit-trial","244","1416314","0.0-148.0","battery-v0.2","","""event"",""trial"",""time""
""fullscreenenter"",""1"",""2295""
","
","
","""event"",""trial"",""time""
""fullscreenenter"",""1"",""2295""
","
","","","-1","","","12","1209","774","a","elianto","#3366ff99"," ","-1","0","+10","[]","0","3","","","1209","143","2","1","win","go","1","0"
"pit-trial","245","1419401","0.0-149.0","battery-v0.2","","""event"",""trial"",""time""
""fullscreenenter"",""1"",""2295""
","
","
","""event"",""trial"",""time""
""fullscreenenter"",""1"",""2295""
","
","","","234","","","12","1209","774","g","elianto","#f73b6a7A"," "," ","1","-10","[1085]","1","3","","","1209","144","3","3","lose","go","1","0"
"pit-trial","246","1422845","0.0-150.0","battery-v0.2","","""event"",""trial"",""time""
""fullscreenenter"",""1"",""2295""
","
","
","""event"",""trial"",""time""
""fullscreenenter"",""1"",""2295""
","
","","","589","","","12","1209","774","a","elianto","#3366ff99"," "," ","1","+10","[1439]","1","3","","","1209","145","2","1","win","go","0","0"
"pit-trial","247","1426107","0.0-151.0","battery-v0.2","","""event"",""trial"",""time""
""fullscreenenter"",""1"",""2295""
","
","
","""event"",""trial"",""time""
""fullscreenenter"",""1"",""2295""
","
","","","407.99999999976717","","","12","1209","774","u","elianto","#3366ff99","-1"," ","0","0","[1259]","1","3","","","1209","146","0","2","win","no-go","0","0"
"pit-trial","248","1429358","0.0-152.0","battery-v0.2","","""event"",""trial"",""time""
""fullscreenenter"",""1"",""2295""
","
","
","""event"",""trial"",""time""
""fullscreenenter"",""1"",""2295""
","
","","","397","","","12","1209","774","g","elianto","#f73b6a7A"," "," ","1","0","[1247]","1","3","","","1209","147","3","3","lose","go","0","0"
"pit-trial","249","1432745","0.0-153.0","battery-v0.2","","""event"",""trial"",""time""
""fullscreenenter"",""1"",""2295""
","
","
","""event"",""trial"",""time""
""fullscreenenter"",""1"",""2295""
","
","","","532","","","12","1209","774","l","elianto","#3366ff99","-1"," ","0","0","[1382.9999999997672]","1","3","","","1209","148","1","2","win","no-go","0","0"
"pit-trial","250","1436177","0.0-154.0","battery-v0.2","","""event"",""trial"",""time""
""fullscreenenter"",""1"",""2295""
","
","
","""event"",""trial"",""time""
""fullscreenenter"",""1"",""2295""
","
","","","577","","","12","1209","774","a","elianto","#3366ff99"," "," ","1","+10","[1428]","1","3","","","1209","149","2","1","win","go","0","0"
"pit-trial","251","1441030","0.0-155.0","battery-v0.2","","""event"",""trial"",""time""
""fullscreenenter"",""1"",""2295""
","
","
","""event"",""trial"",""time""
""fullscreenenter"",""1"",""2295""
","
","","","-1","","","12","1209","774","u","elianto","#3366ff99","-1","-1","1","+10","[3138]","1","3","","","1209","150","0","2","win","no-go","0","0"
"pit-trial","252","1445884","0.0-156.0","battery-v0.2","","""event"",""trial"",""time""
""fullscreenenter"",""1"",""2295""
","
","
","""event"",""trial"",""time""
""fullscreenenter"",""1"",""2295""
","
","","","-1","","","12","1209","774","l","elianto","#3366ff99","-1","-1","1","+10","[3190]","1","3","","","1209","151","1","2","win","no-go","0","0"
"pit-trial","253","1450250","0.0-157.0","battery-v0.2","","""event"",""trial"",""time""
""fullscreenenter"",""1"",""2295""
","
","
","""event"",""trial"",""time""
""fullscreenenter"",""1"",""2295""
","
","","","1511","","","12","1209","774","g","elianto","#f73b6a7A"," "," ","1","0","[2362]","1","3","","","1209","152","3","3","lose","go","0","0"
"pit-trial","254","1455105","0.0-158.0","battery-v0.2","","""event"",""trial"",""time""
""fullscreenenter"",""1"",""2295""
","
","
","""event"",""trial"",""time""
""fullscreenenter"",""1"",""2295""
","
","","","-1","","","12","1209","774","a","elianto","#3366ff99"," ","-1","0","0","[3104]","1","3","","","1209","153","2","1","win","go","0","0"
"pit-trial","255","1459959","0.0-159.0","battery-v0.2","","""event"",""trial"",""time""
""fullscreenenter"",""1"",""2295""
","
","
","""event"",""trial"",""time""
""fullscreenenter"",""1"",""2295""
","
","","","-1","","","12","1209","774","l","elianto","#3366ff99","-1","-1","1","+10","[758,3908]","2","3","","","1209","154","1","2","win","no-go","0","0"
"pit-trial","256","1463480","0.0-160.0","battery-v0.2","","""event"",""trial"",""time""
""fullscreenenter"",""1"",""2295""
","
","
","""event"",""trial"",""time""
""fullscreenenter"",""1"",""2295""
","
","","","668","","","12","1209","774","g","elianto","#f73b6a7A"," "," ","1","0","[1518,2901]","2","3","","","1209","155","3","3","lose","go","0","0"
"pit-trial","257","1467879","0.0-161.0","battery-v0.2","","""event"",""trial"",""time""
""fullscreenenter"",""1"",""2295""
","
","
","""event"",""trial"",""time""
""fullscreenenter"",""1"",""2295""
","
","","","1543","","","12","1209","774","u","elianto","#3366ff99","-1"," ","0","0","[2394]","1","3","","","1209","156","0","2","win","no-go","0","0"
"pit-trial","258","1472706","0.0-162.0","battery-v0.2","","""event"",""trial"",""time""
""fullscreenenter"",""1"",""2295""
","
","
","""event"",""trial"",""time""
""fullscreenenter"",""1"",""2295""
","
","","","1972","","","12","1209","774","g","elianto","#f73b6a7A"," "," ","1","0","[741,2823,4083]","3","3","","","1209","157","3","3","lose","go","0","0"
"pit-trial","259","1476227","0.0-163.0","battery-v0.2","","""event"",""trial"",""time""
""fullscreenenter"",""1"",""2295""
","
","
","""event"",""trial"",""time""
""fullscreenenter"",""1"",""2295""
","
","","","666.0000000002328","","","12","1209","774","u","elianto","#3366ff99","-1"," ","0","0","[1517.0000000002328]","1","3","","","1209","158","0","2","win","no-go","0","0"
"pit-trial","260","1481081","0.0-164.0","battery-v0.2","","""event"",""trial"",""time""
""fullscreenenter"",""1"",""2295""
","
","
","""event"",""trial"",""time""
""fullscreenenter"",""1"",""2295""
","
","","","-1","","","12","1209","774","l","elianto","#3366ff99","-1","-1","1","+10","[]","0","3","","","1209","159","1","2","win","no-go","0","0"
"pit-trial","261","1485935","0.0-165.0","battery-v0.2","","""event"",""trial"",""time""
""fullscreenenter"",""1"",""2295""
","
","
","""event"",""trial"",""time""
""fullscreenenter"",""1"",""2295""
","
","","","-1","","","12","1209","774","a","elianto","#3366ff99"," ","-1","0","+10","[]","0","3","","","1209","160","2","1","win","go","1","0"
"pit-trial","262","1490789","0.0-166.0","battery-v0.2","","""event"",""trial"",""time""
""fullscreenenter"",""1"",""2295""
","
","
","""event"",""trial"",""time""
""fullscreenenter"",""1"",""2295""
","
","","","-1","","","12","1209","774","l","elianto","#3366ff99","-1","-1","1","0","[]","0","3","","","1209","161","1","2","win","no-go","1","0"
"pit-trial","263","1495643","0.0-167.0","battery-v0.2","","""event"",""trial"",""time""
""fullscreenenter"",""1"",""2295""
","
","
","""event"",""trial"",""time""
""fullscreenenter"",""1"",""2295""
","
","","","-1","","","12","1209","774","u","elianto","#3366ff99","-1","-1","1","+10","[3482.000000000233]","1","3","","","1209","162","0","2","win","no-go","0","0"
"pit-trial","264","1498783","0.0-168.0","battery-v0.2","","""event"",""trial"",""time""
""fullscreenenter"",""1"",""2295""
","
","
","""event"",""trial"",""time""
""fullscreenenter"",""1"",""2295""
","
","","","286.99999999976717","","","12","1209","774","a","elianto","#3366ff99"," "," ","1","+10","[1137]","1","3","","","1209","163","2","1","win","go","0","0"
"pit-trial","265","1502125","0.0-169.0","battery-v0.2","","""event"",""trial"",""time""
""fullscreenenter"",""1"",""2295""
","
","
","""event"",""trial"",""time""
""fullscreenenter"",""1"",""2295""
","
","","","487","","","12","1209","774","g","elianto","#f73b6a7A"," "," ","1","0","[1338]","1","3","","","1209","164","3","3","lose","go","0","0"
"pit-trial","266","1505252","0.0-170.0","battery-v0.2","","""event"",""trial"",""time""
""fullscreenenter"",""1"",""2295""
","
","
","""event"",""trial"",""time""
""fullscreenenter"",""1"",""2295""
","
","","","274","","","12","1209","774","g","elianto","#f73b6a7A"," "," ","1","0","[483.00000000023283,1124]","2","3","","","1209","165","3","3","lose","go","0","0"
"pit-trial","267","1508976","0.0-171.0","battery-v0.2","","""event"",""trial"",""time""
""fullscreenenter"",""1"",""2295""
","
","
","""event"",""trial"",""time""
""fullscreenenter"",""1"",""2295""
","
","","","870.0000000002328","","","12","1209","774","l","elianto","#3366ff99","-1"," ","0","0","[1721]","1","3","","","1209","166","1","2","win","no-go","0","0"
"pit-trial","268","1512195","0.0-172.0","battery-v0.2","","""event"",""trial"",""time""
""fullscreenenter"",""1"",""2295""
","
","
","""event"",""trial"",""time""
""fullscreenenter"",""1"",""2295""
","
","","","364","","","12","1209","774","a","elianto","#3366ff99"," "," ","1","0","[1215]","1","3","","","1209","167","2","1","win","go","1","0"
"pit-trial","269","1517049","0.0-173.0","battery-v0.2","","""event"",""trial"",""time""
""fullscreenenter"",""1"",""2295""
","
","
","""event"",""trial"",""time""
""fullscreenenter"",""1"",""2295""
","
","","","-1","","","12","1209","774","u","elianto","#3366ff99","-1","-1","1","+10","[]","0","3","","","1209","168","0","2","win","no-go","0","0"
"pit-trial","270","1520170","0.0-174.0","battery-v0.2","","""event"",""trial"",""time""
""fullscreenenter"",""1"",""2295""
","
","
","""event"",""trial"",""time""
""fullscreenenter"",""1"",""2295""
","
","","","268","","","12","1209","774","g","elianto","#f73b6a7A"," "," ","1","0","[1118,1871]","2","3","","","1209","169","3","3","lose","go","0","0"
"pit-trial","271","1523679","0.0-175.0","battery-v0.2","","""event"",""trial"",""time""
""fullscreenenter"",""1"",""2295""
","
","
","""event"",""trial"",""time""
""fullscreenenter"",""1"",""2295""
","
